,timestamp_start,timestamp_end,acc.x,acc.y,acc.z,gyro.x,gyro.y,gyro.z,stateEstimate.x,stateEstimate.y,stateEstimate.z,stabilizer.pitch,stabilizer.roll,stabilizer.yaw
0,85603,85600,-0.05497738718986511,0.03915536403656006,1.0060601234436035,-11.776979446411133,-5.160512924194336,-2.360117197036743,2.038893938064575,4.166952133178711,0.17557083070278168,-0.7618849277496338,1.4738216400146484,3.477257490158081
1,85613,85610,0.019550949335098267,-0.01421546284109354,0.9481709599494934,-10.109258651733398,-2.3785812854766846,-1.4396551847457886,2.0349583625793457,4.16209602355957,0.17729604244232178,-0.899756669998169,1.3552361726760864,3.419802188873291
2,85623,85620,0.11350420117378235,-0.025736428797245026,0.9488805532455444,-9.229394912719727,-1.5287110805511475,-1.6904866695404053,2.033297538757324,4.161590576171875,0.17577730119228363,-0.8921889066696167,1.4026345014572144,3.415034532546997
3,85633,85630,0.04649913311004639,-0.05114193260669708,0.9367738962173462,-11.094945907592773,-1.2147964239120483,-1.8317523002624512,2.032111883163452,4.162237167358398,0.17739449441432953,-0.9711571335792542,1.2768856287002563,3.3754966259002686
4,85643,85640,-0.02481059543788433,-0.06934712082147598,1.0257304906845093,-13.572406768798828,-4.3923797607421875,-1.450085997581482,2.03193998336792,4.16121244430542,0.17892678081989288,-0.9284879565238953,1.1991376876831055,3.3747692108154297
5,85653,85650,0.018396342173218727,-0.13151699304580688,0.9659521579742432,-16.32193946838379,-3.8322947025299072,-1.645302176475525,2.0274147987365723,4.165225028991699,0.1806626170873642,-0.8775572776794434,1.059018850326538,3.3629307746887207
6,85663,85660,-0.005600204225629568,-0.010895452462136745,1.0124123096466064,-18.157506942749023,-5.024318218231201,-1.4554221630096436,2.024906873703003,4.1661272048950195,0.1828361451625824,-0.819804310798645,1.0275771617889404,3.3735508918762207
7,85673,85670,0.03022930771112442,0.018170170485973358,1.0051237344741821,-20.47696876525879,-3.2794432640075684,-1.0827137231826782,2.0242698192596436,4.165328502655029,0.18425661325454712,-0.8083219528198242,0.9496794939041138,3.368802309036255
8,85683,85680,0.07985910028219223,-0.11301916837692261,1.0147995948791504,-20.6529598236084,-8.623661994934082,-1.1281155347824097,2.0251450538635254,4.165246963500977,0.18628840148448944,-0.7803616523742676,0.6056915521621704,3.326476573944092
9,85693,85690,0.00045269454130902886,-0.00225710216909647,1.0478267669677734,-20.11180305480957,-9.321048736572266,-0.6522576212882996,2.0256857872009277,4.165680885314941,0.18482321500778198,-0.6889451146125793,0.4682859182357788,3.3287060260772705
10,85703,85700,0.035603467375040054,-0.02082851529121399,0.9923261404037476,-18.621994018554688,-7.8183913230896,-0.40206706523895264,2.023844003677368,4.163620471954346,0.18634292483329773,-0.5315870046615601,0.2814548909664154,3.333024740219116
11,85713,85710,-0.023479638621211052,0.02909761480987072,1.0507625341415405,-16.471712112426758,-6.7798686027526855,-0.5845091342926025,2.0256619453430176,4.162577152252197,0.18760661780834198,-0.6227630972862244,0.26458561420440674,3.335040330886841
12,85723,85720,0.006713999900966883,-0.03819568082690239,1.021500825881958,-14.298401832580566,-5.747498512268066,-0.4817984104156494,2.02372407913208,4.163510322570801,0.19109845161437988,-0.4832907021045685,-0.029011227190494537,3.315502643585205
13,85733,85730,0.003942383918911219,-0.0022022491320967674,1.0256118774414062,-13.375823020935059,-5.5570969581604,-0.25090619921684265,2.0255372524261475,4.165708541870117,0.19301114976406097,-0.4395480751991272,-0.3469540476799011,3.281891107559204
14,85743,85740,0.021886201575398445,0.0197309497743845,1.0411007404327393,-11.973719596862793,-5.901233673095703,0.5687355995178223,2.027695894241333,4.16568660736084,0.19466014206409454,-0.5414404273033142,-0.26662519574165344,3.3023345470428467
15,85753,85750,-0.03220481798052788,-0.0018531905952841043,1.0547513961791992,-10.676812171936035,-7.106475353240967,0.7717338800430298,2.027484178543091,4.16434907913208,0.1965561807155609,-0.3943513035774231,-0.4032997786998749,3.3093554973602295
16,85763,85760,0.042118147015571594,-0.12728390097618103,1.0036603212356567,-10.935342788696289,-9.510337829589844,0.8483946323394775,2.0275158882141113,4.164543151855469,0.1961250901222229,-0.2249198704957962,-0.5253183841705322,3.3175246715545654
17,85773,85770,-0.027220407500863075,0.03327439725399017,1.0557012557983398,-10.453309059143066,-8.472949981689453,0.894154965877533,2.027966022491455,4.16300630569458,0.1977769136428833,-0.19052252173423767,-0.5632990598678589,3.3356540203094482
18,85783,85780,0.05251643434166908,0.08452019095420837,1.0122689008712769,-9.599885940551758,-6.243277072906494,1.028423547744751,2.0286805629730225,4.1648125648498535,0.19986605644226074,-0.025423264130949974,-0.8879956007003784,3.3189048767089844
19,85793,85790,0.0487564355134964,0.0041307080537080765,1.0064783096313477,-9.137022018432617,-9.57129955291748,1.1901596784591675,2.0298843383789062,4.165550231933594,0.20241199433803558,-0.03825034946203232,-1.1032521724700928,3.3216590881347656
20,85803,85800,0.04415888339281082,0.04578692093491554,1.0570778846740723,-7.783703804016113,-8.119009971618652,1.402061939239502,2.0298709869384766,4.163078784942627,0.20439405739307404,0.05780695751309395,-0.8498555421829224,3.3649418354034424
21,85813,85810,-0.05651004612445831,-0.02038157358765602,1.061920404434204,-5.262298583984375,-5.831051826477051,1.5639890432357788,2.0308125019073486,4.16403865814209,0.2065640240907669,0.0749766007065773,-1.1140838861465454,3.3721189498901367
22,85823,85820,0.037699829787015915,-0.06841983646154404,0.9638826847076416,-6.0134077072143555,-2.7045862674713135,1.684938907623291,2.029705286026001,4.163607597351074,0.2090330272912979,0.19471773505210876,-1.1117680072784424,3.3858420848846436
23,85833,85830,-0.04871063306927681,0.1851121485233307,1.074486255645752,-5.029078483581543,-0.8388227224349976,1.8500590324401855,2.0287747383117676,4.163299560546875,0.21097368001937866,0.12163157761096954,-1.1227468252182007,3.4140801429748535
24,85843,85840,0.004244975280016661,0.02203504554927349,0.9983216524124146,-4.143784523010254,-1.838435411453247,1.4045065641403198,2.027282238006592,4.161601543426514,0.21309567987918854,0.11213083565235138,-1.2526524066925049,3.4320642948150635
25,85853,85850,-0.08662538975477219,-0.02115071937441826,1.031704306602478,-4.741644382476807,-4.073601245880127,1.2071950435638428,2.0236032009124756,4.164057731628418,0.21414782106876373,0.21009670197963715,-1.3617360591888428,3.4270715713500977
26,85863,85860,-0.05499798059463501,-0.03931383788585663,1.0271185636520386,-5.392824649810791,-5.619215965270996,0.8863646984100342,2.0228898525238037,4.16140604019165,0.2163485288619995,0.2497406303882599,-1.408668875694275,3.4412176609039307
27,85873,85870,0.003777554724365473,-0.08147302269935608,0.9919240474700928,-4.459598541259766,-5.370023727416992,0.8165157437324524,2.018883228302002,4.163349628448486,0.2184537649154663,0.3757808208465576,-1.5787653923034668,3.437501907348633
28,85883,85880,0.008444537408649921,0.09041174501180649,0.9996325969696045,-1.1504859924316406,-7.492722511291504,0.7989396452903748,2.017928123474121,4.163065433502197,0.2204912006855011,0.4969156086444855,-1.6336082220077515,3.433472156524658
29,85893,85890,-0.008530670776963234,-0.012159869074821472,0.986162006855011,2.0355336666107178,-5.627287864685059,0.670906126499176,2.016744375228882,4.161162376403809,0.22154805064201355,0.6238712072372437,-1.7052679061889648,3.4308035373687744
30,85903,85900,-0.07967819273471832,-0.012964839115738869,1.0260182619094849,5.266071796417236,-3.8118460178375244,0.9143033623695374,2.015758991241455,4.160483360290527,0.2234760969877243,0.7209935784339905,-1.705786108970642,3.4302549362182617
31,85913,85910,0.003986578434705734,0.019789783284068108,1.0009015798568726,6.667581081390381,-0.47066226601600647,0.8526068925857544,2.0207650661468506,4.159886360168457,0.2260688990354538,0.04573681950569153,-1.733909010887146,3.6017377376556396
32,85923,85920,0.02550916001200676,-0.04243211820721626,0.9492249488830566,7.9206156730651855,2.692586660385132,0.24638602137565613,2.020003080368042,4.160465240478516,0.22999215126037598,0.12053880840539932,-1.6441665887832642,3.5899429321289062
33,85933,85930,0.03753049299120903,0.12970870733261108,0.993019700050354,9.047318458557129,1.2368659973144531,0.18909914791584015,2.0188803672790527,4.161043643951416,0.23221558332443237,0.16033507883548737,-1.5335749387741089,3.571945905685425
34,85943,85940,0.06383883953094482,0.046938542276620865,0.9791186451911926,9.669146537780762,-5.189909934997559,0.05375761538743973,2.0184476375579834,4.1613688468933105,0.23441477119922638,0.23962520062923431,-1.4804929494857788,3.554692029953003
35,85953,85950,-0.11707896739244461,0.026223110035061836,0.9422835111618042,9.285998344421387,-10.081775665283203,0.1362217515707016,2.0186281204223633,4.163315773010254,0.23534519970417023,0.3614567220211029,-1.3439244031906128,3.5432779788970947
36,85963,85960,-0.07568365335464478,0.0030094552785158157,1.0125545263290405,7.492086887359619,-11.258438110351562,-0.25787511467933655,2.0191457271575928,4.163130283355713,0.23731523752212524,0.44383975863456726,-1.2201658487319946,3.550820827484131
37,85973,85970,0.07972859591245651,-0.0786360502243042,0.9456714987754822,5.865786075592041,-11.517278671264648,-0.3490002155303955,2.0190136432647705,4.163590431213379,0.23923756182193756,0.5379276275634766,-1.2793285846710205,3.5600709915161133
38,85983,85980,0.1256411075592041,-0.030692484229803085,0.9547726511955261,5.303661823272705,-8.706820487976074,-0.6843321919441223,2.018059492111206,4.163485527038574,0.24119344353675842,0.7586106657981873,-1.1940386295318604,3.533949613571167
39,85993,85990,0.04412767291069031,-0.04434738680720329,0.9238653779029846,6.614445686340332,-8.00344181060791,-0.40624499320983887,2.0159339904785156,4.163835048675537,0.23926493525505066,0.9275106191635132,-1.1059651374816895,3.515394926071167
40,86003,86000,0.05205367133021355,-0.018389681354165077,1.0084357261657715,7.278470993041992,-3.923945665359497,-0.5339083671569824,2.0178072452545166,4.165698051452637,0.24087196588516235,1.0578086376190186,-1.0065555572509766,3.4983034133911133
41,86013,86010,-0.03609023615717888,0.026736587285995483,1.0203542709350586,6.2584357261657715,1.3835676908493042,-0.27824684977531433,2.0197079181671143,4.166808605194092,0.24253243207931519,1.0343379974365234,-0.9075040221214294,3.5022194385528564
42,86023,86020,-0.03098134882748127,-0.03464348241686821,0.9642603397369385,6.63346004486084,5.4904913902282715,-0.3473261296749115,2.016404628753662,4.167525291442871,0.2446402758359909,1.002518653869629,-0.811909556388855,3.497389078140259
43,86033,86030,-0.0030971828382462263,-0.022739646956324577,0.9555685520172119,5.354098320007324,10.408219337463379,-0.5401974320411682,2.016549825668335,4.167442321777344,0.2462247610092163,0.89872807264328,-0.6551697850227356,3.4895193576812744
44,86043,86040,-0.04036162421107292,0.01499306783080101,0.9269898533821106,4.435329437255859,7.900479316711426,-0.5806806683540344,2.0132381916046143,4.167469501495361,0.24795447289943695,1.0468947887420654,-0.8079217672348022,3.462346315383911
45,86053,86050,-0.04357945919036865,0.018142016604542732,0.9822341203689575,4.551412105560303,8.113394737243652,-0.5489347577095032,2.0125041007995605,4.165946006774902,0.2508070766925812,1.0416709184646606,-0.5946128964424133,3.422981023788452
46,86063,86060,0.0014219566946849227,-0.05867142975330353,0.9478470087051392,3.9082069396972656,7.645786762237549,-0.08292662352323532,2.010378122329712,4.166045665740967,0.2523195147514343,1.169069766998291,-0.5371223092079163,3.3845136165618896
47,86073,86070,0.04487238824367523,-0.11608342826366425,0.9683512449264526,3.16499924659729,8.263373374938965,-0.05744599550962448,2.0097622871398926,4.166018009185791,0.2538774311542511,0.9958847761154175,-0.42324942350387573,3.3853254318237305
48,86083,86080,0.06453200429677963,-0.057932961732149124,0.9432584047317505,1.5858820676803589,11.751884460449219,-0.4399425685405731,2.010526180267334,4.165125846862793,0.2555260956287384,0.8768499493598938,-0.4015387296676636,3.388211488723755
49,86093,86090,0.055589769035577774,0.015717729926109314,0.965940535068512,1.0476555824279785,11.541619300842285,-0.3296058475971222,2.010697364807129,4.163176536560059,0.2553669214248657,0.6494476199150085,-0.40263473987579346,3.3981125354766846
50,86103,86100,0.012595133855938911,-0.028006503358483315,0.965643584728241,0.5269805788993835,12.393389701843262,-0.3870229125022888,2.0109970569610596,4.164653778076172,0.25670385360717773,0.42083024978637695,-0.4092782139778137,3.406289577484131
51,86113,86110,-0.012210307642817497,-0.15208201110363007,0.9718329906463623,-0.6452904939651489,9.86108684539795,-0.7618157863616943,2.010592222213745,4.164849758148193,0.258014053106308,0.2353847473859787,-0.3489803969860077,3.4015400409698486
52,86123,86120,-0.051397114992141724,-0.18911054730415344,0.9366267323493958,-1.4357327222824097,7.971580505371094,-0.8596680164337158,2.010716438293457,4.164417266845703,0.2603067457675934,0.00690805446356535,-0.3877817988395691,3.406558036804199
53,86133,86130,-0.03742780163884163,0.016880130395293236,1.0201114416122437,-0.2999880611896515,4.091196537017822,-0.7177587747573853,2.007321357727051,4.1625447273254395,0.261850506067276,0.26278090476989746,-0.2786349058151245,3.3647782802581787
54,86143,86140,0.04318372905254364,-0.026476280763745308,0.9385221004486084,0.04071817919611931,-1.0542525053024292,-0.7544571757316589,2.0077524185180664,4.162810325622559,0.26325759291648865,0.056690748780965805,-0.3099437654018402,3.3693602085113525
55,86153,86150,0.06747877597808838,0.08088205754756927,0.9915426969528198,-0.6462809443473816,-2.4995460510253906,-0.5980439186096191,2.006767988204956,4.162878036499023,0.26374733448028564,0.15472029149532318,-0.3333493769168854,3.3615236282348633
56,86163,86160,0.04561880975961685,0.12361053377389908,0.9498935341835022,-0.11412511765956879,-3.688161849975586,-0.3702143728733063,2.007434129714966,4.164485931396484,0.26501962542533875,0.11760278791189194,-0.5046785473823547,3.3713204860687256
57,86173,86170,-0.04967686906456947,-0.023060066625475883,0.9667419791221619,0.04780441150069237,-2.9870426654815674,-0.35254091024398804,2.003821611404419,4.16339635848999,0.26624223589897156,0.5602568984031677,-0.42729452252388,3.3486502170562744
58,86183,86180,-0.0020404404494911432,-0.030846651643514633,0.9624221324920654,0.6732525825500488,-0.299581378698349,0.021362362429499626,2.0022544860839844,4.165422439575195,0.26579660177230835,0.6806224584579468,-0.6520906686782837,3.355087995529175
59,86193,86190,0.036527395248413086,-0.006087749730795622,0.9521295428276062,1.2856780290603638,3.9448986053466797,-0.026771169155836105,2.002739906311035,4.165405750274658,0.26692184805870056,0.5865054130554199,-0.6170181035995483,3.35827898979187
60,86203,86200,-0.05765414983034134,0.05492308363318443,0.9709880352020264,3.4772496223449707,8.278770446777344,0.10749035328626633,2.002488613128662,4.165152072906494,0.2679588794708252,0.48897749185562134,-0.5634618401527405,3.3582870960235596
61,86213,86210,-0.029865074902772903,-0.09218785911798477,0.9619421362876892,5.53153657913208,14.847020149230957,0.1834246814250946,2.0023624897003174,4.164609909057617,0.26900944113731384,0.3059672713279724,-0.4771019220352173,3.359272003173828
62,86223,86220,-0.0008358357008546591,-0.01628865674138069,0.9973312020301819,8.401360511779785,15.924721717834473,0.014201791025698185,2.0031542778015137,4.166635036468506,0.27140355110168457,0.12781262397766113,-0.4974306523799896,3.363729476928711
63,86233,86230,0.08784101903438568,0.05187404528260231,0.9956687688827515,7.7251458168029785,15.767255783081055,0.0023711551912128925,2.0032591819763184,4.166209697723389,0.2724343240261078,-0.03709029406309128,-0.3502044975757599,3.362574577331543
64,86243,86240,0.03220494091510773,0.017711319029331207,1.0091005563735962,7.654845237731934,11.427153587341309,-0.02349468693137169,2.003981828689575,4.1673808097839355,0.2735137343406677,-0.3107346296310425,-0.35897600650787354,3.3664462566375732
65,86253,86250,-0.01215991098433733,-0.01391343679279089,0.9800007343292236,8.176886558532715,6.838890075683594,-0.6311182975769043,2.0028164386749268,4.166518211364746,0.2736411690711975,-0.3514763116836548,-0.20781183242797852,3.3625552654266357
66,86263,86260,-0.10133423656225204,0.03597293421626091,0.9693536162376404,6.419163227081299,0.23758065700531006,-1.0523279905319214,2.0028116703033447,4.167698860168457,0.27455800771713257,-0.44472938776016235,-0.21400082111358643,3.3543057441711426
67,86273,86270,0.0013954233145341277,-0.01375117152929306,0.9778389930725098,4.59891414642334,-1.5672643184661865,-1.0987411737442017,2.002800703048706,4.167603969573975,0.2754657566547394,-0.4594273269176483,-0.09832434356212616,3.3436779975891113
68,86283,86280,-0.043562162667512894,0.013819469138979912,0.994910717010498,4.195131301879883,-5.453456401824951,-1.0047587156295776,2.0029306411743164,4.169238090515137,0.2747887670993805,-0.4935445785522461,-0.15333645045757294,3.322749376296997
69,86293,86290,-0.018032003194093704,0.07995633780956268,1.0196001529693604,4.152486801147461,-5.584142208099365,-0.40374699234962463,1.9998183250427246,4.17111349105835,0.27565428614616394,-0.4042567014694214,-0.04858577996492386,3.315333366394043
70,86303,86300,0.0002922837156802416,0.062186188995838165,1.0190598964691162,4.51694917678833,-4.042932510375977,-0.348134845495224,1.9971959590911865,4.172364234924316,0.27646034955978394,-0.34271490573883057,0.050734251737594604,3.3061022758483887
71,86313,86310,-0.03937797620892525,0.012796062044799328,1.0112669467926025,3.253436326980591,-1.2758110761642456,-0.27111539244651794,1.9958689212799072,4.174010753631592,0.2773667275905609,-0.3107265532016754,-0.009639440104365349,3.297183036804199
72,86323,86320,0.015013342723250389,-0.061039894819259644,0.9382086992263794,1.733869194984436,0.3110515773296356,-0.3653341829776764,1.9928051233291626,4.175320148468018,0.2799147367477417,-0.3073923885822296,-0.0081505561247468,3.2825307846069336
73,86333,86330,-0.03136749565601349,0.0648641586303711,1.0199768543243408,3.305459976196289,2.690366268157959,-0.004132481291890144,1.9929451942443848,4.1771392822265625,0.2807924449443817,-0.31576231122016907,-0.0671914741396904,3.272432327270508
74,86343,86340,0.001010076142847538,0.0394819974899292,1.0107386112213135,3.2588698863983154,3.5784058570861816,-0.07703003287315369,1.9934598207473755,4.179438591003418,0.28165388107299805,-0.39016154408454895,-0.1144075021147728,3.2660791873931885
75,86353,86350,-0.014065176248550415,-0.021718615666031837,0.9627176523208618,5.200410842895508,4.5226922035217285,0.24995921552181244,1.9924876689910889,4.178830623626709,0.28374773263931274,-0.4698067903518677,0.0013962480006739497,3.270362377166748
76,86363,86360,0.024975018575787544,-0.0596325658261776,0.9587362408638,7.860131740570068,3.6061434745788574,0.5727799534797668,1.9921231269836426,4.1789751052856445,0.28463754057884216,-0.5326603055000305,0.003000095020979643,3.2676239013671875
77,86373,86370,-0.02995273843407631,0.009886883199214935,1.011683464050293,9.915098190307617,5.122646808624268,0.5176685452461243,1.992586612701416,4.178469657897949,0.2856081426143646,-0.6013957262039185,0.20143979787826538,3.283015012741089
78,86383,86380,0.00024006080639082938,-0.02348017320036888,0.9758976101875305,9.708953857421875,9.991423606872559,0.7177517414093018,1.9915345907211304,4.178496837615967,0.2828216254711151,-0.7138385772705078,0.25850221514701843,3.2818052768707275
79,86393,86390,0.014307282865047455,-0.17037582397460938,0.9402614235877991,8.21042251586914,12.923067092895508,0.780549168586731,1.9908571243286133,4.179680824279785,0.28355464339256287,-0.8969328999519348,0.38097095489501953,3.2881648540496826
80,86403,86400,0.07368597388267517,0.04833122715353966,0.9412350654602051,5.307084083557129,13.289861679077148,0.3028465509414673,1.99152410030365,4.178902626037598,0.28416335582733154,-1.0470908880233765,0.5230180621147156,3.3036389350891113
81,86413,86410,-0.153488427400589,-0.012390276417136192,1.0273910760879517,3.13326096534729,11.461708068847656,-0.1443246752023697,1.9925287961959839,4.180036544799805,0.28553250432014465,-1.2229639291763306,0.5544356107711792,3.3008780479431152
82,86423,86420,-0.15673553943634033,-0.0013626230647787452,0.986856997013092,-0.9817887544631958,10.036879539489746,0.3644616901874542,1.992455244064331,4.180111408233643,0.286213219165802,-1.2849870920181274,0.6062036156654358,3.3083815574645996
83,86433,86430,-0.08592198044061661,0.13612611591815948,0.9926455616950989,-3.5888023376464844,6.666142463684082,0.6367543935775757,1.9925659894943237,4.180710315704346,0.2869250476360321,-1.387866735458374,0.5986032485961914,3.3135712146759033
84,86443,86440,0.0038094609044492245,0.14743895828723907,0.9986414909362793,-4.9210124015808105,1.9842653274536133,0.8051620125770569,1.9928345680236816,4.180742263793945,0.2875916659832001,-1.4203883409500122,0.5532734990119934,3.3217804431915283
85,86453,86450,0.028656013309955597,0.02712622843682766,1.0038074254989624,-3.5386273860931396,-3.481679916381836,0.5467705130577087,1.9933537244796753,4.1817545890808105,0.29098132252693176,-1.3796765804290771,0.5013558268547058,3.334965705871582
86,86463,86460,0.029149146750569344,-0.0355277955532074,0.972707986831665,-2.178070306777954,-4.9504804611206055,0.6206398606300354,1.993497371673584,4.1817498207092285,0.2909761369228363,-1.3438245058059692,0.4763757884502411,3.3420300483703613
87,86473,86470,-0.033184804022312164,0.030477233231067657,1.0280314683914185,-1.3329886198043823,-4.941503047943115,0.2239709496498108,1.9930022954940796,4.181442737579346,0.29189690947532654,-1.2212053537368774,0.4752492308616638,3.35547137260437
88,86483,86480,0.10440406948328018,-0.035461582243442535,0.9417899250984192,-0.42955392599105835,-1.5348540544509888,0.7750394940376282,1.994632363319397,4.180408477783203,0.2920374274253845,-1.3419643640518188,0.4760938286781311,3.3440022468566895
89,86493,86490,-0.012036004103720188,0.0384020172059536,0.9652206897735596,2.761458158493042,-1.6440995931625366,0.03094412386417389,1.9946001768112183,4.179688453674316,0.2928306758403778,-1.2507621049880981,0.5349177718162537,3.357396125793457
90,86503,86500,-0.03890944644808769,-1.2146909284638241e-05,0.9937443733215332,1.5917047262191772,1.535555124282837,0.0025296255480498075,1.9949674606323242,4.179370880126953,0.29354918003082275,-1.2268075942993164,0.5805503726005554,3.364586114883423
91,86513,86510,-0.018227724358439445,-0.03037550486624241,0.9587413668632507,-1.488916039466858,2.3237082958221436,-0.2568666636943817,1.9952614307403564,4.179111957550049,0.291172057390213,-1.230494499206543,0.5781398415565491,3.3657310009002686
92,86523,86520,0.04646863415837288,-0.020646385848522186,0.9640029668807983,-2.388266086578369,3.114874839782715,-0.48320862650871277,1.9952185153961182,4.179071426391602,0.29164180159568787,-1.253414273262024,0.5399130582809448,3.3625431060791016
93,86533,86530,-0.01938501186668873,0.03276638314127922,0.9516894221305847,-4.4417724609375,3.2578587532043457,0.008869935758411884,1.9949012994766235,4.178337574005127,0.2920551300048828,-1.3330246210098267,0.48746293783187866,3.3469924926757812
94,86543,86540,0.02382846549153328,0.022979864850640297,0.9622960090637207,-6.842574596405029,3.136491060256958,0.2002277374267578,1.9951881170272827,4.17884635925293,0.29247331619262695,-1.366927146911621,0.39041921496391296,3.3416194915771484
95,86553,86550,0.06139059364795685,-0.03369734808802605,0.9582726955413818,-6.468799114227295,0.6900430917739868,0.05129092559218407,1.9966256618499756,4.179987907409668,0.29181432723999023,-1.394791841506958,0.2984297573566437,3.3338961601257324
96,86563,86560,-0.0032354085706174374,0.07501374185085297,1.0119186639785767,-5.048566818237305,-0.17438432574272156,0.33227190375328064,1.9967063665390015,4.180210113525391,0.29212823510169983,-1.3251464366912842,0.21938686072826385,3.335646390914917
97,86573,86570,-0.018292516469955444,0.06727045774459839,0.9963125586509705,-2.390695571899414,-1.0557376146316528,0.37062373757362366,1.9975916147232056,4.180755615234375,0.2923645079135895,-1.3298252820968628,0.18000440299510956,3.3359274864196777
98,86583,86580,-0.011711416766047478,-0.0017970422049984336,0.9789301753044128,-0.360126256942749,-2.725181818008423,0.2173415571451187,1.9980677366256714,4.180900573730469,0.29102495312690735,-1.230098009109497,0.18143223226070404,3.3503105640411377
99,86593,86590,-0.0061422353610396385,-0.030977820977568626,1.0005555152893066,2.4246342182159424,-3.553668737411499,0.37986934185028076,1.9991705417633057,4.1822991371154785,0.2911643087863922,-1.3383090496063232,0.21606393158435822,3.343729019165039
100,86603,86600,-0.0010005924850702286,-0.010962347500026226,0.991145670413971,3.449092388153076,-3.2446506023406982,0.39269477128982544,1.9996074438095093,4.182163715362549,0.2912890911102295,-1.1326267719268799,0.3559758961200714,3.3853020668029785
101,86613,86610,-0.028631683439016342,-0.000551314209587872,1.0144106149673462,2.651732921600342,-3.127178907394409,-0.004910030402243137,1.9987181425094604,4.181565761566162,0.29239127039909363,-1.0952264070510864,0.3398631513118744,3.3780643939971924
102,86623,86620,0.020033715292811394,-0.02531684748828411,1.0100399255752563,0.5436718463897705,-1.6719359159469604,0.22035333514213562,2.0017454624176025,4.181570053100586,0.29243943095207214,-1.3678847551345825,0.3761628270149231,3.353266954421997
103,86633,86630,0.01436134334653616,-0.016596313565969467,0.9884927272796631,-1.627449631690979,-2.050506591796875,-0.1087770015001297,2.0013411045074463,4.180890083312988,0.2926712930202484,-1.2354308366775513,0.3645520806312561,3.3618533611297607
104,86643,86640,0.013040241785347462,-0.004863932263106108,1.0249360799789429,-3.1703903675079346,-3.1113879680633545,-0.41066139936447144,2.000929117202759,4.180930137634277,0.29307428002357483,-1.1835347414016724,0.3265517055988312,3.3569729328155518
105,86653,86650,-0.002921715844422579,0.006991777569055557,1.0264387130737305,-4.569483280181885,-4.282252788543701,-0.362976610660553,2.0014994144439697,4.181130886077881,0.2949402332305908,-1.1995365619659424,0.2596190571784973,3.342963218688965
106,86663,86660,0.03859395906329155,0.025106051936745644,0.9428008794784546,-5.711634635925293,-6.29958438873291,-0.3368796110153198,2.001898765563965,4.180718898773193,0.2952597141265869,-1.130539059638977,0.1642967313528061,3.333296060562134
107,86673,86670,-0.001077895169146359,0.013519473373889923,1.0078423023223877,-4.496857166290283,-7.786449432373047,-0.44223693013191223,2.003037452697754,4.18192195892334,0.2956565022468567,-0.9998912811279297,0.16856546700000763,3.344571113586426
108,86683,86680,0.05240650475025177,-0.06793683022260666,0.9704005718231201,-2.2742526531219482,-7.946321964263916,-0.2468700259923935,2.0031845569610596,4.180905342102051,0.29535478353500366,-1.1024776697158813,0.11709517985582352,3.3235397338867188
109,86693,86690,0.05177786201238632,-0.07012154906988144,0.9912151098251343,-0.7578939199447632,-7.245777606964111,-0.1515215039253235,2.005784034729004,4.181474685668945,0.2955062687397003,-0.8798600435256958,0.09891167283058167,3.329904317855835
110,86703,86700,-0.00472521036863327,-0.05062403529882431,1.0706515312194824,0.553841233253479,-7.447914123535156,-0.35111576318740845,2.0068376064300537,4.182246685028076,0.29594534635543823,-0.8053630590438843,0.10693102329969406,3.3302595615386963
111,86713,86710,0.025882061570882797,-0.08864608407020569,0.9713747501373291,0.09478636085987091,-5.559420108795166,-0.18083757162094116,2.0078821182250977,4.181907653808594,0.29972043633461,-0.6895705461502075,0.11416067183017731,3.3310484886169434
112,86723,86720,-0.01824924722313881,0.016751421615481377,1.032328724861145,1.2357697486877441,-4.273839473724365,-0.6160014271736145,2.008714199066162,4.182372093200684,0.3002636730670929,-0.681617021560669,0.13161726295948029,3.3267223834991455
113,86733,86730,-0.03780383616685867,0.03058278188109398,1.0562620162963867,-0.2134571373462677,-3.885847568511963,-0.6932542324066162,2.0099985599517822,4.182410717010498,0.3007638454437256,-0.5986146926879883,0.2863798141479492,3.3453006744384766
114,86743,86740,0.049164749681949615,-0.05618009343743324,0.9688352942466736,-1.7254211902618408,-2.7574493885040283,-0.851359486579895,2.0112693309783936,4.181354522705078,0.3013741970062256,-0.7787559032440186,0.17577236890792847,3.3109309673309326
115,86753,86750,-0.019249411299824715,0.048309098929166794,1.048050045967102,-3.1834583282470703,-1.9288629293441772,-1.2820143699645996,2.015559673309326,4.183285236358643,0.30078035593032837,-0.6348692774772644,0.1226196214556694,3.3028316497802734
116,86763,86760,0.04174916818737984,-0.051634617149829865,0.9655157327651978,-4.936108112335205,-2.831294298171997,-1.3924938440322876,2.015411853790283,4.183621406555176,0.30143028497695923,-0.5781405568122864,0.11426565796136856,3.298678159713745
117,86773,86770,0.03386283293366432,-0.05792922154068947,0.9554802775382996,-6.115434169769287,-4.663673400878906,-1.394701361656189,2.0164575576782227,4.184518814086914,0.3019799292087555,-0.5703492164611816,-0.059634651988744736,3.271481990814209
118,86783,86780,-0.027971046045422554,0.032029230147600174,1.0524475574493408,-5.208417892456055,-5.164101600646973,-0.9032161831855774,2.017465829849243,4.184001922607422,0.2999056279659271,-0.5393455624580383,-0.07557191699743271,3.2627859115600586
119,86793,86790,0.01991267502307892,-0.029077056795358658,0.960256040096283,-3.0404982566833496,-5.6464362144470215,-1.284177541732788,2.018775701522827,4.184500694274902,0.30024561285972595,-0.3371369242668152,-0.14445701241493225,3.2565743923187256
120,86803,86800,0.0008211658569052815,-0.008941076695919037,0.9997288584709167,-0.9893511533737183,-5.553421974182129,-1.6948190927505493,2.01816463470459,4.184209823608398,0.3007281422615051,-0.37793663144111633,-0.1676589697599411,3.238494634628296
121,86813,86810,-0.00932904053479433,-0.00401452137157321,1.013322114944458,0.700552225112915,-4.540274620056152,-1.8975027799606323,2.020834445953369,4.184523582458496,0.30200713872909546,-0.25774404406547546,-0.1565648466348648,3.2163455486297607
122,86823,86820,0.0375400185585022,-0.06952288001775742,0.9624162316322327,1.746747374534607,-2.2971582412719727,-1.5329183340072632,2.0214145183563232,4.1832098960876465,0.302425742149353,-0.5019294619560242,-0.1287742704153061,3.191316843032837
123,86833,86830,0.04246794059872627,-0.03786308690905571,0.9731062054634094,3.2003259658813477,-2.634647846221924,-1.1000642776489258,2.02360200881958,4.182823657989502,0.3027679920196533,-0.4048784077167511,-0.08187701553106308,3.1803319454193115
124,86843,86840,-0.00454044109210372,-0.023076562210917473,0.9806458353996277,3.070172071456909,-3.606896162033081,-1.3765836954116821,2.0229480266571045,4.1838459968566895,0.30305731296539307,-0.29885631799697876,0.055277831852436066,3.18403959274292
125,86853,86850,-0.10234197974205017,0.0034174059983342886,1.0132098197937012,0.6259713768959045,-5.240340232849121,-1.8296291828155518,2.0221288204193115,4.181905269622803,0.303482323884964,-0.2517450749874115,0.0785258561372757,3.164346218109131
126,86863,86860,0.008864980190992355,-0.01892942376434803,0.96928471326828,-2.3222408294677734,-6.518252372741699,-1.8155089616775513,2.0222532749176025,4.182482719421387,0.30386558175086975,-0.1889590471982956,0.05205705016851425,3.141484022140503
127,86873,86870,0.02127246744930744,0.024337872862815857,1.0173711776733398,-5.45089054107666,-6.789571285247803,-1.4126540422439575,2.022523880004883,4.182378768920898,0.3043670654296875,0.03643893077969551,-0.03010784648358822,3.1249163150787354
128,86883,86880,0.058078307658433914,0.01616552472114563,0.9757798910140991,-6.774062156677246,-4.902120113372803,-1.5691933631896973,2.023543119430542,4.182333469390869,0.3044680655002594,-0.019578183069825172,-0.14212016761302948,3.107879877090454
129,86893,86890,0.17026008665561676,-0.054918061941862106,0.9468059539794922,-6.748732089996338,-2.849994659423828,-1.6428333520889282,2.0253446102142334,4.182522773742676,0.3047352731227875,-0.0960533618927002,-0.2616523802280426,3.0900774002075195
130,86903,86900,0.088506318628788,-0.030737239867448807,0.9927294254302979,-3.9420392513275146,-4.386560916900635,-1.6026573181152344,2.027297258377075,4.183094024658203,0.3049301505088806,0.09440125524997711,-0.25917041301727295,3.0740110874176025
131,86913,86910,0.019810767844319344,-0.04967217892408371,1.038100004196167,-0.48831433057785034,-4.334474563598633,-1.1479744911193848,2.0278773307800293,4.182757377624512,0.30625516176223755,-0.11211387813091278,-0.2914709746837616,3.059091567993164
132,86923,86920,-0.008558045141398907,-0.04190921038389206,0.9745223522186279,1.7245570421218872,-3.6593809127807617,-1.7428183555603027,2.0316483974456787,4.183016300201416,0.30646687746047974,0.0656806230545044,-0.28175002336502075,3.0436246395111084
133,86933,86930,0.01722136326134205,-0.004728856962174177,1.0101057291030884,4.7007951736450195,-2.9793899059295654,-1.948767900466919,2.031449556350708,4.182938098907471,0.30693650245666504,0.21461839973926544,-0.22161704301834106,3.023491382598877
134,86943,86940,0.1268145740032196,-0.07886993139982224,0.9704107046127319,5.209785461425781,-2.616196870803833,-1.958337426185608,2.0317740440368652,4.182945251464844,0.30438917875289917,0.04077697917819023,-0.13834944367408752,3.003419876098633
135,86953,86950,0.030601538717746735,0.06383104622364044,0.9961872100830078,3.5230298042297363,-3.4868345260620117,-1.6366628408432007,2.0340240001678467,4.182188510894775,0.30451831221580505,0.13808326423168182,-0.14653237164020538,2.9860763549804688
136,86963,86960,0.005961880087852478,-0.02276739291846752,0.9598012566566467,1.517349123954773,-3.617141008377075,-1.9617702960968018,2.0355722904205322,4.182356357574463,0.30464592576026917,0.14969108998775482,-0.105986587703228,2.968067169189453
137,86973,86970,-0.07893727719783783,0.020999886095523834,1.0467525720596313,0.032268330454826355,-4.006884574890137,-2.110797882080078,2.0366435050964355,4.1819939613342285,0.3047223687171936,0.17137831449508667,-0.10070667415857315,2.9486441612243652
138,86983,86980,0.019362950697541237,-0.0660003125667572,1.0289264917373657,-1.0047775506973267,-1.6581523418426514,-1.5810060501098633,2.0367560386657715,4.182058811187744,0.30432793498039246,0.2954959273338318,-0.12153647094964981,2.9307901859283447
139,86993,86990,0.018203185871243477,-0.042446255683898926,0.9919435381889343,-1.486045002937317,-3.0176749229431152,-1.8223985433578491,2.0389294624328613,4.183173179626465,0.3044680655002594,0.11968570202589035,-0.12725865840911865,2.944178819656372
140,87003,87000,-0.037646565586328506,0.08872361481189728,0.9675726294517517,-3.993842124938965,0.1949404627084732,-2.3826401233673096,2.0404021739959717,4.182042121887207,0.30449530482292175,0.2741089165210724,-0.19462409615516663,2.8947246074676514
141,87013,87010,-0.05993940681219101,0.12737937271595,1.0262893438339233,-1.950016736984253,-3.632625102996826,-1.622097134590149,2.0396459102630615,4.18202543258667,0.3072868287563324,0.25424838066101074,-0.20355038344860077,2.8899824619293213
142,87023,87020,0.0741257518529892,-0.04195306822657585,0.9701794981956482,-1.503904938697815,-2.636319398880005,-1.8210821151733398,2.04097843170166,4.182308197021484,0.3075442314147949,0.26074647903442383,-0.23653672635555267,2.8990492820739746
143,87033,87030,-0.04808418080210686,0.021623041480779648,1.0024534463882446,2.452636241912842,-4.238108158111572,-2.371729612350464,2.039536714553833,4.183379173278809,0.30780228972435,0.42371419072151184,-0.2342984527349472,2.8745832443237305
144,87043,87040,-0.08119384944438934,0.029858188703656197,1.022729754447937,2.775458574295044,-3.124176263809204,-2.190272092819214,2.0380632877349854,4.184426307678223,0.3101103603839874,0.5085533261299133,-0.19554652273654938,2.868096113204956
145,87053,87050,0.027243763208389282,-0.02155160903930664,0.9662216305732727,2.8251612186431885,-1.6939970254898071,-2.3462560176849365,2.037231922149658,4.183874130249023,0.3105687201023102,0.42557817697525024,-0.2895359694957733,2.8689284324645996
146,87063,87060,0.0206467192620039,0.10725603997707367,1.0188655853271484,3.0452940464019775,0.3158683776855469,-2.5552003383636475,2.0404396057128906,4.185293674468994,0.3109239339828491,0.5489384531974792,-0.22535070776939392,2.8392820358276367
147,87073,87070,-0.0171958040446043,0.02971794083714485,1.0107111930847168,3.9129257202148438,4.782590389251709,-2.8195769786834717,2.039100170135498,4.1841254234313965,0.3114629089832306,0.5351683497428894,-0.15726423263549805,2.807929754257202
148,87083,87080,0.0003687284770421684,0.03901498764753342,1.001538634300232,3.290125608444214,3.5826926231384277,-3.0484979152679443,2.0406062602996826,4.183500289916992,0.30960988998413086,0.427871972322464,-0.16057297587394714,2.7817888259887695
149,87093,87090,0.01289115846157074,0.035335857421159744,1.0241806507110596,2.824882984161377,4.848713397979736,-2.761591911315918,2.0424985885620117,4.184213161468506,0.30980682373046875,0.3871130645275116,-0.08946175128221512,2.7476112842559814
150,87103,87100,0.011864060536026955,-0.02728826180100441,0.9824286103248596,1.3899673223495483,4.5220794677734375,-2.770519971847534,2.0433225631713867,4.183684349060059,0.3100581169128418,0.4078702926635742,-0.03812054172158241,2.713444232940674
151,87113,87110,-0.035808365792036057,0.05259152874350548,1.0450644493103027,-0.014265102334320545,3.724423885345459,-2.9470884799957275,2.0444154739379883,4.184078693389893,0.3124012053012848,0.4239032566547394,-0.011708013713359833,2.683330535888672
152,87123,87120,-0.016608459874987602,-0.15597841143608093,0.9840423464775085,0.17738552391529083,2.27955961227417,-3.1729676723480225,2.044532299041748,4.183803081512451,0.31281647086143494,0.37283316254615784,-0.07355592399835587,2.6610143184661865
153,87133,87130,-0.04267473891377449,-0.054874617606401443,1.0314760208129883,-0.23776090145111084,3.928375005722046,-3.3280599117279053,2.044619083404541,4.185136795043945,0.3131970763206482,0.2677933871746063,-0.05704570189118385,2.643359661102295
154,87143,87140,0.07355520874261856,-0.09969663619995117,0.978042721748352,-0.45708757638931274,4.407079696655273,-3.629770517349243,2.047847270965576,4.186315536499023,0.3130384087562561,0.2880198359489441,-0.046917494386434555,2.6187961101531982
155,87153,87150,-0.0035701587330549955,0.06538544595241547,0.9933857321739197,0.5614309310913086,1.7484287023544312,-3.639274835586548,2.0480995178222656,4.186365127563477,0.3134714961051941,0.23820894956588745,-0.035206373780965805,2.5741498470306396
156,87163,87160,-0.011315776966512203,0.004254677798599005,0.9812591671943665,1.3101494312286377,0.6147022247314453,-3.120063066482544,2.0485281944274902,4.18641471862793,0.31384485960006714,0.1506611555814743,-0.01050568651407957,2.541383743286133
157,87173,87170,0.027293948456645012,-0.04602771997451782,1.0110653638839722,2.318190813064575,0.9108278155326843,-3.496582269668579,2.049123764038086,4.187230110168457,0.3151789605617523,0.14929693937301636,-0.047139473259449005,2.529752492904663
158,87183,87180,-0.0024584720376878977,-0.00703567685559392,1.0124988555908203,2.6016905307769775,-0.30306699872016907,-3.6904969215393066,2.0499117374420166,4.189122200012207,0.31563812494277954,0.22690324485301971,0.003779760794714093,2.5123367309570312
159,87193,87190,0.028485700488090515,-0.03177860379219055,0.9647053480148315,3.0192909240722656,0.8582363724708557,-3.575029134750366,2.0501773357391357,4.188649654388428,0.3161594569683075,0.2167484164237976,-0.013821259140968323,2.4811882972717285
160,87203,87200,0.05942581966519356,-0.03734956681728363,0.9867420196533203,2.6101088523864746,2.8088815212249756,-3.2636656761169434,2.0505247116088867,4.189749240875244,0.31665897369384766,0.2658146917819977,0.04565588757395744,2.4482829570770264
161,87213,87210,0.07206130027770996,-0.03348851203918457,0.9725632667541504,1.6683622598648071,1.6888163089752197,-3.595149517059326,2.0509889125823975,4.18916654586792,0.3161872625350952,0.22279202938079834,0.09490698575973511,2.414412498474121
162,87223,87220,0.013428699225187302,0.013406275771558285,1.006006121635437,1.3414177894592285,3.235156297683716,-3.6681551933288574,2.0518932342529297,4.188715934753418,0.3165605068206787,0.251580148935318,0.13318823277950287,2.369534969329834
163,87233,87230,0.02483321912586689,-0.1265544891357422,0.9897101521492004,0.019781332463026047,4.212674617767334,-3.8814334869384766,2.052110433578491,4.188193321228027,0.3169116675853729,0.18569545447826385,0.08567020297050476,2.335439443588257
164,87243,87240,-0.012150304391980171,-0.20289166271686554,1.006650686264038,-0.301230251789093,5.43589448928833,-4.1437602043151855,2.053518533706665,4.18852424621582,0.31608447432518005,0.17645153403282166,0.10584104806184769,2.2817296981811523
165,87253,87250,-0.02102668024599552,-0.21027737855911255,0.9932811260223389,-0.3578866124153137,7.522863864898682,-3.9705650806427,2.053851366043091,4.188826560974121,0.3164342939853668,0.14886431396007538,0.11439760774374008,2.2636830806732178
166,87263,87260,0.11063510179519653,0.022191395983099937,0.9721401333808899,1.4444243907928467,6.538505554199219,-3.9156134128570557,2.0545265674591064,4.189240455627441,0.31669357419013977,-0.03619211167097092,0.06452666223049164,2.2279741764068604
167,87273,87270,0.05163993313908577,0.013406419195234776,0.9557361006736755,1.4297192096710205,5.591366291046143,-4.173336029052734,2.056316614151001,4.189997673034668,0.3175683319568634,-0.0760626494884491,0.09976512938737869,2.186478853225708
168,87283,87280,0.029106108471751213,0.1286979466676712,0.9918938875198364,1.4489977359771729,4.534793376922607,-4.189949035644531,2.0571072101593018,4.1896138191223145,0.3178658187389374,-0.09527839720249176,0.06575164198875427,2.1377787590026855
169,87293,87290,0.02137422189116478,-0.1397341638803482,0.9907453060150146,1.9976359605789185,2.7369792461395264,-3.8001065254211426,2.0571212768554688,4.1895060539245605,0.31808793544769287,-0.09172432869672775,0.11370499432086945,2.0944888591766357
170,87303,87300,0.032650843262672424,-0.10563649982213974,0.9498760104179382,2.5352766513824463,2.5337228775024414,-4.043935775756836,2.0572590827941895,4.189386367797852,0.3183411955833435,-0.1427651047706604,0.16631686687469482,2.053525686264038
171,87313,87310,-0.06498441845178604,-0.06771059334278107,1.0017247200012207,3.2097835540771484,1.8643712997436523,-3.9203686714172363,2.0576159954071045,4.188570499420166,0.31838342547416687,-0.10855454206466675,0.2232469618320465,2.0033047199249268
172,87323,87320,-0.12220935523509979,-0.029667530208826065,1.0302127599716187,3.2376656532287598,2.602179527282715,-3.7963340282440186,2.0571961402893066,4.186686992645264,0.31858497858047485,-0.06889970600605011,0.28798893094062805,1.9573885202407837
173,87333,87330,-0.014496978372335434,-0.023080458864569664,0.9750412106513977,2.1142029762268066,4.600290775299072,-3.8171586990356445,2.0582942962646484,4.187082767486572,0.31882134079933167,-0.12571173906326294,0.34059587121009827,1.9400466680526733
174,87343,87340,-0.09792598336935043,0.12094598263502121,0.9961825013160706,-0.1868523210287094,6.115875244140625,-3.552978038787842,2.0586419105529785,4.187705993652344,0.31637701392173767,-0.1446852684020996,0.29159408807754517,1.927868366241455
175,87353,87350,-0.1118725836277008,0.12062232941389084,0.9339510798454285,-3.8262524604797363,6.199054718017578,-3.829745292663574,2.05704927444458,4.190146446228027,0.31649500131607056,-0.17896470427513123,0.28126659989356995,1.9129352569580078
176,87363,87360,0.001218436867929995,0.013064955361187458,0.9782364368438721,-5.25094747543335,6.546847820281982,-3.8202569484710693,2.0581228733062744,4.1900529861450195,0.316521555185318,-0.22282437980175018,0.22950619459152222,1.8641774654388428
177,87373,87370,-0.05848941206932068,0.0640907809138298,1.001621127128601,-4.7657246589660645,6.38651704788208,-3.649991512298584,2.058570146560669,4.190528869628906,0.31458157300949097,-0.34404081106185913,0.16076229512691498,1.8239600658416748
178,87383,87380,-0.0765887126326561,0.07507307082414627,0.9889349341392517,-2.5839595794677734,5.2192702293396,-3.940913200378418,2.059807300567627,4.190784454345703,0.3143666088581085,-0.5944609045982361,0.11013740301132202,1.7802863121032715
179,87393,87390,0.0031561164651066065,0.09159228950738907,1.0016264915466309,0.41958341002464294,5.277760982513428,-3.516381025314331,2.063262462615967,4.1915388107299805,0.3140442669391632,-0.6699807047843933,0.17530377209186554,1.7515653371810913
180,87403,87400,-0.028078686445951462,-0.018636977300047874,1.022612452507019,3.918151617050171,1.8974580764770508,-3.7811577320098877,2.064572334289551,4.191280841827393,0.31322816014289856,-0.6439746022224426,0.2027200311422348,1.7277030944824219
181,87413,87410,-0.10487473756074905,-0.062291182577610016,1.016120433807373,5.511856555938721,-0.6553571224212646,-3.7721760272979736,2.0636703968048096,4.1919779777526855,0.3131083548069,-0.6476636528968811,0.20156997442245483,1.7305647134780884
182,87423,87420,0.048477720469236374,-0.0684807077050209,0.9853866100311279,4.702507019042969,-2.879232406616211,-3.6839632987976074,2.064061164855957,4.1925201416015625,0.31295520067214966,-0.7650608420372009,0.21880368888378143,1.686684489250183
183,87433,87430,0.12947218120098114,0.0707903653383255,1.0123488903045654,3.510535478591919,-6.66373872756958,-3.482907772064209,2.0661234855651855,4.192589282989502,0.3126777708530426,-0.6103324294090271,0.2240748256444931,1.6303718090057373
184,87443,87440,-0.05514189600944519,0.03843752294778824,1.026935338973999,0.5495388507843018,-6.066886901855469,-3.0111565589904785,2.065682888031006,4.192705154418945,0.3134227395057678,-0.4193941652774811,0.2798851430416107,1.604946255683899
185,87453,87450,-0.03511321544647217,0.05891460180282593,1.0078279972076416,-1.4702982902526855,-6.244207382202148,-2.7151644229888916,2.0652332305908203,4.192483425140381,0.3134000599384308,-0.5497079491615295,0.2934088408946991,1.566589593887329
186,87463,87460,0.03771059960126877,-0.006978324614465237,0.9822568297386169,-1.797755479812622,-3.055579423904419,-2.5911147594451904,2.0685641765594482,4.192734241485596,0.31320950388908386,-0.4469946026802063,0.2813931107521057,1.5406478643417358
187,87473,87470,-0.07118397206068039,-0.05790741741657257,1.0732656717300415,-1.709266185760498,-0.28905126452445984,-2.5203230381011963,2.0692343711853027,4.192774772644043,0.3134283721446991,-0.38871461153030396,0.26281726360321045,1.5149672031402588
188,87483,87480,-0.05168946087360382,-0.12993811070919037,0.9988011717796326,-1.07237708568573,1.4253722429275513,-2.895740032196045,2.0699777603149414,4.192824840545654,0.31336215138435364,-0.43708911538124084,0.25277769565582275,1.4877960681915283
189,87493,87490,-0.08512624353170395,0.006201894488185644,1.0489609241485596,-0.19405023753643036,2.1615536212921143,-2.7976572513580322,2.0716552734375,4.192917823791504,0.313253253698349,-0.26419907808303833,0.2531746029853821,1.465686321258545
190,87503,87500,-0.01686558499932289,0.07965999096632004,0.9760401844978333,-0.32962995767593384,2.3404171466827393,-2.4270291328430176,2.070763349533081,4.19224214553833,0.3096165060997009,-0.5034315586090088,0.26130881905555725,1.4187414646148682
191,87513,87510,0.02333816885948181,3.57457684003748e-05,0.9720227122306824,0.3438692092895508,1.944296956062317,-1.874315857887268,2.0742037296295166,4.192286968231201,0.30928224325180054,-0.5084532499313354,0.34405064582824707,1.3983399868011475
192,87523,87520,0.05412418767809868,-0.1554042398929596,0.9835551381111145,0.7610267996788025,-0.5095680952072144,-1.69697105884552,2.0751450061798096,4.191644191741943,0.30905017256736755,-0.42911389470100403,0.27063196897506714,1.3797039985656738
193,87533,87530,0.014182991348206997,-0.20107077062129974,1.0399210453033447,0.9093645215034485,-3.8811306953430176,-1.78579580783844,2.0750441551208496,4.192390441894531,0.30893003940582275,-0.531990110874176,0.2889547348022461,1.3610490560531616
194,87543,87540,0.008098967373371124,-0.0752560943365097,0.9911232590675354,0.22751207649707794,-5.776761531829834,-1.9796947240829468,2.076002359390259,4.192004680633545,0.3079564869403839,-0.42097532749176025,0.3036622703075409,1.3475922346115112
195,87553,87550,0.01256337109953165,0.021086368709802628,1.039372205734253,-0.07749170064926147,-6.226927757263184,-1.889790415763855,2.076422691345215,4.191438674926758,0.30777451395988464,-0.23128072917461395,0.3077622950077057,1.3208446502685547
196,87563,87560,0.06790797412395477,0.000812069745734334,0.9825324416160583,-0.10730813443660736,-5.591783046722412,-1.951861023902893,2.0764858722686768,4.191526889801025,0.30769068002700806,-0.3513144552707672,0.30963656306266785,1.2935296297073364
197,87573,87570,0.00837333407253027,-0.017803583294153214,1.0076966285705566,-0.4864991307258606,-3.4742772579193115,-1.7512398958206177,2.079380989074707,4.19154167175293,0.3072425127029419,-0.1765563189983368,0.30503177642822266,1.2784464359283447
198,87583,87580,-0.04077397659420967,0.01356605626642704,1.0017852783203125,-1.2488218545913696,-2.1495327949523926,-2.104865789413452,2.079000234603882,4.191246509552002,0.30710282921791077,-0.17880575358867645,0.29290667176246643,1.2578613758087158
199,87593,87590,-0.08452492952346802,0.11056528985500336,1.0243443250656128,-2.116741418838501,-0.9128692150115967,-1.8406001329421997,2.0805459022521973,4.1914448738098145,0.306846022605896,-0.2786385416984558,0.26866528391838074,1.2231981754302979
200,87603,87600,0.016119977459311485,0.028050418943166733,1.0055593252182007,-2.320970058441162,2.111968994140625,-2.014202356338501,2.082885265350342,4.190906524658203,0.30736449360847473,-0.17925003170967102,0.23347191512584686,1.1978192329406738
201,87613,87610,-0.008869478479027748,0.008302703499794006,1.0405960083007812,-2.0244498252868652,3.180262804031372,-2.214667558670044,2.0833089351654053,4.191141128540039,0.30730241537094116,-0.12248561531305313,0.19742751121520996,1.1721290349960327
202,87623,87620,0.04887834191322327,0.0492168664932251,1.0114952325820923,-1.1325902938842773,0.769970715045929,-2.35451078414917,2.083967685699463,4.191655158996582,0.30726712942123413,-0.22537972033023834,0.1686532199382782,1.1449980735778809
203,87633,87630,-0.03819159418344498,0.02491532266139984,1.057790994644165,1.0958141088485718,-0.66968834400177,-2.2982702255249023,2.0851869583129883,4.190923690795898,0.3070896565914154,-0.2851583659648895,0.16489960253238678,1.1152527332305908
204,87643,87640,0.01747983694076538,-0.02748711220920086,1.01041841506958,2.5968143939971924,-2.045957326889038,-1.740707516670227,2.0860366821289062,4.190884113311768,0.30804088711738586,-0.15909311175346375,0.11601387709379196,1.1029307842254639
205,87653,87650,-0.044927679002285004,-0.008559362031519413,1.0463377237319946,3.341796636581421,-2.9824209213256836,-1.5749114751815796,2.0858798027038574,4.191518783569336,0.3081803023815155,-0.17756719887256622,0.17218191921710968,1.083211898803711
206,87663,87660,0.029014065861701965,-0.004829153418540955,1.0154247283935547,3.166452407836914,-3.7996649742126465,-1.7476097345352173,2.0871593952178955,4.1912150382995605,0.3082006573677063,-0.1711474359035492,0.23166914284229279,1.0666470527648926
207,87673,87670,-0.06667609512805939,-0.005536516197025776,1.0167627334594727,2.045292377471924,-3.493581771850586,-2.075462818145752,2.0877573490142822,4.1917290687561035,0.3089463710784912,-0.07038716226816177,0.20389723777770996,1.0751358270645142
208,87683,87680,-0.00323059712536633,0.025058794766664505,1.0187113285064697,1.3268343210220337,-1.3337593078613281,-1.8131612539291382,2.0877552032470703,4.192089557647705,0.30911415815353394,-2.8376894078974146e-06,0.243679478764534,1.0574291944503784
209,87693,87690,-0.007988739758729935,0.030052529647946358,1.0125046968460083,0.45699334144592285,-0.08685068786144257,-1.335512399673462,2.088430881500244,4.191994667053223,0.3092896044254303,-0.04068842902779579,0.2677260935306549,1.0362157821655273
210,87703,87700,0.07027392089366913,-0.0761433020234108,0.9786296486854553,-0.5559002161026001,0.1859658658504486,-1.5580360889434814,2.0904641151428223,4.192218780517578,0.3072006106376648,-0.1672765612602234,0.275650292634964,1.0493919849395752
211,87713,87710,-0.02906736731529236,0.06932536512613297,1.0401222705841064,-0.8636882305145264,1.9951117038726807,-1.7585718631744385,2.092736005783081,4.193512916564941,0.3072400987148285,-0.2210676372051239,0.2683769464492798,1.0789180994033813
212,87723,87720,0.05156676471233368,0.04469086974859238,0.9383273720741272,0.12265640497207642,-0.4387730360031128,-1.8282980918884277,2.092158794403076,4.195427894592285,0.30729618668556213,-0.11104735732078552,0.2639334201812744,1.0860776901245117
213,87733,87730,-0.031242743134498596,0.0031386823393404484,1.0505707263946533,1.3223001956939697,-1.0575592517852783,-2.1868817806243896,2.091712236404419,4.194153785705566,0.310339093208313,-0.29340261220932007,0.2744804620742798,1.049252986907959
214,87743,87740,-0.08324193209409714,-0.09602256119251251,1.0174543857574463,1.294568419456482,-5.423430919647217,-1.7033803462982178,2.0945181846618652,4.193375587463379,0.31040245294570923,-0.11336756497621536,0.2200509011745453,1.025659203529358
215,87753,87750,0.021790780127048492,-0.01168278232216835,1.01598060131073,0.29683610796928406,-5.755708694458008,-1.4814239740371704,2.0934417247772217,4.19411563873291,0.3109481930732727,0.09549202024936676,0.24575376510620117,1.0283225774765015
216,87763,87760,0.021486174315214157,-0.05422597751021385,0.9809657335281372,-0.27992597222328186,-7.198582172393799,-1.754591941833496,2.0928728580474854,4.194730758666992,0.3114166557788849,-0.00734854256734252,0.251681923866272,1.0091816186904907
217,87773,87770,-0.02442222647368908,0.0980457216501236,1.015084147453308,0.43234458565711975,-5.2073845863342285,-1.3974354267120361,2.096126079559326,4.194840908050537,0.31046241521835327,0.14131952822208405,0.2568126618862152,0.9832406640052795
218,87783,87780,-0.0050116549246013165,-0.07561784237623215,1.0210411548614502,-0.022665098309516907,-3.1078195571899414,-1.380258321762085,2.096780300140381,4.1944966316223145,0.31076815724372864,0.17500369250774384,0.26416829228401184,0.9679765105247498
219,87793,87790,0.019365783780813217,-0.04445455223321915,1.0184520483016968,0.5752211213111877,-3.48551344871521,-1.2719608545303345,2.097440242767334,4.195199489593506,0.3110979497432709,0.18184523284435272,0.2710309326648712,0.9829702377319336
220,87803,87800,0.09443709254264832,-0.09326183050870895,0.9607127904891968,-0.7414528727531433,3.5645809173583984,-2.058563709259033,2.098949670791626,4.194355487823486,0.30960237979888916,0.11734365671873093,0.2670334279537201,0.9441938996315002
221,87813,87810,-0.004132361616939306,-0.004444292280822992,1.0234007835388184,-0.294547438621521,5.528027534484863,-2.0608973503112793,2.1005470752716064,4.19403076171875,0.30972424149513245,0.1513461023569107,0.25618836283683777,0.9163241386413574
222,87823,87820,-0.04716963693499565,0.017161916941404343,1.0310750007629395,-0.49315840005874634,5.454675674438477,-1.7914772033691406,2.101294755935669,4.1937408447265625,0.31005439162254333,0.015070981346070766,0.25001832842826843,0.8796658515930176
223,87833,87830,0.025247670710086823,-0.11963333934545517,1.0028499364852905,-0.3080940544605255,2.921867847442627,-1.5957571268081665,2.1030752658843994,4.193334102630615,0.30942898988723755,0.055941082537174225,0.320842444896698,0.8535328507423401
224,87843,87840,0.019634254276752472,-0.09423436969518661,1.0308243036270142,-0.8815863132476807,0.034052442759275436,-1.4342747926712036,2.103381633758545,4.192623138427734,0.30971378087997437,0.057772599160671234,0.3050542175769806,0.8290399312973022
225,87853,87850,0.014782383106648922,0.0064089056104421616,1.0206772089004517,-0.36818620562553406,-2.64735746383667,-1.182111382484436,2.1045830249786377,4.191646099090576,0.30995428562164307,0.1768471747636795,0.2880456745624542,0.7920779585838318
226,87863,87860,-0.05062694475054741,0.012637760490179062,1.021133542060852,-0.23707325756549835,-5.703213214874268,-0.6793245077133179,2.1041476726531982,4.191512107849121,0.31030264496803284,0.1722577065229416,0.27390211820602417,0.7706108093261719
227,87873,87870,0.036650653928518295,-0.09350793063640594,0.965447187423706,-2.7751855850219727,-0.22148185968399048,-1.4785271883010864,2.1053428649902344,4.1903486251831055,0.3132975399494171,0.3086843490600586,0.24333131313323975,0.7364497780799866
228,87883,87880,0.043986689299345016,0.0070014228112995625,1.016420841217041,-2.8931996822357178,0.5919924974441528,-1.660792350769043,2.105529308319092,4.190295696258545,0.31378382444381714,0.16369163990020752,0.27136197686195374,0.7090069651603699
229,87893,87890,0.04272875189781189,-0.03231717646121979,0.9966101050376892,-3.113391399383545,5.744582176208496,-1.5566763877868652,2.107741594314575,4.189182758331299,0.3140939474105835,0.14379893243312836,0.2135149985551834,0.6688495874404907
230,87903,87900,0.04838088899850845,-0.05181581526994705,0.9677847027778625,-3.4992594718933105,8.661110877990723,-0.531231164932251,2.1088082790374756,4.189023494720459,0.3172104060649872,0.12383756786584854,0.2283163219690323,0.6528533101081848
231,87913,87910,0.07840937376022339,-0.054885752499103546,1.0141810178756714,-2.0424258708953857,6.195039749145508,-0.9078137874603271,2.108158826828003,4.187904357910156,0.31781068444252014,0.09523717314004898,0.17515993118286133,0.6317975521087646
232,87923,87920,0.022411255165934563,-0.03690303862094879,0.9833241701126099,-2.12054443359375,4.261260986328125,-1.1495935916900635,2.1085944175720215,4.187824249267578,0.3183901011943817,0.018155541270971298,0.13133390247821808,0.6234707236289978
233,87933,87930,0.013696525245904922,0.030590247362852097,1.0191045999526978,-2.3057360649108887,3.95324969291687,-1.9399276971817017,2.109180450439453,4.186635971069336,0.32105928659439087,-0.11692444235086441,0.16320744156837463,0.5741701722145081
234,87943,87940,0.007054378744214773,0.0309988372027874,0.988190770149231,-1.6903520822525024,1.6366549730300903,-1.4773238897323608,2.1110615730285645,4.18668794631958,0.32165467739105225,-0.14514853060245514,0.11705943197011948,0.5639448165893555
235,87953,87950,0.013085715472698212,0.07370250672101974,0.9628139138221741,-1.5903624296188354,-0.11691305786371231,-1.4079155921936035,2.111053228378296,4.186548709869385,0.322278767824173,-0.1486227959394455,0.07304605096578598,0.5604652166366577
236,87963,87960,-0.0006898267893120646,0.02394879050552845,0.9982995986938477,0.006717851851135492,-2.65982723236084,-1.2339948415756226,2.111395835876465,4.1852593421936035,0.32288166880607605,-0.11281432211399078,0.04804166778922081,0.5037496089935303
237,87973,87970,-0.010546689853072166,-0.033068276941776276,1.0429770946502686,0.9239745736122131,-2.9374213218688965,-1.3131259679794312,2.109173059463501,4.186622142791748,0.32004427909851074,-0.12985976040363312,0.12090430408716202,0.5691786408424377
238,87983,87980,-0.007625317666679621,-0.001961211673915386,1.0345133543014526,0.8368733525276184,-0.734856128692627,-0.9902775287628174,2.110341787338257,4.185297966003418,0.3204277753829956,-0.0047926101833581924,0.12215437740087509,0.5420395731925964
239,87993,87990,-0.07598987966775894,-0.0072453985922038555,0.9810371398925781,0.30518409609794617,0.33884143829345703,-0.946875274181366,2.110222339630127,4.185232162475586,0.32095271348953247,-0.06734459102153778,0.11962376534938812,0.5211088061332703
240,88003,88000,-0.05224963277578354,-0.021163152530789375,0.9714049696922302,-1.1629130840301514,2.552741765975952,-0.7709099054336548,2.1115646362304688,4.1844892501831055,0.3199613690376282,-0.07105183601379395,0.10450994968414307,0.4828152656555176
241,88013,88010,-0.015321050770580769,-0.030699558556079865,0.9582526087760925,-3.2638299465179443,3.133226156234741,-0.9138017892837524,2.1115798950195312,4.183844089508057,0.3203120529651642,-0.10337420552968979,0.05864811688661575,0.4486979842185974
242,88023,88020,0.0329228937625885,-0.044253721833229065,0.9305974841117859,-4.15610933303833,4.093664169311523,-0.7427210807800293,2.1119978427886963,4.182525634765625,0.3206152617931366,-0.22425910830497742,0.06171020120382309,0.4177897274494171
243,88033,88030,0.04756377637386322,-0.07567652314901352,0.9863483309745789,-2.626248359680176,4.89209508895874,-0.006248875521123409,2.1139867305755615,4.181882381439209,0.32051944732666016,-0.19959606230258942,-0.010363851673901081,0.400590717792511
244,88043,88040,0.08264637738466263,-0.12681247293949127,1.0016827583312988,-1.5982180833816528,2.704754114151001,-0.02057228796184063,2.114381790161133,4.181644439697266,0.32082802057266235,-0.32641348242759705,-0.05875487998127937,0.3745528757572174
245,88053,88050,0.03794386237859726,0.02837781421840191,0.9614540338516235,-0.3537937104701996,0.3067024052143097,0.1472206562757492,2.1157126426696777,4.180773735046387,0.32094287872314453,-0.2550913691520691,0.06381601095199585,0.35574185848236084
246,88063,88060,0.017976924777030945,-0.0016193578485399485,0.9336751103401184,2.337158441543579,-2.024188995361328,0.19946542382240295,2.1153717041015625,4.179056644439697,0.3231705129146576,-0.3100108206272125,0.055407650768756866,0.3445945978164673
247,88073,88070,0.025553623214364052,-0.0015751346945762634,0.970552921295166,2.3656845092773438,-2.8384571075439453,0.4344881772994995,2.1170835494995117,4.178714752197266,0.3233804702758789,-0.32839372754096985,0.07278763502836227,0.33417487144470215
248,88083,88080,0.004516948480159044,-0.008808186277747154,0.9773794412612915,1.0271552801132202,-6.706480979919434,0.5222121477127075,2.1185827255249023,4.178216934204102,0.323547899723053,-0.23700787127017975,0.0816684141755104,0.32669129967689514
249,88093,88090,-0.0013490553246811032,0.006892508827149868,0.9683631658554077,-1.3389188051223755,-3.9602243900299072,0.3948754668235779,2.1189634799957275,4.177829265594482,0.32380950450897217,-0.15037454664707184,0.06061292439699173,0.3304955065250397
250,88103,88100,0.016413306817412376,-0.08514699339866638,0.9972074627876282,-3.616093635559082,-3.1794824600219727,0.2498447448015213,2.11942982673645,4.177973747253418,0.327883243560791,-0.1503896564245224,0.009009502828121185,0.3362544775009155
251,88113,88110,0.00941435806453228,-0.12367770820856094,0.9904909133911133,-4.169006824493408,-1.2275375127792358,0.22744271159172058,2.1207592487335205,4.177914142608643,0.32819679379463196,-0.08336886763572693,0.01387026160955429,0.32805514335632324
252,88123,88120,-0.007221953012049198,-0.11786583811044693,0.9913714528083801,-3.6146273612976074,1.6667007207870483,0.5095868706703186,2.1208395957946777,4.176398754119873,0.32857245206832886,0.016000796109437943,0.009935655631124973,0.3001427948474884
253,88133,88130,0.005868242122232914,-0.06961212307214737,0.9496776461601257,-3.13358736038208,3.5823841094970703,0.9494267106056213,2.1205556392669678,4.175459861755371,0.3253639340400696,-0.007744660135358572,-0.06818587332963943,0.2908335328102112
254,88143,88140,0.05230658873915672,-0.015569484792649746,0.9508408308029175,-0.9942754507064819,5.018924236297607,0.8377084732055664,2.1208221912384033,4.175447940826416,0.3255360722541809,-0.13788142800331116,-0.11991730332374573,0.3002329170703888
255,88153,88150,0.030097540467977524,0.00982047151774168,0.9698194861412048,-0.5970475673675537,5.176788330078125,1.2439990043640137,2.1231305599212646,4.175509929656982,0.3255777955055237,-0.1295773684978485,-0.14832276105880737,0.30151957273483276
256,88163,88160,0.06341272592544556,0.0005434593185782433,0.9792906045913696,-0.16964802145957947,4.606442451477051,0.3815392553806305,2.123288869857788,4.175341606140137,0.32405582070350647,-0.2658449411392212,-0.08712165057659149,0.28434935212135315
257,88173,88170,0.018015537410974503,0.00045160806621424854,0.9782088994979858,0.32288405299186707,4.145593166351318,0.5371376276016235,2.12436842918396,4.173422336578369,0.3238738775253296,-0.24437585473060608,-0.10244809091091156,0.29984158277511597
258,88183,88180,-0.062255486845970154,0.018143419176340103,0.9562925696372986,0.5716337561607361,0.47470027208328247,0.469487726688385,2.123663902282715,4.173491954803467,0.3238784968852997,-0.3343498408794403,-0.10612909495830536,0.32139548659324646
259,88194,88190,-0.013038190081715584,-0.04311983287334442,0.9454727172851562,0.3793767988681793,-0.826870858669281,0.38867202401161194,2.1234138011932373,4.172680854797363,0.32364848256111145,-0.38106659054756165,-0.10790296643972397,0.2872571349143982
260,88203,88200,-0.036144666373729706,0.005973298568278551,1.005333423614502,0.18348391354084015,-1.7293403148651123,0.7030845284461975,2.124988555908203,4.172496318817139,0.32391101121902466,-0.3236651122570038,-0.03327417001128197,0.29236459732055664
261,88213,88210,-0.024531448259949684,0.03803625330328941,0.9721919894218445,-0.3136152923107147,-2.1179778575897217,0.645668625831604,2.125849485397339,4.171419143676758,0.32380324602127075,-0.25714436173439026,-0.050494104623794556,0.2723180651664734
262,88223,88220,-0.024879250675439835,0.013565241359174252,0.9976800084114075,-1.455558180809021,-2.973238229751587,0.617689311504364,2.126321315765381,4.170675754547119,0.32368725538253784,-0.3434596061706543,-0.07840103656053543,0.2645401656627655
263,88233,88230,-0.030847802758216858,0.13404619693756104,0.9753051996231079,-3.0437746047973633,0.7021274566650391,0.31136196851730347,2.1270992755889893,4.169906139373779,0.32252341508865356,-0.29574054479599,-0.1314142495393753,0.2538558542728424
264,88243,88240,-0.04255874082446098,0.2507966160774231,0.9229811429977417,-3.597806930541992,-2.1046557426452637,0.9614578485488892,2.1263937950134277,4.16918420791626,0.322308748960495,-0.18704058229923248,-0.2014971524477005,0.23271413147449493
265,88253,88250,-0.01071313489228487,0.160674586892128,0.9837533831596375,-2.3744287490844727,-2.911195993423462,0.4646729528903961,2.126146078109741,4.168951034545898,0.32215094566345215,-0.36437100172042847,-0.18953046202659607,0.2485920637845993
266,88263,88260,-0.0002556764520704746,0.0502609983086586,0.99802166223526,0.788881242275238,-1.7418763637542725,1.1752817630767822,2.1274573802948,4.168235778808594,0.3240621089935303,-0.3703412711620331,-0.22025416791439056,0.25667914748191833
267,88273,88270,0.0262870192527771,-0.04592730477452278,0.978783130645752,2.395772695541382,-2.415771961212158,0.7751240730285645,2.1283719539642334,4.168951034545898,0.3238169550895691,-0.21404749155044556,-0.20512086153030396,0.2842196226119995
268,88283,88280,-0.04428743198513985,-0.021363595500588417,1.0588207244873047,3.6352643966674805,-2.6644411087036133,0.659726083278656,2.1267683506011963,4.167878150939941,0.32379525899887085,-0.2879527509212494,-0.1634056568145752,0.2777227461338043
269,88293,88290,-0.0002774721069727093,-0.017941834405064583,1.0171129703521729,3.1781437397003174,-3.7145276069641113,0.8600453734397888,2.1296896934509277,4.1670355796813965,0.3235069811344147,-0.19355913996696472,-0.04093865305185318,0.25479498505592346
270,88303,88300,-0.028503136709332466,-0.03986452892422676,0.9888643622398376,2.9201765060424805,-4.722105979919434,0.901566743850708,2.1298177242279053,4.165004253387451,0.3202493190765381,-0.09058062732219696,-0.008970034308731556,0.22468194365501404
271,88313,88310,-0.0005729767144657671,-0.17579424381256104,0.9484264850616455,-0.3054709732532501,-2.6333346366882324,0.5540320873260498,2.1302528381347656,4.164377212524414,0.31998321413993835,-0.15642999112606049,-0.010384190827608109,0.22811664640903473
272,88323,88320,0.04829398915171623,0.07990606874227524,1.0302406549453735,-3.0303168296813965,0.7938732504844666,0.27263006567955017,2.132929563522339,4.164402961730957,0.31957000494003296,-0.10550307482481003,-0.05635254457592964,0.21746285259723663
273,88333,88330,0.12124058604240417,0.09379357099533081,0.9500833749771118,-4.570374965667725,2.436488389968872,0.45586907863616943,2.1337990760803223,4.164590358734131,0.31937575340270996,-0.17682187259197235,-0.1353200078010559,0.22217957675457
274,88343,88340,0.11172737926244736,0.02541102096438408,0.9844014644622803,-4.286333084106445,-1.3849053382873535,0.8101787567138672,2.1350021362304688,4.163773059844971,0.3189602792263031,-0.1405111849308014,-0.21935969591140747,0.18324147164821625
275,88353,88350,0.006886027287691832,-0.010171291418373585,1.0212557315826416,-4.441678524017334,-2.936957836151123,1.1581385135650635,2.135413646697998,4.163628101348877,0.31860852241516113,0.005510484799742699,-0.2985229194164276,0.16275659203529358
276,88363,88360,-0.08673420548439026,-0.005515084136277437,1.0603646039962769,-2.529907464981079,-3.7332005500793457,2.0682060718536377,2.134127378463745,4.163104057312012,0.31431806087493896,0.04246274009346962,-0.3395032584667206,0.15135031938552856
277,88373,88370,-0.024271154776215553,0.03097459115087986,1.0440480709075928,0.17344066500663757,-3.685563564300537,2.3681061267852783,2.136714220046997,4.163084506988525,0.31369444727897644,-0.11678742617368698,-0.22912214696407318,0.18737711012363434
278,88383,88380,0.018870383501052856,-0.06173704192042351,0.9823886752128601,3.4158787727355957,-2.9102940559387207,2.4384703636169434,2.1381919384002686,4.161433696746826,0.3130813539028168,-0.018324201926589012,-0.20845943689346313,0.2029120773077011
279,88393,88390,-0.018358992412686348,-0.02852974645793438,1.082443356513977,4.1464457511901855,-3.4215095043182373,2.319110155105591,2.1380584239959717,4.160677433013916,0.3134883940219879,-0.07624692469835281,-0.15927515923976898,0.2167844921350479
280,88403,88400,0.021347319707274437,-0.010070869699120522,0.9897602796554565,3.887298107147217,-1.1583203077316284,2.52260422706604,2.140151023864746,4.160027503967285,0.31297388672828674,-0.010374565608799458,-0.11062978208065033,0.22678473591804504
281,88413,88410,-0.10356606543064117,0.04092175513505936,1.084381103515625,2.0131750106811523,-1.684083104133606,2.5385537147521973,2.139981269836426,4.158916473388672,0.3126572370529175,0.12622931599617004,-0.07803487032651901,0.2124171108007431
282,88423,88420,-0.01130630262196064,-0.02263292670249939,1.0207775831222534,-1.3890278339385986,-2.2299232482910156,2.6199727058410645,2.1392338275909424,4.157623291015625,0.31243398785591125,0.1131216287612915,-0.08954957127571106,0.20693276822566986
283,88433,88430,0.008776270784437656,-0.0015487436903640628,1.046644687652588,-3.96189546585083,-2.230319023132324,2.3047659397125244,2.1405506134033203,4.158173084259033,0.3116194009780884,0.18366146087646484,-0.1473826915025711,0.2704451382160187
284,88443,88440,-0.050300296396017075,0.08216887712478638,1.0431543588638306,-5.404537677764893,-2.1035406589508057,2.110344409942627,2.141094207763672,4.159548759460449,0.3113771080970764,0.2143840789794922,-0.18900705873966217,0.3292306661605835
285,88453,88450,-0.021078135818243027,0.05667814239859581,1.048864483833313,-4.5907368659973145,-0.23224695026874542,2.017880439758301,2.1426615715026855,4.159944534301758,0.3111061155796051,0.20083323121070862,-0.2852013409137726,0.3402893841266632
286,88463,88460,-0.010846968740224838,0.04071353003382683,1.0589934587478638,-2.018324851989746,0.7112813591957092,2.188704490661621,2.1441564559936523,4.159240245819092,0.3080524504184723,0.16237832605838776,-0.2892058789730072,0.349496066570282
287,88473,88470,0.027292145416140556,-0.06293285638093948,1.0047773122787476,-0.14307615160942078,1.4554181098937988,2.4182095527648926,2.145552396774292,4.157881259918213,0.3076595664024353,0.10950099676847458,-0.24918204545974731,0.34622126817703247
288,88483,88480,-0.0013590228045359254,-0.015689080581068993,1.0278674364089966,1.099563717842102,-0.0994643047451973,2.4532408714294434,2.146883487701416,4.157811641693115,0.30729830265045166,0.05737769603729248,-0.25630608201026917,0.38766711950302124
289,88493,88490,-0.03754747286438942,-0.023167043924331665,1.0349617004394531,1.7964235544204712,-1.3849295377731323,2.4981939792633057,2.1477913856506348,4.157728672027588,0.31017306447029114,0.04740842431783676,-0.24669118225574493,0.39152228832244873
290,88503,88500,0.06950756907463074,-0.05705608054995537,1.0259435176849365,1.429570198059082,-1.5183892250061035,2.267712116241455,2.147516965866089,4.156302452087402,0.3102303743362427,0.19169268012046814,-0.14986631274223328,0.39760321378707886
291,88513,88510,-0.024906432256102562,-0.008365939371287823,1.0544735193252563,0.4383581280708313,-3.6159517765045166,1.920176386833191,2.14907169342041,4.156241416931152,0.31023353338241577,0.1928439438343048,-0.144939124584198,0.43063610792160034
292,88523,88520,0.033464811742305756,-0.02292158640921116,1.0223109722137451,-0.03857125714421272,-3.192739963531494,1.8606959581375122,2.1491167545318604,4.156096458435059,0.3104150593280792,0.33218082785606384,-0.09732640534639359,0.43810832500457764
293,88533,88530,0.013448676094412804,-0.04091903567314148,1.004453420639038,-1.259049415588379,-1.4737285375595093,1.7538776397705078,2.149305820465088,4.153881549835205,0.30923277139663696,0.36003151535987854,-0.10170967876911163,0.4041888415813446
294,88543,88540,0.054411258548498154,-0.06995437294244766,0.9875416159629822,-2.364957094192505,0.7646196484565735,1.7283496856689453,2.150881290435791,4.154269695281982,0.30914098024368286,0.24750067293643951,-0.1511138379573822,0.44781818985939026
295,88553,88550,0.022475242614746094,-0.06306374073028564,0.9874929785728455,-3.551628351211548,1.8720431327819824,1.336591362953186,2.150853395462036,4.154065132141113,0.3091888725757599,0.2670069932937622,-0.21405154466629028,0.45930570363998413
296,88563,88560,-0.009939775802195072,0.019865689799189568,1.0633074045181274,-4.340258598327637,3.8642220497131348,0.8718211650848389,2.1515026092529297,4.1535515785217285,0.3126373887062073,0.3490374684333801,-0.2889808416366577,0.43693244457244873
297,88573,88570,0.08600425720214844,-0.10439275950193405,1.0049816370010376,-3.3308897018432617,1.634236454963684,1.5510176420211792,2.1543467044830322,4.152807235717773,0.31275880336761475,0.18715614080429077,-0.2897180914878845,0.43622779846191406
298,88583,88580,0.014201737008988857,0.000962516525760293,1.0655088424682617,-1.3396108150482178,1.72365403175354,1.3819010257720947,2.1558501720428467,4.151736259460449,0.3129120469093323,0.1259642243385315,-0.2769622206687927,0.42816847562789917
299,88593,88590,0.07873174548149109,-0.042210109531879425,0.9688586592674255,0.8189466595649719,0.8558870553970337,1.8004239797592163,2.1558847427368164,4.15153169631958,0.3105553388595581,0.20831018686294556,-0.31275010108947754,0.40107178688049316
300,88603,88600,0.004919325467199087,-0.022602947428822517,1.0317343473434448,1.3536406755447388,-1.7380969524383545,1.690542459487915,2.15753173828125,4.150224208831787,0.3106273114681244,0.15080209076404572,-0.23811951279640198,0.41099050641059875
301,88613,88610,-0.0124058173969388,-0.01833127811551094,1.0203053951263428,1.8873486518859863,-2.4263620376586914,1.7581053972244263,2.1582753658294678,4.1502156257629395,0.31091463565826416,0.28452837467193604,-0.23742859065532684,0.42479944229125977
302,88623,88620,0.04189028590917587,-0.14788469672203064,1.0328134298324585,0.5935211181640625,-2.3413827419281006,1.721545696258545,2.158533811569214,4.149168968200684,0.3111039400100708,0.3542494475841522,-0.1511542946100235,0.4398949146270752
303,88633,88630,0.044120438396930695,-0.08909964561462402,0.9866719841957092,-1.3645100593566895,-1.802660346031189,1.7547909021377563,2.1582231521606445,4.14861536026001,0.3101881146430969,0.4150888919830322,-0.17473866045475006,0.44422587752342224
304,88643,88640,0.0980687290430069,0.07813037931919098,0.9734405279159546,-3.1552631855010986,3.2336623668670654,1.2080259323120117,2.1597487926483154,4.148351669311523,0.3102969527244568,0.34439462423324585,-0.23369623720645905,0.443004846572876
305,88653,88650,0.04157448187470436,0.04976189136505127,0.9577153921127319,-3.4161508083343506,4.10123872756958,1.028903603553772,2.1613972187042236,4.148149490356445,0.31031233072280884,0.24480055272579193,-0.3048876225948334,0.44246581196784973
306,88663,88660,0.06388116627931595,-0.01133593451231718,0.9461312294006348,-3.6147005558013916,5.105202674865723,1.1593523025512695,2.1621968746185303,4.147372245788574,0.31317293643951416,0.26437926292419434,-0.30654576420783997,0.4365658462047577
307,88673,88670,0.03095106966793537,0.003063627751544118,0.9912227988243103,-3.022096633911133,4.7437591552734375,1.5865408182144165,2.1616837978363037,4.146933078765869,0.31321603059768677,0.26676416397094727,-0.37892287969589233,0.41391488909721375
308,88683,88680,0.03894111514091492,-0.16523347795009613,0.9908291697502136,-2.11318302154541,4.8475446701049805,1.870762825012207,2.163618326187134,4.145556449890137,0.313448965549469,0.1936323642730713,-0.44125089049339294,0.3664776086807251
309,88693,88690,-0.00475304527208209,-0.2267104536294937,1.0190632343292236,-0.11382890492677689,3.819380521774292,1.9745118618011475,2.1647837162017822,4.145671844482422,0.312261700630188,0.06397851556539536,-0.474373996257782,0.3837831914424896
310,88703,88700,-0.02455824799835682,-0.21989752352237701,1.0048692226409912,1.7851386070251465,3.159856081008911,1.6118892431259155,2.1658077239990234,4.145349025726318,0.3123258948326111,0.04528152197599411,-0.38962748646736145,0.4029083847999573
311,88713,88710,0.0017777970060706139,-0.07406440377235413,0.9943225979804993,4.289536476135254,3.11842679977417,1.3126729726791382,2.166212320327759,4.144204616546631,0.3123921751976013,0.018198590725660324,-0.35906824469566345,0.3546901345252991
312,88723,88720,-0.024238480255007744,-0.0002553030790295452,0.9817709922790527,5.133409023284912,1.806869626045227,1.7824136018753052,2.1663005352020264,4.142146110534668,0.3103298544883728,0.013477912172675133,-0.28345438838005066,0.33554527163505554
313,88733,88730,0.049701109528541565,0.022118858993053436,0.9408986568450928,3.9711546897888184,-0.0995447188615799,1.974776268005371,2.1673049926757812,4.141805171966553,0.31025946140289307,0.01811695285141468,-0.21330192685127258,0.3531200885772705
314,88743,88740,0.07019232958555222,-0.011614392511546612,0.936846911907196,1.190613031387329,-1.6843112707138062,1.5895706415176392,2.168142795562744,4.142939567565918,0.3102318048477173,0.04568544030189514,-0.3333170413970947,0.37463992834091187
315,88753,88750,0.03194256126880646,-0.06159120053052902,0.9621052145957947,-0.42797768115997314,-1.8620407581329346,1.6895211935043335,2.1680402755737305,4.142055034637451,0.3101339042186737,0.14954763650894165,-0.3267296254634857,0.332174152135849
316,88763,88760,-0.056690238416194916,-0.10954558104276657,1.0416468381881714,-0.5023829936981201,-0.005921971518546343,1.960157871246338,2.1673974990844727,4.141951560974121,0.3103505074977875,0.18619698286056519,-0.32723674178123474,0.3879777491092682
317,88773,88770,-0.01879517361521721,-0.10027167946100235,0.9481140971183777,-0.2413468062877655,3.785064935684204,1.3637415170669556,2.168994903564453,4.141873359680176,0.31017056107521057,0.11431868374347687,-0.2618309259414673,0.4601489007472992
318,88783,88780,0.0078813461586833,-0.03478291258215904,1.0006074905395508,0.5293565988540649,6.471602439880371,1.0913485288619995,2.168231964111328,4.1424970626831055,0.3100530803203583,0.09543370455503464,-0.26305171847343445,0.47655218839645386
319,88793,88790,-0.03658384457230568,0.05393420532345772,0.999923586845398,1.3144992589950562,7.378866195678711,0.6749377250671387,2.16848087310791,4.143510818481445,0.3105234205722809,-0.0594162791967392,-0.2598309814929962,0.5587233901023865
320,88803,88800,-0.01482453290373087,0.11500280350446701,0.9978833198547363,0.9188514947891235,6.416853904724121,0.9340285062789917,2.168041229248047,4.142606258392334,0.31046438217163086,-0.05744875967502594,-0.2366304248571396,0.5256302952766418
321,88813,88810,0.049612194299697876,0.04249204695224762,0.9576738476753235,1.383778691291809,3.8375654220581055,0.6644589900970459,2.167102336883545,4.142921447753906,0.31038177013397217,-0.0725860670208931,-0.22350692749023438,0.5997048616409302
322,88823,88820,0.02685423567891121,-0.08867597579956055,0.9893924593925476,0.8960495591163635,0.9361487627029419,0.2924562394618988,2.1674768924713135,4.143209934234619,0.31222131848335266,-0.14175637066364288,-0.2075214833021164,0.6909212470054626
323,88833,88830,-0.08164350688457489,-0.15052329003810883,1.0380709171295166,1.1314679384231567,-0.41390103101730347,0.06408113241195679,2.1660473346710205,4.143613338470459,0.3122193515300751,-0.15459822118282318,-0.1939779371023178,0.6725440621376038
324,88843,88840,-0.05857322737574577,-0.14540082216262817,1.0187714099884033,0.7482497692108154,-0.6939622759819031,-0.44995415210723877,2.166612148284912,4.14198637008667,0.3122921884059906,-0.048085518181324005,-0.17581535875797272,0.5890013575553894
325,88853,88850,-0.10549213737249374,0.019958756864070892,1.0384633541107178,-0.16906219720840454,0.6692422032356262,-0.027725886553525925,2.1671407222747803,4.142214298248291,0.312347948551178,-0.07960925996303558,-0.15939421951770782,0.6083159446716309
326,88863,88860,-0.022488858550786972,0.11797770857810974,0.991562008857727,-0.7483857274055481,2.711879253387451,-0.1230839341878891,2.1661410331726074,4.142597198486328,0.31204286217689514,0.030146831646561623,-0.15499095618724823,0.6380266547203064
327,88873,88870,0.024221109226346016,0.12581375241279602,0.9857267737388611,-1.1402562856674194,5.302649974822998,-0.1817852407693863,2.167189836502075,4.1426544189453125,0.31210559606552124,0.002497583394870162,-0.16475969552993774,0.6310049891471863
328,88883,88880,0.024378716945648193,-0.035239651799201965,0.9741442799568176,-0.7026452422142029,6.034951686859131,-0.15240848064422607,2.1690804958343506,4.142420768737793,0.3120686411857605,-0.16036684811115265,-0.1847752332687378,0.6147470474243164
329,88893,88890,-0.07391335815191269,-0.06318771839141846,1.0677858591079712,0.9806299805641174,4.723625183105469,-0.4528510868549347,2.1694390773773193,4.1416473388671875,0.3109763264656067,-0.25348806381225586,-0.12131362408399582,0.6143131852149963
330,88903,88900,-0.07767078280448914,-0.1753329634666443,1.0036239624023438,1.6048506498336792,3.2247989177703857,-0.7401353120803833,2.170457363128662,4.141050338745117,0.3109152913093567,-0.31622737646102905,-0.11437223106622696,0.5868010520935059
331,88913,88910,-0.12235227972269058,-0.05399142950773239,1.0562716722488403,2.1595747470855713,1.7786341905593872,-0.9108152389526367,2.1704812049865723,4.1411895751953125,0.31101176142692566,-0.2586665451526642,-0.08965197205543518,0.5951273441314697
332,88923,88920,-0.07553455978631973,0.09349456429481506,1.0138895511627197,0.7933792471885681,-0.6288295388221741,-1.0301934480667114,2.17261004447937,4.141222953796387,0.311606764793396,-0.40179064869880676,-0.05602046847343445,0.5978896617889404
333,88933,88930,-0.06694380193948746,0.31289681792259216,1.0066611766815186,-0.5463258624076843,-3.117431640625,-0.963006854057312,2.173121690750122,4.140865802764893,0.31183868646621704,-0.26778140664100647,-0.045242469757795334,0.5656983852386475
334,88943,88940,-0.022090328857302666,0.17381203174591064,0.9945724606513977,-0.7269776463508606,-4.987781524658203,-0.6629396080970764,2.173776388168335,4.140593528747559,0.3120042383670807,-0.18900252878665924,-0.06384338438510895,0.5393473505973816
335,88953,88950,-0.008104483596980572,0.023205935955047607,0.9989924430847168,-1.7743585109710693,-5.675088882446289,-0.7644879817962646,2.1736514568328857,4.141354560852051,0.3122856020927429,-0.017391597852110863,-0.08258899301290512,0.5709590315818787
336,88963,88960,-0.07459967583417892,-0.06427711993455887,1.012318730354309,-2.3537724018096924,-3.2375199794769287,-1.0865188837051392,2.1756396293640137,4.14095401763916,0.3144029974937439,-0.07742270827293396,-0.1143442839384079,0.5416826605796814
337,88973,88970,-0.11660328507423401,-0.11299984902143478,1.0073044300079346,-2.1490318775177,-0.466381698846817,-1.1176979541778564,2.1761903762817383,4.1415910720825195,0.3147018849849701,-0.07539974898099899,-0.1517743021249771,0.5442179441452026
338,88983,88980,-0.1411668360233307,0.017644407227635384,1.0349370241165161,-1.9998480081558228,-0.05998034402728081,-1.4172470569610596,2.1773693561553955,4.140326023101807,0.31503990292549133,-0.02779492549598217,-0.10644303262233734,0.4858221411705017
339,88993,88990,-0.013835929334163666,0.05710552632808685,0.9975277781486511,-0.788988471031189,5.063866138458252,-0.7452476620674133,2.1790239810943604,4.140043258666992,0.3137485086917877,-0.08539078384637833,-0.147648423910141,0.470956414937973
340,89003,89000,0.045750103890895844,-0.08405448496341705,0.9535518884658813,-1.6851657629013062,4.828777313232422,-1.0560786724090576,2.1796557903289795,4.140814781188965,0.31406369805336,-0.052812349051237106,-0.17276744544506073,0.48017433285713196
341,89013,89010,-0.01111989188939333,0.1352359652519226,0.9785882234573364,0.06477845460176468,4.323456287384033,-1.125026822090149,2.1807501316070557,4.140634536743164,0.3142434358596802,-0.12275927513837814,-0.19940011203289032,0.4717786908149719
342,89023,89020,-0.00655153626576066,-0.025104250758886337,0.9753168225288391,0.4931539297103882,0.10378286987543106,-1.2128709554672241,2.180936813354492,4.139411449432373,0.31598877906799316,-0.1827937364578247,-0.13058389723300934,0.44904279708862305
343,89033,89030,-0.013140380382537842,-0.12347713112831116,0.9760380387306213,2.391984701156616,2.0561468601226807,-1.0162982940673828,2.1806042194366455,4.139776706695557,0.31626826524734497,-0.19077694416046143,-0.13279055058956146,0.42573973536491394
344,89043,89040,-0.08590008318424225,-0.03354480862617493,0.9873530864715576,1.6943494081497192,0.7174437642097473,-0.6993765830993652,2.1813805103302,4.138436317443848,0.31645360589027405,-0.22213107347488403,-0.10944173485040665,0.403364896774292
345,89053,89050,-0.016521256417036057,0.019372621551156044,0.9921621680259705,-0.1679099202156067,-0.12907540798187256,-0.2164965271949768,2.1816234588623047,4.138838768005371,0.3167986273765564,-0.15284128487110138,-0.08494019508361816,0.3874969482421875
346,89063,89060,0.12947411835193634,0.004535186570137739,0.9705928564071655,-1.1750620603561401,-2.3115503787994385,-0.8411729335784912,2.183582067489624,4.137864112854004,0.31590530276298523,-0.2960500121116638,-0.08905908465385437,0.36078473925590515
347,89073,89070,-0.04029231145977974,0.06194187328219414,0.9738026261329651,-2.372485876083374,-1.7645877599716187,-0.6219126582145691,2.183868169784546,4.136836051940918,0.3160177171230316,-0.23447805643081665,-0.11282922327518463,0.29923543334007263
348,89083,89080,-0.08421874046325684,0.14544396102428436,0.9968762397766113,-2.447152614593506,-2.0174224376678467,-0.1427740752696991,2.184070348739624,4.136119365692139,0.3161945044994354,-0.1880325824022293,-0.08301389962434769,0.2911452651023865
349,89093,89090,-0.014327378943562508,0.1614210456609726,0.9845131635665894,-2.7550857067108154,-2.068180561065674,0.13059373199939728,2.1865572929382324,4.13594913482666,0.3136516213417053,-0.28988492488861084,-0.14237670600414276,0.2635769248008728
350,89103,89100,-0.01465265080332756,-0.0037233184557408094,0.9590013027191162,-0.8017970323562622,-2.407179355621338,0.17547956109046936,2.186145067214966,4.135123252868652,0.3136245310306549,-0.22484563291072845,-0.2009991556406021,0.22067879140377045
351,89113,89110,-0.014773727394640446,-0.07624989002943039,0.9613074064254761,0.9139416217803955,-1.4484671354293823,1.0773941278457642,2.1855037212371826,4.136697292327881,0.3135474920272827,-0.16218501329421997,-0.22467263042926788,0.3201115131378174
352,89123,89120,0.007870287634432316,0.004197404254227877,1.0087617635726929,1.6532583236694336,-0.6145853400230408,0.48298007249832153,2.1847317218780518,4.137277126312256,0.31307628750801086,-0.04178236424922943,-0.2177317887544632,0.3698853552341461
353,89133,89130,0.019762689247727394,0.004125447478145361,0.9997009038925171,2.019099473953247,0.19882576167583466,0.34591734409332275,2.185274600982666,4.1371893882751465,0.31299373507499695,-0.03650381788611412,-0.27218878269195557,0.35459399223327637
354,89143,89140,-0.03345941752195358,0.03152577579021454,1.008071780204773,1.2734454870224,1.3231902122497559,0.41480550169944763,2.187601089477539,4.136608123779297,0.312778115272522,-0.18479609489440918,-0.1544683277606964,0.36535409092903137
355,89153,89150,-0.01687227375805378,-0.03651176765561104,0.9656071662902832,0.8722681999206543,2.951679229736328,0.20137447118759155,2.187654972076416,4.137221813201904,0.3115055561065674,-0.20861852169036865,-0.14166775345802307,0.40164893865585327
356,89163,89160,-0.010980004444718361,0.08474152535200119,0.9877036809921265,-0.3466123640537262,2.1325695514678955,-0.19539037346839905,2.1886327266693115,4.1368913650512695,0.31127431988716125,-0.2268892377614975,-0.13222205638885498,0.39364591240882874
357,89173,89170,-0.05670620873570442,0.09609630703926086,1.0367504358291626,1.3796745538711548,1.1412347555160522,-0.023868896067142487,2.190227746963501,4.137876987457275,0.3109874427318573,-0.3195945918560028,-0.21830259263515472,0.41355958580970764
358,89183,89180,-0.00579634727910161,-0.08992939442396164,0.943677544593811,1.7584680318832397,-0.9921190738677979,-0.3244720697402954,2.19136643409729,4.137840270996094,0.3107743561267853,-0.1974962204694748,-0.17992697656154633,0.4520787298679352
359,89193,89190,0.01648988388478756,-0.05711064115166664,0.981174886226654,2.3539023399353027,-2.9495596885681152,-0.399177610874176,2.1912119388580322,4.138184547424316,0.3082943260669708,-0.19663122296333313,-0.16597191989421844,0.42984554171562195
360,89203,89200,-0.05906485393643379,0.02613152749836445,0.9888485670089722,2.698150873184204,-4.288898468017578,-0.013159845024347305,2.1924939155578613,4.137697219848633,0.307831734418869,-0.2122809886932373,-0.12459979951381683,0.4086419641971588
361,89213,89210,-0.076596699655056,0.11194039136171341,1.0006473064422607,2.0168797969818115,-3.4112014770507812,0.21491803228855133,2.194136619567871,4.137215614318848,0.30739396810531616,-0.1984497308731079,-0.07794693112373352,0.38164058327674866
362,89223,89220,-0.0014886870048940182,0.10361502319574356,0.9903517365455627,1.2514430284500122,-3.074664354324341,0.45863795280456543,2.1940813064575195,4.136645793914795,0.308127760887146,-0.045337751507759094,-0.04824770987033844,0.35399606823921204
363,89233,89230,-0.046443432569503784,0.09694727510213852,1.045385479927063,0.032642558217048645,-1.786704659461975,0.4532311260700226,2.1961283683776855,4.13598108291626,0.30768686532974243,-0.15488384664058685,-0.03527209907770157,0.32137444615364075
364,89243,89240,-0.007275096140801907,0.0018640704220160842,1.0132650136947632,-0.9094507694244385,0.11190030723810196,0.4268128275871277,2.1983349323272705,4.136744022369385,0.30717822909355164,-0.269947350025177,-0.11832243949174881,0.3251548111438751
365,89253,89250,-0.026231730356812477,-0.007582494523376226,1.034265398979187,-0.38302040100097656,0.9474783539772034,0.41761454939842224,2.1983721256256104,4.136234283447266,0.31074580550193787,-0.16762332618236542,-0.12923993170261383,0.30449068546295166
366,89263,89260,-0.03249700739979744,0.02435733936727047,1.0040546655654907,0.14485271275043488,0.4704550802707672,0.8500539064407349,2.200242757797241,4.13617467880249,0.3106634318828583,-0.22970044612884521,-0.13289324939250946,0.3002508878707886
367,89273,89270,0.05172986164689064,-0.13992361724376678,1.0220950841903687,0.4030330777168274,-1.9401319026947021,1.2346606254577637,2.20024037361145,4.135672569274902,0.31074801087379456,-0.12905646860599518,-0.1237548440694809,0.2793269157409668
368,89283,89280,0.056700535118579865,-0.21621087193489075,1.0508778095245361,1.4752064943313599,-1.9501221179962158,0.5151824355125427,2.201598644256592,4.135648250579834,0.31070613861083984,-0.14578858017921448,-0.11060962826013565,0.26972469687461853
369,89293,89290,-0.04457593336701393,-0.011950119398534298,1.0176239013671875,2.0066041946411133,-1.8267821073532104,0.5298070311546326,2.202695608139038,4.134972095489502,0.3097357451915741,-0.16595323383808136,-0.08649355918169022,0.26870715618133545
370,89303,89300,0.0035351307597011328,0.005864235106855631,1.0183793306350708,2.9334044456481934,-3.7319953441619873,0.6315620541572571,2.20285964012146,4.134814739227295,0.3098507821559906,-0.0327492356300354,-0.1277168244123459,0.23507991433143616
371,89313,89310,-0.031711168587207794,-0.007168928626924753,1.0609453916549683,3.41088604927063,0.40359795093536377,0.5395294427871704,2.204664468765259,4.134438991546631,0.309810996055603,-0.09133867174386978,-0.06824643909931183,0.22689706087112427
372,89323,89320,0.006583489011973143,-0.06251733005046844,0.9941087961196899,2.686676025390625,3.889950752258301,0.6996831893920898,2.206897735595703,4.134255409240723,0.31188610196113586,-0.19658473134040833,-0.0026005529798567295,0.2106773406267166
373,89333,89330,0.01870964653789997,-0.1352381855249405,1.0263659954071045,2.7647225856781006,-0.8481113910675049,0.5804226994514465,2.2065553665161133,4.134319305419922,0.31217247247695923,-0.11645753681659698,0.052869975566864014,0.2622954845428467
374,89343,89340,0.02279648184776306,-0.1981782168149948,1.024512529373169,1.6314562559127808,-1.7581026554107666,0.7823501229286194,2.2069242000579834,4.133736610412598,0.31236058473587036,-0.15110382437705994,0.024625234305858612,0.2217445969581604
375,89353,89350,0.010848176665604115,-0.08789041638374329,0.973457396030426,-0.08352534472942352,-2.9593629837036133,0.4188466966152191,2.2064709663391113,4.133793354034424,0.31628745794296265,-0.0907568708062172,0.05738106369972229,0.2577691972255707
376,89363,89360,0.023509133607149124,0.001031474326737225,1.0055054426193237,-1.2553707361221313,-0.8101664781570435,0.012805989943444729,2.207153797149658,4.133504867553711,0.31680235266685486,-0.017324259504675865,0.0627773106098175,0.36501842737197876
377,89373,89370,0.02009541355073452,0.20179547369480133,0.9878622889518738,-0.5237299203872681,-0.7470251321792603,-0.8776269555091858,2.2068116664886475,4.135774612426758,0.31722554564476013,-0.11311139166355133,0.05465121567249298,0.38915446400642395
378,89383,89380,0.11091134697198868,0.0516248382627964,0.8959019184112549,1.0937672853469849,-2.691012382507324,-1.1785497665405273,2.206402063369751,4.1368513107299805,0.31882330775260925,-0.059713877737522125,0.05254720151424408,0.4788571298122406
379,89393,89390,0.14123626053333282,0.024674473330378532,0.9471895694732666,1.578166127204895,-1.3322811126708984,-1.779335618019104,2.207563877105713,4.136665344238281,0.3192615211009979,-0.11986478418111801,0.08079022169113159,0.46953344345092773
380,89403,89400,0.03256284445524216,0.05009229853749275,0.9613808989524841,1.999168038368225,-4.405267238616943,-1.7146998643875122,2.20812726020813,4.136166572570801,0.31973230838775635,-0.04314339533448219,0.11220677196979523,0.4115212559700012
381,89413,89410,-0.008175360038876534,-0.005019799340516329,0.9595436453819275,0.7179477214813232,-2.046274185180664,-0.9545744061470032,2.2079153060913086,4.135350704193115,0.3202306628227234,0.1356925368309021,0.14676989614963531,0.3774070739746094
382,89423,89420,-0.007110141217708588,-0.02053208462893963,1.0078009366989136,-0.1435607224702835,-1.7900079488754272,-0.8529976010322571,2.209038496017456,4.1351799964904785,0.317674845457077,0.037778597325086594,0.16279791295528412,0.3581870198249817
383,89433,89430,0.06858336925506592,-0.01919609121978283,0.9536536931991577,-1.8004231452941895,1.8367598056793213,-1.0425162315368652,2.209869384765625,4.135595798492432,0.3177506923675537,0.02113211527466774,0.1602138876914978,0.3925223648548126
384,89443,89440,0.029905090108513832,-0.009199579246342182,0.9044494032859802,-3.7272932529449463,3.04587721824646,-0.37088534235954285,2.2111756801605225,4.135554790496826,0.317746639251709,-0.05049167200922966,0.05708964541554451,0.3310530483722687
385,89453,89450,0.1579020917415619,0.03610336780548096,0.9091427326202393,-1.7251125574111938,-0.8505387306213379,-0.6828067898750305,2.211303949356079,4.135448932647705,0.31514835357666016,0.016780944541096687,0.007911649532616138,0.3282582461833954
386,89463,89460,-0.1078236848115921,0.06884197145700455,1.0024676322937012,-0.19488273561000824,-4.360299587249756,-0.6428924798965454,2.212632656097412,4.134881496429443,0.3148903548717499,-0.0562409833073616,0.06086479872465134,0.3415718078613281
387,89473,89470,-0.04487016424536705,-0.036980099976062775,0.995923638343811,-0.08192341774702072,-0.8187966346740723,-0.8468589186668396,2.212928295135498,4.135272979736328,0.31461724638938904,-0.029957015067338943,0.057190850377082825,0.32050761580467224
388,89483,89480,0.04506684094667435,-0.17257006466388702,0.9977266192436218,-0.18833914399147034,-2.4133570194244385,-0.500171959400177,2.2128260135650635,4.134174823760986,0.31700682640075684,0.10330445319414139,0.05677897855639458,0.271689236164093
389,89493,89490,0.0014387250412255526,-0.15665404498577118,0.9884763360023499,-0.33470097184181213,-3.120863914489746,0.055510349571704865,2.213087797164917,4.133076190948486,0.31685519218444824,0.09592437744140625,0.05585205927491188,0.13930027186870575
390,89503,89500,0.014934071339666843,0.08952682465314865,0.9829928874969482,-1.428577184677124,-2.110513687133789,0.3483564555644989,2.212364673614502,4.13151216506958,0.31675803661346436,0.1817759871482849,0.0512356273829937,0.14887277781963348
391,89513,89510,0.03287295997142792,0.07908850908279419,0.9937811493873596,-0.8743565678596497,-0.8512768149375916,0.4041847884654999,2.215298652648926,4.131351947784424,0.3164556920528412,0.01294789556413889,0.03294118866324425,0.17436419427394867
392,89523,89520,0.0017426643753424287,-0.008801188319921494,0.9873618483543396,-0.6843050718307495,0.40777891874313354,-0.04076104238629341,2.2136917114257812,4.131486892700195,0.3159048855304718,0.15384416282176971,0.021175691857933998,0.1542392522096634
393,89533,89530,-0.023626459762454033,-0.02052576094865799,0.9961855411529541,-0.8612152338027954,1.1510590314865112,0.11547672003507614,2.214402675628662,4.130944728851318,0.3157361149787903,0.1793362945318222,0.08793257176876068,0.1653739959001541
394,89543,89540,-0.041191551834344864,-0.04156339541077614,0.9967867136001587,-1.8123518228530884,0.09810816496610641,-0.11192632466554642,2.2173612117767334,4.129885673522949,0.3153197467327118,-0.03717893734574318,0.14596252143383026,0.13809563219547272
395,89553,89550,-0.03647594526410103,0.006332945078611374,0.9843075275421143,-2.032473564147949,-1.5473008155822754,-0.12839385867118835,2.2165355682373047,4.1300883293151855,0.3155350387096405,0.08063360303640366,0.10593824088573456,0.15843673050403595
396,89563,89560,-0.07469002157449722,0.10152679681777954,1.024410367012024,-3.6974692344665527,-3.694955587387085,0.29864731431007385,2.2160379886627197,4.129322528839111,0.31543710827827454,0.2146092802286148,0.06212715059518814,0.10925384610891342
397,89573,89570,-0.0009567047818563879,-0.02703101560473442,0.9810884594917297,-3.926767349243164,-3.998033285140991,0.5530217885971069,2.2173309326171875,4.129186630249023,0.3152512311935425,0.21644435822963715,-0.005227344110608101,0.0875902995467186
398,89583,89580,0.06510834395885468,-0.0902848020195961,0.9564027190208435,-2.848179578781128,-2.8757550716400146,0.5905055403709412,2.2177462577819824,4.127793312072754,0.31433436274528503,0.23011569678783417,-0.07628083229064941,0.0031276552472263575
399,89593,89590,0.06725463271141052,-0.04301894083619118,0.9935408234596252,-1.9721031188964844,-1.4831544160842896,0.9144725799560547,2.218834400177002,4.127264022827148,0.3140501379966736,0.22867780923843384,-0.13036257028579712,-0.05560174584388733
400,89603,89600,0.1217552125453949,-0.036516185849905014,0.9805022478103638,-0.08396601676940918,0.14460420608520508,0.8516625761985779,2.2198688983917236,4.126473426818848,0.3137396574020386,0.2048252522945404,-0.16847297549247742,-0.049990568310022354
401,89613,89610,0.0591476634144783,0.005589810665696859,1.0007526874542236,0.4466422498226166,-0.7407658696174622,1.6763992309570312,2.219139814376831,4.125937461853027,0.31354376673698425,0.3088734745979309,-0.17462722957134247,-0.10591939836740494
402,89623,89620,0.14581084251403809,-0.13873577117919922,0.9917774200439453,1.0942729711532593,2.571289539337158,1.0569955110549927,2.2199552059173584,4.124185085296631,0.31381112337112427,0.3300555646419525,-0.01116156205534935,-0.08363553136587143
403,89633,89630,0.12246444821357727,-0.15212641656398773,1.0000933408737183,0.3683536648750305,2.8936238288879395,1.2599172592163086,2.2216200828552246,4.123507022857666,0.3135194480419159,0.22212201356887817,-0.007778821513056755,-0.10815783590078354
404,89643,89640,0.04811111465096474,-0.06925351917743683,1.0267702341079712,-1.423528790473938,2.3579556941986084,0.916348397731781,2.222628116607666,4.1232099533081055,0.3133014738559723,0.18860769271850586,-0.014415477402508259,-0.12078257650136948
405,89653,89650,0.028265586122870445,-0.08538076281547546,0.9551714062690735,-3.3370933532714844,1.7007044553756714,1.0823954343795776,2.2242727279663086,4.122617721557617,0.3118790090084076,0.08793478459119797,-0.050958435982465744,-0.15426261723041534
406,89663,89660,0.033834487199783325,-0.04406942054629326,0.9646698236465454,-3.3515920639038086,0.8906026482582092,1.0376436710357666,2.225212335586548,4.123021125793457,0.3115865886211395,0.08706526458263397,-0.11724400520324707,-0.1750517338514328
407,89673,89670,0.02651694416999817,0.04108717292547226,1.0277109146118164,-3.132030487060547,0.9294023513793945,1.5250943899154663,2.2253506183624268,4.122273921966553,0.3113866448402405,0.17523618042469025,-0.18427900969982147,-0.18829061090946198
408,89683,89680,0.05961420014500618,-0.02053847722709179,0.9834852814674377,-1.742709755897522,-0.6322017312049866,1.165422797203064,2.2270588874816895,4.1223626136779785,0.3103019595146179,0.10328129678964615,-0.2420872300863266,-0.18923261761665344
409,89693,89690,0.05465632677078247,-0.030775897204875946,1.0281773805618286,-0.3767789304256439,0.6321792602539062,1.244857668876648,2.226842164993286,4.121628284454346,0.3099692761898041,0.2083054929971695,-0.27503177523612976,-0.22763052582740784
410,89703,89700,0.07243353128433228,-0.0352010540664196,1.0185706615447998,1.172537088394165,0.4414461851119995,1.4126079082489014,2.227290391921997,4.123072624206543,0.3095337450504303,0.12089596688747406,-0.2849920690059662,-0.11049643158912659
411,89713,89710,-0.005782639607787132,0.026282576844096184,1.0287081003189087,2.3706071376800537,0.4359891414642334,1.199727177619934,2.229048252105713,4.122808933258057,0.31106141209602356,-0.03803885355591774,-0.26768743991851807,-0.12561313807964325
412,89723,89720,-0.003923619631677866,0.03973206505179405,0.9773997068405151,3.114764451980591,0.2764571011066437,1.2856619358062744,2.2271053791046143,4.1233930587768555,0.3109602928161621,0.050803616642951965,-0.2328794151544571,-0.013576989993453026
413,89733,89730,-0.021390315145254135,0.1255737543106079,1.033848762512207,3.0557963848114014,0.8005539178848267,1.427491307258606,2.2293450832366943,4.122517108917236,0.3107319176197052,-0.0171208456158638,-0.1113804429769516,-0.006028417497873306
414,89743,89740,-0.030732333660125732,0.09592834115028381,1.0095690488815308,1.8552513122558594,0.08768997341394424,1.4103071689605713,2.2300827503204346,4.122962951660156,0.3105781376361847,-0.0036759113427251577,-0.2288168966770172,-0.055080998688936234
415,89753,89750,0.007127965800464153,0.06505579501390457,1.0198924541473389,1.3524659872055054,0.6229536533355713,1.6524213552474976,2.230013608932495,4.122060298919678,0.30819395184516907,0.09510277956724167,-0.1940222680568695,-0.08152059465646744
416,89763,89760,0.036086104810237885,0.006147730629891157,1.0303432941436768,0.04421389475464821,0.3260481655597687,2.1238176822662354,2.230740547180176,4.1215434074401855,0.30789315700531006,0.022072387859225273,-0.16819247603416443,-0.08043641597032547
417,89773,89770,0.01870713382959366,-0.03593284636735916,1.024543046951294,-0.20222364366054535,-0.16399431228637695,1.6669691801071167,2.232170581817627,4.121928691864014,0.3076780140399933,-0.04010393097996712,-0.16249868273735046,-0.027588000521063805
418,89783,89780,-0.02845786139369011,0.04866801202297211,0.9746813178062439,-0.6075873374938965,-0.4778272807598114,1.4392175674438477,2.2329070568084717,4.121635913848877,0.3076555132865906,-0.01160604041069746,-0.16338780522346497,-0.027038423344492912
419,89793,89790,-0.10929248481988907,0.1302560269832611,1.0383802652359009,0.49484550952911377,-0.2034282237291336,1.8198410272598267,2.232393980026245,4.122408390045166,0.3075956404209137,0.08703642338514328,-0.17135095596313477,0.03050461784005165
420,89803,89800,-0.07117205113172531,0.0690457820892334,1.0099512338638306,1.6118614673614502,-0.10029515624046326,1.7988728284835815,2.2350850105285645,4.122291564941406,0.3073098063468933,-0.05835900083184242,-0.16623330116271973,0.048999495804309845
421,89813,89810,0.03982700780034065,0.017564019188284874,1.0109816789627075,1.4937275648117065,1.9497981071472168,1.5297664403915405,2.234271764755249,4.121759414672852,0.3061835765838623,0.046945709735155106,-0.14177456498146057,0.05290329083800316
422,89823,89820,-0.014461667276918888,0.03490370884537697,1.0434627532958984,2.3984298706054688,1.8001067638397217,1.6143980026245117,2.236095666885376,4.121679306030273,0.3058973252773285,-0.0388205349445343,-0.11563950031995773,0.06920795887708664
423,89833,89830,0.004506071098148823,-0.03305288031697273,0.9779450297355652,2.0172455310821533,2.3057706356048584,1.4272847175598145,2.2375497817993164,4.120649814605713,0.30559241771698,-0.11228003352880478,-0.07082625478506088,0.029539158567786217
424,89843,89840,-0.059015531092882156,0.03811391815543175,0.9643422365188599,1.0819627046585083,1.327285647392273,1.7939943075180054,2.2385170459747314,4.120842933654785,0.3053796589374542,-0.11481520533561707,-0.035948172211647034,0.06231066584587097
425,89853,89850,-0.11960688978433609,0.10880298167467117,1.00398850440979,-1.0294880867004395,-0.7582650184631348,1.4851038455963135,2.2396063804626465,4.120954990386963,0.30745232105255127,-0.10683947056531906,-0.016903264448046684,0.08344896137714386
426,89863,89860,-0.07397590577602386,0.020791294053196907,0.9865797162055969,-2.0976076126098633,-1.143457293510437,1.58262300491333,2.2409119606018066,4.121540546417236,0.3072476089000702,-0.14834249019622803,-0.18797169625759125,0.03492438420653343
427,89873,89870,-0.07017133384943008,-0.005970406346023083,1.0597095489501953,-1.3070344924926758,-2.17452073097229,1.3850266933441162,2.2410950660705566,4.121267318725586,0.3072635531425476,-0.01643434353172779,-0.20660683512687683,0.0051101017743349075
428,89883,89880,-0.009955117478966713,-0.04190301522612572,1.013583779335022,0.8637861609458923,-1.1536933183670044,1.5291723012924194,2.2429330348968506,4.120197296142578,0.30764511227607727,-0.10074707865715027,-0.2112688571214676,-0.03567029908299446
429,89893,89890,0.002430774038657546,-0.029374433681368828,0.9937549233436584,4.071130275726318,-2.427288770675659,1.959516167640686,2.24294376373291,4.1198225021362305,0.3076570928096771,-0.0373382605612278,-0.18212725222110748,-0.03929346427321434
430,89903,89900,-0.029978737235069275,0.0001431858545402065,1.0152664184570312,5.285140514373779,-1.875935673713684,2.188910484313965,2.2437942028045654,4.1193132400512695,0.3076719045639038,0.04110727831721306,-0.1006656140089035,-0.031207121908664703
431,89913,89910,0.009107028134167194,0.026507321745157242,0.9829535484313965,5.994510173797607,-1.450871467590332,2.204500675201416,2.2450413703918457,4.119024753570557,0.30774420499801636,0.022718997672200203,-0.005322696641087532,-0.003374759340658784
432,89923,89920,-0.000579481478780508,0.020771408453583717,1.0021916627883911,3.7691845893859863,-1.0421334505081177,2.1810712814331055,2.245114326477051,4.119046211242676,0.30782100558280945,0.15214505791664124,0.021685602143406868,-0.025960778817534447
433,89933,89930,0.024311114102602005,-0.04113364964723587,0.9894000887870789,1.5242562294006348,0.408488005399704,1.92403244972229,2.2464139461517334,4.118540287017822,0.3077373206615448,0.11326409876346588,0.0971895307302475,-0.026066161692142487
434,89943,89940,-0.014666193164885044,0.013133111409842968,1.0198359489440918,-0.08742427080869675,2.0315921306610107,2.1534030437469482,2.2473161220550537,4.117945671081543,0.3077620267868042,0.14330552518367767,0.1328231692314148,-0.02759680338203907
435,89953,89950,0.001724323141388595,-0.06192901358008385,0.9910832643508911,-1.2933770418167114,2.3385462760925293,2.1735732555389404,2.248622179031372,4.1174821853637695,0.30703720450401306,0.06984962522983551,0.06318487226963043,-0.05806979909539223
436,89963,89960,-0.02864832989871502,0.016762204468250275,1.021963119506836,-2.641256332397461,3.2609589099884033,1.6269241571426392,2.250309944152832,4.118149757385254,0.3069300651550293,0.011804086156189442,0.06028399243950844,-0.003919684793800116
437,89973,89970,-0.010000268928706646,0.06208285316824913,0.9837132692337036,-2.0741584300994873,2.240183115005493,1.7945736646652222,2.2505946159362793,4.116971969604492,0.3069210946559906,0.008887856267392635,0.03447214141488075,-0.06622587889432907
438,89983,89980,0.006479863543063402,0.033510517328977585,0.9716731905937195,-0.6470270156860352,0.09015198796987534,2.5525166988372803,2.2506864070892334,4.117147445678711,0.30698683857917786,0.08001548051834106,0.01044373121112585,-0.04600386321544647
439,89993,89990,0.011741096153855324,-0.07920890301465988,0.9720861911773682,0.38502147793769836,-1.708804965019226,2.593156576156616,2.2515077590942383,4.11688756942749,0.30702370405197144,0.09636364132165909,0.0825582891702652,0.012315371073782444
440,90003,90000,0.004058123100548983,-0.03497093543410301,1.0211154222488403,0.3562887907028198,2.0618770122528076,1.7198439836502075,2.2521045207977295,4.1169114112854,0.3069157898426056,0.07074911147356033,0.09124168753623962,0.09449061751365662
441,90013,90010,-0.02366127260029316,0.017976190894842148,1.0175306797027588,1.8014659881591797,-1.3877496719360352,1.1953954696655273,2.2538750171661377,4.117290496826172,0.3050738573074341,0.013538718223571777,0.10592567920684814,0.09994598478078842
442,90023,90020,0.012582119554281235,-0.08299973607063293,0.9575375914573669,2.036870002746582,-0.4752565324306488,1.0798983573913574,2.2549312114715576,4.11722469329834,0.30494844913482666,0.08393290638923645,0.14009566605091095,0.083223357796669
443,90033,90030,-0.02314445748925209,-0.0032040229998528957,1.0071637630462646,1.4203193187713623,0.07720179855823517,1.3525469303131104,2.256307601928711,4.117129325866699,0.3047504127025604,0.0405939482152462,0.09292211383581161,0.042595766484737396
444,90043,90040,-0.016808021813631058,-0.004446843639016151,0.9842569231987,0.2318149358034134,-0.8523239493370056,1.3407244682312012,2.257038116455078,4.117290019989014,0.30460837483406067,0.07631181180477142,0.045394524931907654,0.0012861648574471474
445,90053,90050,-0.03271035850048065,0.06400525569915771,0.9450980424880981,-0.23284758627414703,-0.44299301505088806,2.15141224861145,2.2573370933532715,4.115895748138428,0.3060351312160492,0.11445630341768265,0.1368269920349121,0.028857475146651268
446,90063,90060,0.05397609621286392,-0.09740195423364639,0.9910318851470947,-1.6747596263885498,-0.13445867598056793,2.089655876159668,2.258007287979126,4.115224838256836,0.3059164881706238,0.06770647317171097,0.20967543125152588,0.04678145796060562
447,90073,90070,0.026261668652296066,0.03613511100411415,1.0271975994110107,-2.8080689907073975,1.7304667234420776,1.0349348783493042,2.2598471641540527,4.115926742553711,0.3057611584663391,0.030530443415045738,0.10105104744434357,0.07377582788467407
448,90083,90080,-0.026203526183962822,-0.008293529972434044,0.9854276180267334,-1.5420283079147339,-1.0632879734039307,1.2543376684188843,2.26007342338562,4.116310119628906,0.306119441986084,0.04158783704042435,0.056194406002759933,0.05834272503852844
449,90093,90090,-0.07837757468223572,0.005617921706289053,1.036958932876587,-0.6049447655677795,0.8483651876449585,1.0113725662231445,2.2608330249786377,4.115573406219482,0.3060169816017151,0.014808479696512222,0.03426529839634895,0.11853046715259552
450,90103,90100,-0.052930597215890884,0.10216978192329407,1.0123897790908813,-0.1395508050918579,1.5582703351974487,0.6904235482215881,2.2616817951202393,4.115536689758301,0.3061177134513855,0.13379651308059692,0.03394543379545212,0.06834330409765244
451,90113,90110,-0.017510712146759033,0.06255824863910675,1.009653925895691,0.9296277761459351,0.902655839920044,1.2591243982315063,2.2632219791412354,4.115538120269775,0.3042484521865845,-0.01668604090809822,0.0391944944858551,0.06650383770465851
452,90123,90120,0.0011834518518298864,0.009893284179270267,0.9890658855438232,1.1593650579452515,0.6426083445549011,1.179921269416809,2.262701988220215,4.116033554077148,0.30422815680503845,0.08464006334543228,0.05690528452396393,0.1421695202589035
453,90133,90130,-0.03252510726451874,-0.06395626813173294,1.027522087097168,1.6238008737564087,-0.834819495677948,1.0249334573745728,2.2627148628234863,4.115278244018555,0.30419018864631653,0.09691336005926132,0.15401901304721832,0.14342497289180756
454,90143,90140,-0.028016922995448112,-0.05267862230539322,0.9946308732032776,0.8716347217559814,2.9311654567718506,0.4373052716255188,2.2634592056274414,4.114743709564209,0.30547162890434265,0.1409679800271988,0.17570039629936218,0.16170118749141693
455,90153,90150,0.008800572715699673,0.006604179739952087,0.9781463146209717,-0.13410630822181702,-0.5958516597747803,1.1293703317642212,2.2656521797180176,4.114043235778809,0.3053232431411743,-0.033681418746709824,0.18358515202999115,0.11401812732219696
456,90163,90160,-0.08001141995191574,0.07946065068244934,0.9993584752082825,-1.2089282274246216,-1.5717642307281494,1.5014615058898926,2.2650492191314697,4.114267826080322,0.3054581880569458,0.1183304563164711,0.10885580629110336,0.07662909477949142
457,90173,90170,-0.030936863273382187,0.04176485165953636,1.00887930393219,-3.4332275390625,-0.3235047459602356,1.7553105354309082,2.2662525177001953,4.113760471343994,0.3054828643798828,0.17700481414794922,0.08808562904596329,0.06641940027475357
458,90183,90180,0.02950243093073368,-0.1678168773651123,0.9631223082542419,-3.9769480228424072,0.7100360989570618,2.220946788787842,2.2685699462890625,4.1138739585876465,0.305549293756485,0.050818029791116714,0.031184738501906395,0.026964904740452766
459,90193,90190,0.017889607697725296,-0.1397649645805359,0.9856996536254883,-2.8921589851379395,0.4487595558166504,1.9038187265396118,2.2682061195373535,4.11397647857666,0.30563339591026306,0.15413597226142883,-0.02998409792780876,0.11045371741056442
460,90203,90200,-0.08663595467805862,-0.0576750822365284,1.0507360696792603,-0.6445640921592712,1.2108628749847412,1.4231846332550049,2.2695491313934326,4.113079071044922,0.3055647909641266,0.09206268936395645,0.0052214148454368114,0.08477147668600082
461,90213,90210,-0.04938671737909317,-0.09341394901275635,0.9757277369499207,1.7524176836013794,-1.4300789833068848,1.868470311164856,2.2698426246643066,4.113833427429199,0.3050851821899414,0.19173283874988556,-0.008048729039728642,0.1325770914554596
462,90223,90220,-0.10000712424516678,-0.07177247852087021,1.0249996185302734,4.601963043212891,-0.6643578410148621,1.1614381074905396,2.270205497741699,4.11494779586792,0.3050076365470886,0.12911076843738556,0.017083488404750824,0.2660871148109436
463,90233,90230,-0.1288273185491562,0.1099516749382019,1.0197153091430664,3.703014373779297,2.869612455368042,0.8503178358078003,2.270099401473999,4.113485813140869,0.30502045154571533,0.14268673956394196,0.08625470101833344,0.21550722420215607
464,90244,90240,-0.06116846203804016,0.17920726537704468,0.9876247644424438,2.229801654815674,3.1111671924591064,1.2750985622406006,2.271352529525757,4.113292217254639,0.3053792715072632,0.12114555388689041,0.145005464553833,0.22949370741844177
465,90253,90250,-0.01170154195278883,-0.09328175336122513,0.9652063250541687,1.1643935441970825,2.4882075786590576,1.6301484107971191,2.2729039192199707,4.112954139709473,0.30535247921943665,0.0060593131929636,0.17689403891563416,0.22217513620853424
466,90263,90260,0.026690933853387833,-0.11533089727163315,1.0197745561599731,-2.646562337875366,3.9028608798980713,1.4279011487960815,2.273458242416382,4.113417625427246,0.3054882884025574,0.06315036118030548,0.10569415986537933,0.2207862138748169
467,90273,90270,0.1369810551404953,0.04009166732430458,0.9599769711494446,-4.141685962677002,4.428655624389648,1.1687978506088257,2.273998260498047,4.113789081573486,0.3054179847240448,-0.05403106287121773,0.1401628851890564,0.30429866909980774
468,90283,90280,0.014461490325629711,0.02795870415866375,0.9721767902374268,-3.0172910690307617,-1.5013813972473145,0.3705867528915405,2.27372407913208,4.114233493804932,0.3046607971191406,-0.014692144468426704,0.06637334823608398,0.3384701609611511
469,90293,90290,-0.02825573831796646,0.027743062004446983,1.0173842906951904,-3.8316845893859863,-0.5032272338867188,0.49259239435195923,2.2756879329681396,4.114175796508789,0.30456316471099854,-0.05330036208033562,0.010608570650219917,0.31885525584220886
470,90303,90300,0.02833334356546402,-0.0519210509955883,0.9924284815788269,-2.9088103771209717,-0.7090563774108887,0.9099907279014587,2.2754483222961426,4.114145278930664,0.3045821785926819,0.059315893799066544,-0.05325130373239517,0.3091157078742981
471,90313,90310,-0.018585294485092163,-0.184561625123024,0.9740052223205566,-1.5468120574951172,-1.7177364826202393,1.2344214916229248,2.277108669281006,4.113803863525391,0.30458346009254456,-0.06563650816679001,-0.1004955843091011,0.2912181317806244
472,90323,90320,0.02122471109032631,-0.1803286075592041,0.9194866418838501,0.6304499506950378,-0.4229556620121002,1.4043396711349487,2.2765440940856934,4.114652156829834,0.304513156414032,-0.0049835932441055775,-0.04375971481204033,0.41786161065101624
473,90333,90330,-0.06779184937477112,0.018445627763867378,1.0659774541854858,2.689934015274048,0.6053024530410767,0.5654177069664001,2.275970220565796,4.115121364593506,0.30454155802726746,0.09352359175682068,-0.034784652292728424,0.4774967432022095
474,90343,90340,-0.0688389390707016,0.03744110092520714,0.9914144277572632,3.663503646850586,-0.3937808871269226,0.08678214997053146,2.2781105041503906,4.115894794464111,0.30454492568969727,-0.07509902864694595,0.00391199067234993,0.5484263300895691
475,90353,90350,-0.08544274419546127,0.12988261878490448,1.027628779411316,1.5223428010940552,2.115572214126587,-0.051829319447278976,2.278897285461426,4.115386486053467,0.30444350838661194,-0.05080355331301689,0.05644050985574722,0.4957598149776459
476,90363,90360,0.01970834471285343,0.030843302607536316,0.9675297737121582,-0.8810340762138367,1.9573848247528076,0.5134792923927307,2.2798781394958496,4.114513874053955,0.30437391996383667,-0.05705760419368744,0.0796840563416481,0.47757500410079956
477,90373,90370,-0.03621285781264305,0.04761775583028793,1.061421513557434,-2.415191411972046,1.3877596855163574,0.5010117292404175,2.280857563018799,4.113890171051025,0.3045419156551361,-0.06601466983556747,0.13969281315803528,0.48136550188064575
478,90383,90380,0.003939216490834951,-0.05552782490849495,0.9417679309844971,-4.153389930725098,-0.42915505170822144,0.37198248505592346,2.281846761703491,4.113926887512207,0.30450981855392456,-0.05928957462310791,0.08203422278165817,0.4712994694709778
