,timestamp_start,timestamp_end,acc.x,acc.y,acc.z,gyro.x,gyro.y,gyro.z,stateEstimate.x,stateEstimate.y,stateEstimate.z,stabilizer.pitch,stabilizer.roll,stabilizer.yaw
0,21485,21482,-0.004815550986677408,0.01905428059399128,1.0222809314727783,11.61283016204834,6.745491027832031,0.9719411134719849,1.9082087278366089,3.9395976066589355,0.16281728446483612,1.3335567712783813,-0.21325992047786713,2.2347922325134277
1,21495,21492,-0.011506875976920128,-0.11136595904827118,1.0442464351654053,6.09363317489624,7.381597995758057,0.9323141574859619,1.9038833379745483,3.9419350624084473,0.1636389195919037,2.032688617706299,-0.03840227797627449,2.2111399173736572
2,21505,21502,0.01847807876765728,-0.027862822636961937,1.0199061632156372,0.7393451929092407,7.50894021987915,1.091398000717163,1.9036672115325928,3.9403529167175293,0.16598063707351685,1.8230072259902954,0.39494723081588745,2.1580069065093994
3,21515,21512,0.06555146723985672,-0.042487408965826035,1.036558985710144,-6.130971908569336,10.342604637145996,1.4791748523712158,1.9067425727844238,3.936631202697754,0.17031946778297424,0.9753289818763733,0.7408111095428467,2.101177453994751
4,21525,21522,0.02989186719059944,-0.044152501970529556,0.9989665150642395,-13.706024169921875,11.907086372375488,1.2721680402755737,1.9045573472976685,3.9405605792999268,0.1773063689470291,1.1251922845840454,-0.121571384370327,2.2744576930999756
5,21535,21532,-0.008008907549083233,0.01794729195535183,1.0522236824035645,-18.972087860107422,11.621981620788574,-0.10636268556118011,1.9045536518096924,3.9384381771087646,0.1787939816713333,0.9372042417526245,0.06360866874456406,2.2275800704956055
6,21545,21542,0.024692511186003685,0.07112161070108414,0.9639012813568115,-17.112266540527344,8.475218772888184,-0.07011711597442627,1.9040030241012573,3.939840793609619,0.18130023777484894,0.9768657684326172,-0.0634012445807457,2.2269535064697266
7,21555,21552,0.005267993547022343,0.07873554527759552,1.001219391822815,-11.731764793395996,3.433316707611084,0.4859708249568939,1.907804250717163,3.93565034866333,0.18367089331150055,0.3550688922405243,0.45672640204429626,2.088397979736328
8,21565,21562,-0.032442957162857056,-0.01598958484828472,1.108803629875183,-4.386320114135742,0.898465096950531,1.2771580219268799,1.9081097841262817,3.937135934829712,0.18756599724292755,0.36415591835975647,0.14773517847061157,2.120802879333496
9,21575,21572,0.03180217370390892,-0.037712596356868744,0.9761646389961243,-2.298318386077881,-4.134025573730469,1.3432698249816895,1.9059594869613647,3.937049150466919,0.190698504447937,0.48006671667099,-0.03918477147817612,2.1566948890686035
10,21585,21582,-0.013571035116910934,-0.06774705648422241,0.9992145299911499,-4.336754322052002,-7.1502366065979,0.9757514595985413,1.9054584503173828,3.9379258155822754,0.19359329342842102,0.5088532567024231,-0.18485134840011597,2.1827995777130127
11,21595,21592,0.036851443350315094,-0.03079528547823429,0.9708309173583984,-6.349726676940918,-7.525619029998779,0.7564493417739868,1.904566764831543,3.9380762577056885,0.196706160902977,0.6485375761985779,-0.41271549463272095,2.2150497436523438
12,21605,21602,0.0471208430826664,-0.02125324122607708,0.9561401605606079,-7.690217018127441,-7.767126083374023,0.36241286993026733,1.9020535945892334,3.939159631729126,0.19928522408008575,0.7878856062889099,-0.712605357170105,2.248950242996216
13,21615,21612,0.0440644845366478,-0.06035543605685234,1.0247681140899658,-5.6167521476745605,-5.411448001861572,-0.26072657108306885,1.9035362005233765,3.9404304027557373,0.2018129974603653,0.6990048289299011,-0.9183211326599121,2.259197950363159
14,21625,21622,0.06288217753171921,-0.11028961837291718,0.9590417146682739,-2.4330108165740967,-1.9450502395629883,-0.5625404715538025,1.901731252670288,3.940244436264038,0.20447228848934174,0.9334468841552734,-1.0064265727996826,2.263540029525757
15,21635,21632,0.06315384060144424,-0.06360095739364624,0.9485058784484863,4.868342399597168,1.9896739721298218,-0.9425516724586487,1.9048073291778564,3.940164089202881,0.2060866355895996,0.6689213514328003,-0.8066819906234741,2.23689866065979
16,21645,21642,0.00817044172435999,0.023963864892721176,0.9956063628196716,10.265101432800293,5.125527381896973,-0.9186508655548096,1.9059420824050903,3.94024920463562,0.20865309238433838,0.6643232703208923,-0.7345830202102661,2.2237045764923096
17,21655,21652,0.023111918941140175,-0.04407432675361633,0.9327322840690613,12.428374290466309,7.278169631958008,-1.9541043043136597,1.9051011800765991,3.9398646354675293,0.21126620471477509,0.7485092282295227,-0.5910359621047974,2.2061448097229004
18,21665,21662,0.062387771904468536,-0.055658407509326935,0.9180129766464233,11.7911958694458,5.64087438583374,-2.0285086631774902,1.8958293199539185,3.9409291744232178,0.21414898335933685,1.9648847579956055,-0.6282204389572144,2.1697041988372803
19,21675,21672,0.003076698165386915,-0.01096570398658514,0.974885880947113,8.309142112731934,6.717031002044678,-1.5850818157196045,1.8943467140197754,3.9428842067718506,0.2167174518108368,1.8678410053253174,-0.7250052690505981,2.1761648654937744
20,21685,21682,0.04003960266709328,-0.14518839120864868,0.9868962168693542,4.995947360992432,15.073099136352539,-1.449093222618103,1.8937928676605225,3.942103624343872,0.22045603394508362,1.5766667127609253,-0.5753572583198547,2.15800142288208
21,21695,21692,0.035926781594753265,-0.1641484647989273,1.029722809791565,1.6787948608398438,24.569780349731445,-1.2157760858535767,1.8930150270462036,3.942441701889038,0.22040770947933197,1.379080057144165,-0.5574729442596436,2.1496613025665283
22,21705,21702,-0.008917073719203472,0.1013028547167778,0.9981569051742554,0.6613751649856567,32.270835876464844,-1.2428351640701294,1.8941841125488281,3.9422073364257812,0.22322958707809448,0.8994144201278687,-0.583263635635376,2.149346113204956
23,21715,21712,0.022824959829449654,0.005391189828515053,0.9048730731010437,1.5000572204589844,34.52957534790039,-1.2663681507110596,1.8933466672897339,3.9425277709960938,0.2255326211452484,0.6292688846588135,-0.5388443470001221,2.126472234725952
24,21725,21722,0.02642006054520607,-0.04625378176569939,0.9141756296157837,3.841491937637329,31.127105712890625,-0.9066380262374878,1.8916932344436646,3.9440271854400635,0.22755958139896393,0.4004732370376587,-0.6848357915878296,2.127845525741577
25,21735,21732,-0.044675953686237335,-0.05753416195511818,0.9351497292518616,6.062503337860107,24.317045211791992,-1.7321327924728394,1.8910162448883057,3.9439730644226074,0.22734315693378448,0.013848270289599895,-0.5631373524665833,2.1084601879119873
26,21745,21742,-0.0370592400431633,-0.05017231032252312,0.9162164330482483,8.186673164367676,16.32293701171875,-1.5140633583068848,1.8907923698425293,3.9435243606567383,0.2294480800628662,-0.3915743827819824,-0.48575207591056824,2.0943856239318848
27,21755,21752,0.007163936272263527,0.06117623671889305,0.9097527265548706,10.220562934875488,9.390531539916992,-1.8858797550201416,1.8892494440078735,3.9445688724517822,0.23128250241279602,-0.5271947383880615,-0.5184485912322998,2.080674409866333
28,21765,21762,0.04603886231780052,-0.06424756348133087,0.9531479477882385,11.789083480834961,2.216944932937622,-1.943292498588562,1.8886053562164307,3.944021701812744,0.2317385971546173,-0.7451306581497192,-0.36514046788215637,2.0629355907440186
29,21775,21772,0.01604912057518959,-0.14209209382534027,1.0327281951904297,12.554763793945312,-2.2275078296661377,-2.131075382232666,1.8863136768341064,3.943484306335449,0.2334829717874527,-0.6990050077438354,-0.19122961163520813,2.0446019172668457
30,21785,21782,0.00679288012906909,-0.06534714996814728,0.9479072093963623,11.067941665649414,-4.865845203399658,-2.033348321914673,1.8856236934661865,3.9474544525146484,0.23507677018642426,-0.6699019074440002,-0.373084157705307,2.0092711448669434
31,21795,21792,-0.014343132264912128,-0.14560085535049438,0.9780798554420471,10.249391555786133,-2.0065696239471436,-1.9759654998779297,1.884760856628418,3.9474246501922607,0.23723560571670532,-0.6825303435325623,-0.18580009043216705,1.9939696788787842
32,21805,21802,0.00027546269120648503,-0.03555973246693611,0.973776638507843,10.037409782409668,0.6952325105667114,-2.05647873878479,1.884393334388733,3.9473118782043457,0.23890483379364014,-0.7225967645645142,-0.08567996323108673,1.974885106086731
33,21815,21812,-0.03277379274368286,-0.002791213570162654,0.9671541452407837,9.324455261230469,3.0394694805145264,-1.6699196100234985,1.8849250078201294,3.9479734897613525,0.24048903584480286,-0.800922155380249,-0.05930318683385849,1.9465280771255493
34,21825,21822,-0.011520951986312866,-0.011886758729815483,0.9622552990913391,9.623137474060059,2.7197415828704834,-1.7680282592773438,1.884492039680481,3.9475624561309814,0.24228501319885254,-0.8281974792480469,0.17833773791790009,1.943922996520996
35,21835,21832,0.02926500327885151,-0.1000421941280365,0.9596595168113708,8.385494232177734,5.028290748596191,-1.9048632383346558,1.8843660354614258,3.947800636291504,0.24306370317935944,-0.8611369132995605,0.32339414954185486,1.9334238767623901
36,21845,21842,0.04971928521990776,-0.06129957735538483,0.9342944622039795,7.588497638702393,1.7095317840576172,-1.8633613586425781,1.8835985660552979,3.947930097579956,0.2445635050535202,-0.9025170207023621,0.445787250995636,1.9215271472930908
37,21855,21852,0.03516250103712082,-0.1384189873933792,1.002940058708191,5.340780735015869,0.02263871394097805,-2.30820369720459,1.8838651180267334,3.948998212814331,0.2460489273071289,-0.9807116985321045,0.3957993686199188,1.8799105882644653
38,21865,21862,0.024360286071896553,-0.19847145676612854,0.9641898274421692,2.842660903930664,-1.7242664098739624,-2.599419593811035,1.883449673652649,3.9499752521514893,0.24600568413734436,-1.089119553565979,0.394797146320343,1.843684434890747
39,21875,21872,0.04162639006972313,-0.18961651623249054,0.9413060545921326,1.4716269969940186,-1.1534130573272705,-2.619272232055664,1.882199764251709,3.9505128860473633,0.24731898307800293,-1.0849742889404297,0.43800604343414307,1.8194365501403809
40,21885,21882,0.004108330234885216,0.01625477708876133,1.0155805349349976,2.489077091217041,-5.2483954429626465,-2.5636377334594727,1.8826931715011597,3.950385332107544,0.24865534901618958,-1.1370033025741577,0.5350543856620789,1.8043994903564453
41,21895,21892,0.07681920379400253,0.015083837322890759,0.9578725695610046,3.6515071392059326,-6.7263007164001465,-2.918339967727661,1.883065938949585,3.951589584350586,0.24781261384487152,-1.1382598876953125,0.4914991557598114,1.7624667882919312
42,21905,21902,0.11064483970403671,-0.010388677008450031,0.9558030962944031,4.18643045425415,-9.344882011413574,-2.855177879333496,1.8826075792312622,3.9519591331481934,0.2489863634109497,-1.0248247385025024,0.542786717414856,1.7413341999053955
43,21915,21912,0.11347653716802597,-0.05772116780281067,0.9851382970809937,5.194084644317627,-11.449378967285156,-2.7736544609069824,1.8818573951721191,3.951301097869873,0.2501866817474365,-0.8743513822555542,0.6747222542762756,1.7377219200134277
44,21925,21922,0.08551990240812302,-0.04845621436834335,1.0261822938919067,5.1476850509643555,-11.939735412597656,-2.8633105754852295,1.8844128847122192,3.953009843826294,0.25129392743110657,-0.9864471554756165,0.663412868976593,1.6736669540405273
45,21935,21932,0.04888998717069626,-0.033023759722709656,0.9939755797386169,3.3727760314941406,-10.774365425109863,-2.32918381690979,1.8828035593032837,3.953268527984619,0.2559168338775635,-0.7832872271537781,0.722764253616333,1.6550917625427246
46,21945,21942,0.022141821682453156,0.0017663146136328578,0.9987661242485046,1.3972774744033813,-8.80787467956543,-2.424839735031128,1.8825604915618896,3.953245162963867,0.2572634518146515,-0.6015542149543762,0.8256033658981323,1.6519275903701782
47,21955,21952,0.01155103649944067,0.11151721328496933,0.9758678674697876,0.5418856143951416,-7.71250057220459,-2.568042755126953,1.8831709623336792,3.954136848449707,0.258562833070755,-0.5328629016876221,0.822240948677063,1.6196534633636475
48,21965,21962,0.024938857182860374,-0.04017285257577896,0.9366738796234131,-0.31724533438682556,-5.963103771209717,-2.307938575744629,1.8834078311920166,3.955122232437134,0.2582394480705261,-0.47971853613853455,0.7294734120368958,1.5705103874206543
49,21975,21972,0.00426952401176095,0.005991525016725063,1.0238291025161743,-0.8164348602294922,-4.517018795013428,-1.9954683780670166,1.8840153217315674,3.9546587467193604,0.25945454835891724,-0.4509008824825287,0.8471925258636475,1.563069462776184
50,21985,21982,-0.013956903479993343,0.022848594933748245,1.0135977268218994,-0.04541591554880142,-4.0995306968688965,-2.2450461387634277,1.88446044921875,3.954796075820923,0.2606187164783478,-0.4437779486179352,0.8720359206199646,1.5427405834197998
51,21995,21992,0.02043825387954712,-0.05105850100517273,0.9404637813568115,-0.286600261926651,-3.613210916519165,-1.9384491443634033,1.8820202350616455,3.955320119857788,0.259348601102829,-0.2941429615020752,0.8266240358352661,1.5298466682434082
52,22005,22002,0.020042838528752327,-0.04503832012414932,0.9610493183135986,-0.46536603569984436,-3.516385316848755,-2.056469440460205,1.8834266662597656,3.954617500305176,0.2603764832019806,-0.4481673240661621,0.9304890036582947,1.498745322227478
53,22015,22012,0.00970782246440649,-0.04403926432132721,0.9788280725479126,-0.2010604441165924,-4.9666829109191895,-1.9403241872787476,1.8836591243743896,3.95463490486145,0.2613782286643982,-0.33562594652175903,0.9469023942947388,1.4908167123794556
54,22025,22022,-0.05888747796416283,-0.07262258231639862,0.99647057056427,-1.4425078630447388,-5.74762487411499,-2.314589500427246,1.8864874839782715,3.9553112983703613,0.26285460591316223,-0.43457964062690735,0.9575266242027283,1.4478332996368408
55,22035,22032,-0.017394892871379852,-0.03083639033138752,0.9974806904792786,-3.0732645988464355,-7.87307596206665,-2.1444435119628906,1.886698842048645,3.9561517238616943,0.2638317942619324,-0.3600989878177643,0.8690032958984375,1.4157646894454956
56,22045,22042,-0.008658423088490963,-0.025479452684521675,0.9907376766204834,-4.561882019042969,-9.502208709716797,-1.6426798105239868,1.8871862888336182,3.9575605392456055,0.2647665739059448,-0.33102840185165405,0.762294590473175,1.3762823343276978
57,22055,22052,0.008186019957065582,-0.09659739583730698,1.001665472984314,-4.538856506347656,-11.657997131347656,-1.4937126636505127,1.8863145112991333,3.958207845687866,0.2657890319824219,-0.11846883594989777,0.7179316282272339,1.378047227859497
58,22065,22062,0.04219358041882515,-0.19858644902706146,1.0002834796905518,-3.64056396484375,-12.067910194396973,-1.6345077753067017,1.8893848657608032,3.958726167678833,0.2678259611129761,-0.18211190402507782,0.7461533546447754,1.3426507711410522
59,22075,22072,0.006453432142734528,-0.03297675773501396,1.0205891132354736,-1.5905882120132446,-12.263910293579102,-1.1238696575164795,1.8896372318267822,3.9598777294158936,0.26889926195144653,-0.0011583914747461677,0.7854540944099426,1.342270016670227
60,22085,22082,0.01438099518418312,-0.11210325360298157,1.0153002738952637,0.1935179978609085,-11.369139671325684,-0.9378567337989807,1.8898050785064697,3.96075439453125,0.269963800907135,0.24237032234668732,0.7738290429115295,1.3478541374206543
61,22095,22092,0.02499413676559925,-0.06440071761608124,1.0163943767547607,-0.2481193244457245,-9.151307106018066,-1.2176611423492432,1.8925127983093262,3.9612550735473633,0.2687378525733948,0.16983892023563385,0.7817321419715881,1.305723786354065
62,22105,22102,-0.014323444105684757,-0.13348641991615295,1.0323593616485596,-1.7815067768096924,-6.388917922973633,-0.7918651103973389,1.892909288406372,3.9629878997802734,0.2697078585624695,0.37016561627388,0.7021729946136475,1.305627703666687
63,22115,22112,0.02542615309357643,0.031116515398025513,0.9572263956069946,-3.640218734741211,-4.611170768737793,-0.47579237818717957,1.8937273025512695,3.9636566638946533,0.2707298696041107,0.44052374362945557,0.6700385808944702,1.2956299781799316
64,22125,22122,0.039136845618486404,-0.0017884543631225824,0.9712502956390381,-3.855238914489746,-2.500239133834839,-0.3718630075454712,1.8945930004119873,3.964487075805664,0.2696763575077057,0.40223896503448486,0.6194512844085693,1.2768058776855469
65,22135,22132,0.04186844080686569,0.15248620510101318,0.9857427477836609,-2.952690362930298,-2.7311289310455322,0.4220968186855316,1.894714593887329,3.965184450149536,0.27050453424453735,0.4950961172580719,0.5707566142082214,1.2834686040878296
66,22145,22142,0.03800000995397568,0.1148574948310852,0.9784678816795349,-2.5943474769592285,-5.378750324249268,0.25170713663101196,1.8951611518859863,3.964494228363037,0.27127528190612793,0.5206193327903748,0.6084321141242981,1.287338137626648
67,22155,22152,-0.022837085649371147,-0.09504816681146622,0.9957442879676819,-1.1052805185317993,-6.728273868560791,0.18188947439193726,1.8965904712677002,3.964556932449341,0.2720058560371399,0.5153653621673584,0.6542267799377441,1.2800698280334473
68,22165,22162,-0.044442906975746155,-0.05533144250512123,1.0043190717697144,-1.3726377487182617,-8.009346961975098,0.40864235162734985,1.896895408630371,3.9645471572875977,0.27343472838401794,0.6090441346168518,0.7017920613288879,1.2837551832199097
69,22175,22172,-0.032156556844711304,-0.016193948686122894,0.986076295375824,-2.925943374633789,-7.907186031341553,0.9071434140205383,1.8971985578536987,3.9654641151428223,0.27422237396240234,0.7101847529411316,0.652736246585846,1.2903937101364136
70,22185,22182,-0.01223456859588623,-0.01985188201069832,0.9485397934913635,-5.395954132080078,-6.73259162902832,1.0683563947677612,1.8982127904891968,3.965928077697754,0.275014191865921,0.7272636890411377,0.5734623074531555,1.2930089235305786
71,22195,22192,0.0004107278655283153,-0.015298889949917793,1.003626823425293,-7.443404197692871,-5.142837047576904,1.0604907274246216,1.8976194858551025,3.967451333999634,0.2764797508716583,0.8789050579071045,0.4634847044944763,1.3151755332946777
72,22205,22202,0.02518482506275177,-0.12256467342376709,0.9998311996459961,-8.314996719360352,-3.520836114883423,1.1890618801116943,1.8967883586883545,3.9669954776763916,0.2772843837738037,0.9881904125213623,0.4783985912799835,1.3269647359848022
73,22215,22212,0.05529124662280083,-0.20766860246658325,1.0108164548873901,-8.456331253051758,-2.3358376026153564,1.1538981199264526,1.8970656394958496,3.967245101928711,0.2781634032726288,0.9959874153137207,0.31624898314476013,1.3422273397445679
74,22225,22222,0.027645861729979515,-0.2095412015914917,1.04050612449646,-6.928102493286133,0.5233265161514282,1.000259280204773,1.897103190422058,3.9688162803649902,0.2757568657398224,1.0467792749404907,0.17839354276657104,1.3628102540969849
75,22235,22232,0.016914300620555878,-0.09097222238779068,0.9700104594230652,-3.982527017593384,1.1612019538879395,1.5192800760269165,1.896813154220581,3.967158317565918,0.2765357792377472,0.9684987664222717,0.2210351973772049,1.3577454090118408
76,22245,22242,0.016120847314596176,-0.05576604977250099,1.0086383819580078,-1.2461867332458496,2.5870981216430664,1.4766992330551147,1.896725058555603,3.9676878452301025,0.27719026803970337,0.9627376198768616,0.16031500697135925,1.3761534690856934
77,22255,22252,0.012219361960887909,0.04676331579685211,0.9996011853218079,-0.48583877086639404,3.8840067386627197,1.7059248685836792,1.8958460092544556,3.967738151550293,0.27787068486213684,0.926540732383728,0.13207507133483887,1.3920128345489502
78,22265,22262,0.0474138967692852,-0.06960269808769226,0.9238927960395813,0.2490958869457245,2.9427030086517334,2.421452760696411,1.8954037427902222,3.9670982360839844,0.2807667851448059,0.964940071105957,0.12022457271814346,1.4168527126312256
79,22275,22272,-0.00250833947211504,0.018609054386615753,1.0534193515777588,0.24930623173713684,1.8905400037765503,2.2191996574401855,1.8953006267547607,3.9675240516662598,0.2815307676792145,0.943184494972229,0.11657776683568954,1.4428694248199463
80,22285,22282,0.020925747230648994,0.003068457590416074,1.004211187362671,-0.8485872149467468,2.626293897628784,2.101761817932129,1.896069884300232,3.96775221824646,0.2822837233543396,0.8569992780685425,0.10663482546806335,1.4642807245254517
81,22295,22292,0.0026702284812927246,-0.010919613763689995,1.015402913093567,-1.8366236686706543,0.17059484124183655,1.8045945167541504,1.8952863216400146,3.9675300121307373,0.2851085960865021,0.9180958271026611,0.15195885300636292,1.4808080196380615
82,22305,22302,-0.013724464923143387,-0.016113940626382828,1.0143301486968994,-3.157365322113037,-0.2990562617778778,1.7634212970733643,1.896165370941162,3.9684109687805176,0.2860296964645386,0.8557349443435669,0.09799326211214066,1.5023555755615234
83,22315,22312,0.018210409209132195,-0.0064909569919109344,0.9832378625869751,-3.441711664199829,-0.18615463376045227,1.4934020042419434,1.8953516483306885,3.967923164367676,0.2869188189506531,0.9419212341308594,0.10280274599790573,1.517526626586914
84,22325,22322,0.03629270941019058,-0.04290440306067467,0.9655973315238953,-3.4305999279022217,0.28327715396881104,1.7298303842544556,1.8954569101333618,3.968604564666748,0.2888890504837036,0.9431526064872742,0.031388334929943085,1.5381523370742798
85,22335,22332,0.004897775128483772,-0.07363375276327133,1.0370879173278809,-4.42219352722168,2.324239730834961,1.687586784362793,1.8956538438796997,3.9685251712799072,0.2898578345775604,0.941325843334198,-0.040156468749046326,1.5624098777770996
86,22345,22342,0.01150711439549923,-0.05495336279273033,0.9790199995040894,-3.701829195022583,4.651787281036377,1.3014180660247803,1.8947559595108032,3.9676358699798584,0.29088830947875977,0.8881708979606628,0.035782016813755035,1.562690019607544
87,22355,22352,-0.03708522394299507,-0.019467564299702644,1.0139580965042114,-1.4667192697525024,5.396659851074219,1.1680606603622437,1.894423246383667,3.9655230045318604,0.29048675298690796,0.8200835585594177,0.20289893448352814,1.5526477098464966
88,22365,22362,-0.01199578307569027,0.024340791627764702,1.0234798192977905,-0.6383697986602783,6.876028537750244,1.4335782527923584,1.8944306373596191,3.9665799140930176,0.2914765477180481,0.7135704755783081,-0.004074775613844395,1.5896116495132446
89,22375,22372,-0.021761206910014153,0.033304378390312195,1.0148407220840454,-2.043177843093872,6.4201273918151855,1.39759361743927,1.8946986198425293,3.966339349746704,0.29239532351493835,0.6240707635879517,-0.03911799192428589,1.608310341835022
90,22385,22382,-0.021242361515760422,-0.06079718843102455,1.0256397724151611,-3.637537717819214,5.706409454345703,1.332847237586975,1.8943079710006714,3.966576337814331,0.2932983636856079,0.588147759437561,-0.10934530943632126,1.6279518604278564
91,22395,22392,0.028547566384077072,0.07496282458305359,0.9558318257331848,-4.394462585449219,2.9057371616363525,1.4490784406661987,1.8945667743682861,3.9667139053344727,0.29373523592948914,0.5158824920654297,-0.1927231103181839,1.6465853452682495
92,22405,22402,0.07502172142267227,0.16336990892887115,0.9434218406677246,-4.502962112426758,4.2929182052612305,1.6307449340820312,1.893053412437439,3.9636824131011963,0.29465752840042114,0.6924005746841431,0.024257807061076164,1.6330825090408325
93,22415,22412,0.012412398122251034,0.02636088989675045,0.9688411951065063,-3.942654609680176,7.162332534790039,1.8412307500839233,1.8938541412353516,3.962331533432007,0.29552367329597473,0.5763737559318542,-0.0042190696112811565,1.6485283374786377
94,22425,22422,0.04368310049176216,0.004161848220974207,0.9461929202079773,-4.415767192840576,14.150524139404297,1.6332578659057617,1.8952535390853882,3.9631032943725586,0.29892054200172424,0.38722673058509827,-0.10355030000209808,1.6744000911712646
95,22435,22432,0.03600677475333214,-0.041597627103328705,0.9492445588111877,-5.376405715942383,19.717620849609375,1.8399920463562012,1.8935272693634033,3.9624364376068115,0.2998587489128113,0.4044860005378723,-0.14059025049209595,1.6865851879119873
96,22445,22442,0.017283938825130463,-0.11418312042951584,0.9733337163925171,-5.1780314445495605,22.884140014648438,1.5875892639160156,1.8944205045700073,3.962656021118164,0.3007485568523407,0.038140978664159775,-0.26100262999534607,1.7129353284835815
97,22455,22452,0.015904823318123817,-0.03349347040057182,0.9755820631980896,-6.005686283111572,24.488174438476562,1.4615161418914795,1.893917202949524,3.9626901149749756,0.3016911447048187,-0.22305546700954437,-0.3799683451652527,1.7337462902069092
98,22465,22462,0.07242268323898315,-0.04375457018613815,0.9462085962295532,-5.799109935760498,22.857810974121094,1.96010160446167,1.8943283557891846,3.9619784355163574,0.30244261026382446,-0.5570414662361145,-0.3507441580295563,1.7487759590148926
99,22475,22472,0.04942166805267334,-0.03553047403693199,0.9421588182449341,-4.285545825958252,19.2460994720459,2.480313777923584,1.8934494256973267,3.9623191356658936,0.3032841384410858,-0.6793562173843384,-0.46153724193573,1.7674343585968018
100,22485,22482,-0.02803702838718891,0.021934915333986282,0.9510868787765503,-2.712369203567505,12.045818328857422,2.6781811714172363,1.8937349319458008,3.9620611667633057,0.3039661645889282,-0.8637176156044006,-0.4614070951938629,1.7936323881149292
101,22495,22492,-0.027449021115899086,0.02093750610947609,0.9865535497665405,-1.3650611639022827,8.344109535217285,2.810487985610962,1.8940486907958984,3.96148681640625,0.30456990003585815,-1.0326011180877686,-0.518500030040741,1.820729374885559
102,22505,22502,-0.00014540133997797966,-0.05555357038974762,0.9774852991104126,0.4733850657939911,3.902303457260132,2.241218328475952,1.892238736152649,3.961876392364502,0.3053721785545349,-0.8753968477249146,-0.456371545791626,1.840641975402832
103,22515,22512,-0.02219490334391594,-0.08180568367242813,1.0191036462783813,2.455387830734253,1.173659086227417,2.647233724594116,1.8907500505447388,3.961907386779785,0.3059946894645691,-0.8285415172576904,-0.449079692363739,1.8621611595153809
104,22525,22522,-0.0043280404061079025,0.0036227048840373755,1.003917932510376,2.806379556655884,2.9811744689941406,2.120387077331543,1.8910775184631348,3.9625184535980225,0.3045269250869751,-0.8851773738861084,-0.4249699115753174,1.8892524242401123
105,22535,22532,0.02493009902536869,-0.0020478416699916124,0.9585543274879456,2.5670132637023926,6.421776294708252,2.1206109523773193,1.891797423362732,3.9622769355773926,0.3050178587436676,-0.9767675995826721,-0.40757307410240173,1.9125202894210815
106,22545,22542,0.018311088904738426,0.015050679445266724,0.9843928813934326,1.2352986335754395,10.139666557312012,2.4034242630004883,1.890885353088379,3.962005138397217,0.3055167496204376,-0.9724572896957397,-0.39280635118484497,1.9273709058761597
107,22555,22552,0.01723400503396988,-0.008711345493793488,0.9563159346580505,0.3619205355644226,12.515366554260254,2.6081230640411377,1.8925749063491821,3.963327407836914,0.30545327067375183,-1.1806279420852661,-0.3933141529560089,1.9602726697921753
108,22565,22562,-0.006575247272849083,0.12723611295223236,0.9263927936553955,-1.1207777261734009,14.302705764770508,2.1892893314361572,1.8909507989883423,3.9642062187194824,0.30543264746665955,-1.2631556987762451,-0.4867114722728729,1.9686397314071655
109,22575,22572,-0.017566556110978127,0.19982577860355377,0.9561567306518555,-1.8402775526046753,14.004273414611816,2.0731091499328613,1.8912395238876343,3.963618278503418,0.3057711124420166,-1.5129767656326294,-0.5210972428321838,1.9925421476364136
110,22585,22582,0.006732459180057049,0.006096293684095144,0.9615983963012695,-0.9492635726928711,12.132566452026367,2.384655714035034,1.892325520515442,3.9637200832366943,0.3060236871242523,-1.7265136241912842,-0.5498023629188538,2.018071413040161
111,22595,22592,0.055927298963069916,-0.013030552305281162,0.9590734839439392,1.2968332767486572,7.373520374298096,1.5298115015029907,1.891722321510315,3.962707996368408,0.30618348717689514,-1.8099082708358765,-0.48020586371421814,2.0511555671691895
112,22605,22602,0.009598901495337486,-0.04065541923046112,0.9340298175811768,3.006063461303711,2.446011543273926,1.3860678672790527,1.8917127847671509,3.962247133255005,0.30641090869903564,-1.8684101104736328,-0.4515879154205322,2.0685532093048096
113,22615,22612,0.0018104531336575747,-0.011056900024414062,0.9728192090988159,3.573429822921753,-2.1846365928649902,1.2219367027282715,1.891580581665039,3.962120294570923,0.30657264590263367,-1.855385184288025,-0.40792161226272583,2.084153890609741
114,22625,22622,0.041246939450502396,-0.0428207702934742,0.9574689865112305,3.21272611618042,-4.860525608062744,0.9094998240470886,1.8912724256515503,3.962855577468872,0.3074246048927307,-1.7752203941345215,-0.4314793050289154,2.080481767654419
115,22635,22632,-0.012522060424089432,0.007640074007213116,1.0177584886550903,3.4518816471099854,-5.729959011077881,0.8622139692306519,1.8909348249435425,3.962632179260254,0.30743131041526794,-1.8075764179229736,-0.3740787208080292,2.102065324783325
116,22645,22642,-0.01826680265367031,-0.026909926906228065,1.0025513172149658,3.502993106842041,-5.550521373748779,1.486501693725586,1.8901704549789429,3.9626004695892334,0.3076477646827698,-1.600420355796814,-0.31740570068359375,2.109909772872925
117,22655,22652,-0.026110049337148666,0.01017460785806179,1.025960087776184,3.0882530212402344,-3.244685173034668,0.9383123517036438,1.8900450468063354,3.962374210357666,0.30522993206977844,-1.5131633281707764,-0.266372412443161,2.1241281032562256
118,22665,22662,0.0006009252392686903,-0.04737657681107521,0.9793015122413635,1.7684255838394165,0.14088337123394012,1.2265477180480957,1.8915940523147583,3.962547779083252,0.30510324239730835,-1.7002817392349243,-0.2358679473400116,2.1512060165405273
119,22675,22672,-0.014585659839212894,-0.002931384602561593,1.022915005683899,1.0760530233383179,2.7116456031799316,1.422410249710083,1.8916410207748413,3.962676525115967,0.305094450712204,-1.6898826360702515,-0.2160033881664276,2.163797616958618
120,22685,22682,0.035670578479766846,-0.00510462885722518,1.0005449056625366,0.05973281338810921,2.2568392753601074,0.8259727954864502,1.8921561241149902,3.9627413749694824,0.3034583330154419,-1.6901532411575317,-0.29026052355766296,2.149841785430908
121,22695,22692,0.014270217157900333,0.004606368951499462,1.0086429119110107,-0.19562382996082306,1.1401543617248535,0.38937851786613464,1.893798589706421,3.963118553161621,0.3032572567462921,-1.8305422067642212,-0.2831754982471466,2.1672143936157227
122,22705,22702,0.008870227262377739,-0.019986681640148163,1.0077143907546997,0.5072001218795776,-0.5955840349197388,0.5981953740119934,1.8938403129577637,3.9633798599243164,0.30317649245262146,-1.779659390449524,-0.2862432897090912,2.1679904460906982
123,22715,22712,0.02354041486978531,-0.008311904966831207,1.0082029104232788,2.1343882083892822,-5.171262741088867,0.23502707481384277,1.8936655521392822,3.9632623195648193,0.303158164024353,-1.6730352640151978,-0.2603124976158142,2.1720223426818848
124,22725,22722,0.026418952271342278,-0.03847618028521538,0.9861539006233215,2.4526312351226807,-7.965908050537109,0.46885964274406433,1.8956612348556519,3.9629783630371094,0.3045883774757385,-1.8164043426513672,-0.21886135637760162,2.194613456726074
125,22735,22732,-0.022744696587324142,-0.0017789171542972326,1.0515447854995728,3.35662579536438,-8.357633590698242,0.3821190893650055,1.8955827951431274,3.962785005569458,0.3047158718109131,-1.6066348552703857,-0.1700972616672516,2.1978976726531982
126,22745,22742,0.02992897294461727,-0.09723598510026932,1.0222562551498413,3.313803195953369,-9.526124000549316,0.5072141885757446,1.8950105905532837,3.9640491008758545,0.3048580288887024,-1.37962806224823,-0.18653452396392822,2.1817030906677246
127,22755,22752,-0.004036967642605305,-0.011436031199991703,1.0402066707611084,1.5108835697174072,-8.329438209533691,0.4793146252632141,1.8976242542266846,3.96398663520813,0.3025664985179901,-1.4806201457977295,-0.14193212985992432,2.2022855281829834
128,22765,22762,0.009812788106501102,-0.07119637727737427,1.0134910345077515,0.9621065258979797,-4.469891548156738,0.27829501032829285,1.898813247680664,3.9639780521392822,0.3024975657463074,-1.4222660064697266,-0.1116144135594368,2.214291572570801
129,22775,22772,-0.002545478055253625,-0.039105914533138275,1.0021469593048096,0.28934210538864136,-3.310638189315796,0.12820909917354584,1.8992388248443604,3.963895797729492,0.30249321460723877,-1.3488471508026123,-0.10031365603208542,2.2156262397766113
130,22785,22782,-0.00864767748862505,0.005439913831651211,1.0557690858840942,-0.0891730859875679,-3.2359862327575684,0.22527186572551727,1.901313304901123,3.963005542755127,0.30485156178474426,-1.3663508892059326,-0.10104643553495407,2.2195866107940674
131,22795,22792,0.07951956987380981,-0.13545019924640656,1.005138635635376,0.3642900586128235,-4.047739028930664,0.7107272744178772,1.9018456935882568,3.9634299278259277,0.30503836274147034,-1.313305139541626,-0.10159651190042496,2.2249367237091064
132,22805,22802,0.016051722690463066,-0.01759360171854496,1.0269607305526733,0.28112682700157166,-6.2484211921691895,0.3189488351345062,1.9021022319793701,3.9634852409362793,0.305147647857666,-1.2933255434036255,-0.09592139720916748,2.2339062690734863
133,22815,22812,0.011010782793164253,-0.1357303261756897,1.0212535858154297,1.2823760509490967,-7.865453243255615,0.2957720458507538,1.9033633470535278,3.962761878967285,0.305307537317276,-1.2970095872879028,-0.07638443261384964,2.2407188415527344
134,22825,22822,0.005034216679632664,-0.034767214208841324,1.0345321893692017,1.4767544269561768,-9.581933975219727,0.4944046437740326,1.9034526348114014,3.9632794857025146,0.3060707747936249,-1.1242965459823608,-0.12460751086473465,2.2244410514831543
135,22835,22832,-0.011400402523577213,0.03344374895095825,1.0402559041976929,1.7576847076416016,-11.478116989135742,0.5021535158157349,1.903292179107666,3.9632110595703125,0.3063114583492279,-1.0046578645706177,-0.08726996183395386,2.2327775955200195
136,22845,22842,-0.015524936839938164,0.01457445602864027,1.0415726900100708,1.602295994758606,-12.293325424194336,-0.2625528872013092,1.9040207862854004,3.9621121883392334,0.3065597116947174,-0.9310125708580017,-0.05542321503162384,2.241558790206909
137,22855,22852,0.0036961189471185207,0.05581740662455559,0.9867567420005798,1.5090771913528442,-10.080552101135254,-0.1938984990119934,1.9037387371063232,3.962228536605835,0.30589622259140015,-0.7983373999595642,-0.02818502113223076,2.240327835083008
138,22865,22862,-0.04521840065717697,0.10330995917320251,1.037334680557251,1.234511137008667,-9.0866117477417,0.3399854004383087,1.9061846733093262,3.9624085426330566,0.3061191141605377,-0.8310288190841675,-0.075853131711483,2.229888677597046
139,22875,22872,0.03002098575234413,0.0016830360982567072,0.9342344999313354,1.757628321647644,-7.092520713806152,0.3026389181613922,1.9074161052703857,3.9630534648895264,0.30645403265953064,-0.7523741722106934,-0.045571859925985336,2.23290753364563
140,22885,22882,-0.014258286915719509,0.029655151069164276,1.0410155057907104,3.0840389728546143,-8.100006103515625,-0.27566438913345337,1.9080537557601929,3.9622247219085693,0.30401766300201416,-0.5940731763839722,0.06972413510084152,2.252441644668579
141,22895,22892,-0.017986029386520386,0.044349055737257004,1.0149669647216797,1.398020625114441,-5.542779445648193,-0.0005632497486658394,1.9118658304214478,3.963585376739502,0.3039923906326294,-0.7536707520484924,0.03151996061205864,2.2451088428497314
142,22905,22902,0.02036054991185665,-0.0006442590965889394,1.0073893070220947,0.6672161221504211,-6.059319972991943,-0.0659903809428215,1.91258704662323,3.963547706604004,0.30425190925598145,-0.6007688641548157,0.050580039620399475,2.2439801692962646
143,22915,22912,-0.01744881458580494,0.12743614614009857,1.0051417350769043,0.0832352414727211,-7.458771705627441,-0.4516841173171997,1.9129606485366821,3.9635393619537354,0.3043287992477417,-0.45155391097068787,0.06092967838048935,2.2420876026153564
144,22925,22922,0.012315730564296246,0.024958694353699684,0.9620608687400818,-0.46611425280570984,-8.183065414428711,-0.7979939579963684,1.915729284286499,3.9624829292297363,0.30435484647750854,-0.49962350726127625,0.13159091770648956,2.2456202507019043
145,22935,22932,-0.03868761658668518,0.0629759207367897,1.094671607017517,-0.20279599726200104,-7.899405479431152,-0.9172345995903015,1.9155819416046143,3.962491273880005,0.30469414591789246,-0.23463021218776703,0.11902060359716415,2.2358880043029785
146,22945,22942,0.05476760119199753,-0.04069491848349571,0.9705598950386047,-0.6312844157218933,-7.233312606811523,-1.3330265283584595,1.9169025421142578,3.9623653888702393,0.30481237173080444,-0.21844740211963654,0.11115650087594986,2.2233922481536865
147,22955,22952,-0.023655500262975693,-0.007911257445812225,1.0555914640426636,-1.0963388681411743,-5.796140670776367,-1.23972749710083,1.919683814048767,3.9626877307891846,0.30594170093536377,-0.29196226596832275,0.014736095443367958,2.200592517852783
148,22965,22962,-0.061758723109960556,0.02141602709889412,1.0234659910202026,-2.1973929405212402,-4.945860385894775,-0.8588455319404602,1.9211539030075073,3.962355136871338,0.3061968684196472,-0.21636852622032166,0.06577426940202713,2.1927614212036133
149,22975,22972,-0.031683869659900665,0.09407829493284225,1.0336520671844482,-1.2879780530929565,-5.487011909484863,-0.7997151613235474,1.920710563659668,3.963287353515625,0.306669682264328,0.003718690015375614,0.03252755478024483,2.191913604736328
150,22985,22982,0.006191710941493511,0.02390744537115097,1.003341794013977,-1.2236175537109375,-5.976868152618408,-0.8189599514007568,1.9230610132217407,3.96443772315979,0.3079153895378113,-0.08016610890626907,0.0065488968975842,2.1878280639648438
151,22995,22992,0.006447287742048502,-0.04372195526957512,0.9943099021911621,-0.5324384570121765,-5.491686820983887,-0.9224335551261902,1.922770619392395,3.964456081390381,0.30845004320144653,0.1452535092830658,-0.0021301626693457365,2.181131362915039
152,23005,23002,-0.026598524302244186,0.024842772632837296,1.0035693645477295,0.40971848368644714,-5.077088356018066,-0.8472481966018677,1.92575204372406,3.966428279876709,0.3087548315525055,0.05451798066496849,0.0063887108117341995,2.178436517715454
153,23015,23012,-0.02504046820104122,-0.0033416086807847023,1.0082906484603882,0.45157042145729065,-3.8898088932037354,-0.5722129940986633,1.9268780946731567,3.9657580852508545,0.3087892234325409,0.11443591862916946,0.08763854950666428,2.1729836463928223
154,23025,23022,-0.006880986969918013,0.08193032443523407,0.939251720905304,-0.07750918716192245,-2.6208205223083496,-0.8646007776260376,1.926891803741455,3.9673233032226562,0.30929887294769287,0.27621257305145264,0.08073139935731888,2.178640127182007
155,23035,23032,-0.033677659928798676,0.13321173191070557,0.9872409105300903,0.692721426486969,-4.8921027183532715,-0.5240315198898315,1.9280630350112915,3.968658685684204,0.3096776604652405,0.2798232436180115,0.07335152477025986,2.187122344970703
156,23045,23042,-0.056408073753118515,-0.09712716937065125,1.0148146152496338,0.18168024718761444,-5.062653541564941,-1.5132240056991577,1.9294135570526123,3.9703168869018555,0.3100436329841614,0.36097925901412964,0.008703399449586868,2.1791934967041016
157,23055,23052,-0.15812671184539795,-0.06373699009418488,1.0891374349594116,-0.7671483755111694,-0.8340464234352112,-0.6416330933570862,1.9301692247390747,3.9714274406433105,0.31028833985328674,0.4382556974887848,-0.0034243366681039333,2.1802875995635986
158,23065,23062,-0.03248804435133934,-0.023350972682237625,1.0110273361206055,-1.1469680070877075,1.6931028366088867,-1.217751383781433,1.9338538646697998,3.9718565940856934,0.3104992210865021,0.16777518391609192,-0.016602346673607826,2.16601824760437
159,23075,23072,0.045893773436546326,0.06469053775072098,0.9594407081604004,-1.0473705530166626,2.9801101684570312,-0.380214124917984,1.9346816539764404,3.971985101699829,0.3109683394432068,0.18499910831451416,0.04146819934248924,2.1659765243530273
160,23085,23082,0.015315406024456024,0.22399553656578064,0.979751467704773,-0.8353502154350281,1.6402034759521484,0.02554970793426037,1.935193419456482,3.9720189571380615,0.3110449016094208,0.27984192967414856,0.020579015836119652,2.164159059524536
161,23095,23092,0.0031127766706049442,-0.07213041186332703,0.9703876972198486,-0.16790199279785156,-0.8831138610839844,-0.49587491154670715,1.937477469444275,3.9722683429718018,0.31132394075393677,0.1737222522497177,0.008853458799421787,2.1596527099609375
162,23105,23102,-0.012000303715467453,-0.06100437417626381,1.004049301147461,-0.626471996307373,-3.008234739303589,-0.08124483376741409,1.9385323524475098,3.9723610877990723,0.3117694556713104,0.25942233204841614,0.0010560883674770594,2.1594884395599365
163,23115,23112,0.0016934990417212248,-0.0019868509843945503,0.9934530258178711,-1.4618366956710815,-5.579109191894531,-0.5507925152778625,1.938335657119751,3.972435235977173,0.312170147895813,0.37954944372177124,-0.017597228288650513,2.15140438079834
164,23125,23122,0.018977655097842216,-0.010913209989666939,0.9693052768707275,-2.3518526554107666,-7.385682582855225,-0.4743576943874359,1.9401743412017822,3.9721291065216064,0.31247109174728394,0.3805461823940277,-0.05342720448970795,2.1478378772735596
165,23135,23132,-0.03561556711792946,0.10786445438861847,0.971117377281189,-3.3129379749298096,-6.41922664642334,-0.7732048630714417,1.9411640167236328,3.971435785293579,0.312843382358551,0.4575449526309967,-0.0315038301050663,2.1323108673095703
166,23145,23142,-0.04860356077551842,0.09809949994087219,0.9926016926765442,-2.690251588821411,-4.406169891357422,-0.505683958530426,1.9428470134735107,3.971546173095703,0.31305161118507385,0.43329834938049316,-0.08724508434534073,2.1274397373199463
167,23155,23152,0.07099321484565735,-0.0011724467622116208,0.9195600748062134,-1.8602879047393799,-0.6981222033500671,-0.18782566487789154,1.9439456462860107,3.9716827869415283,0.31059974431991577,0.4997822046279907,-0.12852567434310913,2.126939296722412
168,23165,23162,0.02932961843907833,0.03570974990725517,0.9393408298492432,-0.8641979694366455,0.0827106162905693,0.19562199711799622,1.945143461227417,3.9712085723876953,0.3106549382209778,0.49005648493766785,-0.14262327551841736,2.1256706714630127
169,23175,23172,-0.008243760094046593,-0.00568752596154809,0.9919518828392029,-0.35703060030937195,1.095455527305603,-0.04228273406624794,1.9469313621520996,3.9707677364349365,0.31065577268600464,0.4509257674217224,-0.14936991035938263,2.1194052696228027
170,23185,23182,-0.04624370485544205,0.10067801922559738,0.963843822479248,0.5255548357963562,1.3851407766342163,0.6846575736999512,1.947126865386963,3.970046043395996,0.3101702332496643,0.5599077343940735,-0.06680355966091156,2.1045267581939697
171,23195,23192,-0.0187082476913929,0.17971596121788025,0.9553881287574768,0.18263301253318787,1.9715548753738403,1.3935596942901611,1.949183702468872,3.969736337661743,0.31009411811828613,0.4843171536922455,-0.07066497206687927,2.1170308589935303
172,23205,23202,-0.016435785219073296,0.19583258032798767,0.998053789138794,0.47419530153274536,2.1067311763763428,1.384626865386963,1.9497584104537964,3.9697065353393555,0.31012144684791565,0.5479692816734314,-0.0712275356054306,2.1287331581115723
173,23215,23212,-0.0008441496756859124,0.06118408590555191,0.9984961748123169,-0.4614439308643341,1.4556220769882202,0.8583635687828064,1.9510226249694824,3.969993829727173,0.3099748492240906,0.4628501534461975,-0.08051102608442307,2.1379153728485107
174,23225,23222,-0.07686040550470352,0.017570482566952705,1.041918396949768,-0.9629305601119995,1.1329110860824585,0.9534280896186829,1.9528719186782837,3.9700822830200195,0.3098214268684387,0.4117357134819031,-0.09442438185214996,2.1459174156188965
175,23235,23232,-0.0013478792971000075,-0.05117183178663254,0.9837151765823364,-2.036752939224243,1.2146198749542236,1.240086317062378,1.9526889324188232,3.9700088500976562,0.30991190671920776,0.5822852849960327,-0.1257759928703308,2.1593940258026123
176,23245,23242,-0.0741211324930191,0.1007983535528183,1.0513765811920166,-3.1994683742523193,0.7641216516494751,1.780997633934021,1.9546984434127808,3.970201015472412,0.30973848700523376,0.4471399486064911,-0.17219118773937225,2.179077386856079
177,23255,23252,0.029253190383315086,-0.022788837552070618,0.9613942503929138,-2.0783281326293945,1.1423801183700562,1.556872010231018,1.9547654390335083,3.9698069095611572,0.3140372633934021,0.5440137982368469,-0.2130342274904251,2.1884982585906982
178,23265,23262,-0.05227874591946602,0.04882345348596573,1.068709135055542,-0.019548365846276283,2.1080551147460938,1.7257341146469116,1.9556525945663452,3.969514846801758,0.3142431974411011,0.48275071382522583,-0.21732302010059357,2.204753875732422
179,23275,23272,-0.003275464754551649,-0.002876672428101301,0.9899401664733887,1.364423155784607,3.3845906257629395,2.1062169075012207,1.9557793140411377,3.9693386554718018,0.31454020738601685,0.5302906632423401,-0.20130299031734467,2.232421636581421
180,23285,23282,0.036529142409563065,-0.03725282475352287,0.9529407620429993,2.607956647872925,2.2053751945495605,1.6631571054458618,1.9576057195663452,3.9701125621795654,0.3137582242488861,0.43007615208625793,-0.16563549637794495,2.250166893005371
181,23295,23292,-0.001693654339760542,0.0050198230892419815,0.9842523336410522,2.559419631958008,2.77559232711792,2.079843282699585,1.959834098815918,3.971400260925293,0.313864141702652,0.3344760239124298,-0.2727801203727722,2.290743827819824
182,23305,23302,-0.02527979016304016,-0.015127893537282944,1.0729782581329346,3.2272279262542725,2.0127460956573486,0.9207243919372559,1.9610508680343628,3.9715614318847656,0.31404632329940796,0.3436124622821808,-0.20888200402259827,2.3009917736053467
183,23315,23312,0.05060320347547531,-0.03401299566030502,0.9816341400146484,3.2536463737487793,2.901545763015747,1.93449068069458,1.9617325067520142,3.971438407897949,0.3151928782463074,0.3627093434333801,-0.15380670130252838,2.310391664505005
184,23325,23322,-0.03492506220936775,0.09519248455762863,1.017945408821106,3.7852120399475098,0.47009196877479553,2.2630414962768555,1.962656021118164,3.971149444580078,0.31545063853263855,0.39668938517570496,-0.07021094858646393,2.3259470462799072
185,23335,23332,-0.034204382449388504,0.14533454179763794,0.9796203970909119,3.098870038986206,0.451570063829422,2.0316076278686523,1.962617039680481,3.9709832668304443,0.31575384736061096,0.48563000559806824,-0.010422592051327229,2.3416295051574707
186,23345,23342,0.0274429339915514,0.10535486787557602,0.9579781889915466,1.2559698820114136,1.5632790327072144,2.1912572383880615,1.9628009796142578,3.9708874225616455,0.3170092701911926,0.5386018753051758,0.022670943289995193,2.3610754013061523
187,23355,23352,-0.012268824502825737,0.02371572144329548,1.0163835287094116,0.020384302362799644,3.0481669902801514,1.8412128686904907,1.9646310806274414,3.971306085586548,0.31728699803352356,0.35051506757736206,-0.04164845123887062,2.392435312271118
188,23365,23362,0.006944254040718079,-0.022543741390109062,0.9941365718841553,-1.3961750268936157,4.387107849121094,1.6003084182739258,1.9646633863449097,3.9712202548980713,0.3176185190677643,0.3747447729110718,-0.048164818435907364,2.408116340637207
189,23375,23372,0.019564030691981316,-0.03492750599980354,0.976326584815979,-0.8965129852294922,3.3156015872955322,1.932173490524292,1.9664478302001953,3.9709091186523438,0.3178117275238037,0.23406729102134705,-0.062334317713975906,2.4198176860809326
190,23385,23382,0.006069654133170843,-0.0025047643575817347,0.9999098181724548,-0.7040429711341858,4.246464729309082,1.6639834642410278,1.9669502973556519,3.9711170196533203,0.32233551144599915,0.2650943994522095,-0.07088996469974518,2.437913179397583
191,23395,23392,0.029323861002922058,-0.06297776848077774,0.9420694708824158,0.6901229619979858,3.249110698699951,1.7602545022964478,1.967315435409546,3.9708445072174072,0.32290101051330566,0.28519436717033386,-0.061026617884635925,2.4550578594207764
192,23405,23402,0.00274560134857893,-0.01914725825190544,0.9776204824447632,1.311540126800537,2.0494461059570312,1.6306389570236206,1.969138741493225,3.9711179733276367,0.3233460783958435,0.171186625957489,-0.10351342707872391,2.4704842567443848
193,23415,23412,-0.0339752659201622,0.09715757519006729,0.9829587936401367,1.8763610124588013,1.251600742340088,1.6444389820098877,1.9691845178604126,3.9701666831970215,0.3239513337612152,0.22380992770195007,0.01557029876857996,2.47727370262146
194,23425,23422,0.01733381114900112,0.13834087550640106,0.8985360264778137,1.6394206285476685,1.1155041456222534,0.900917649269104,1.9694054126739502,3.970841884613037,0.32444584369659424,0.24904762208461761,-0.03739351034164429,2.4940879344940186
195,23435,23432,0.031539589166641235,0.10727716237306595,0.9240977168083191,2.529062271118164,0.2890789806842804,0.7014092803001404,1.9704174995422363,3.9708313941955566,0.3248472511768341,0.20470353960990906,0.0011631528614088893,2.497459888458252
196,23445,23442,0.047925062477588654,-0.07744792848825455,0.9540192484855652,2.0590662956237793,-1.3650860786437988,1.1920145750045776,1.9717326164245605,3.9707021713256836,0.3230813145637512,0.09802442789077759,0.027114054188132286,2.515864133834839
197,23455,23452,-0.08864320814609528,0.04522283747792244,0.9524720311164856,1.6271620988845825,-0.21908344328403473,1.5085142850875854,1.9717720746994019,3.9706709384918213,0.32330724596977234,0.19853873550891876,0.06650014966726303,2.5201268196105957
198,23465,23462,0.017682427540421486,-0.15796248614788055,0.9636067152023315,0.9373573064804077,0.06556273251771927,1.8601315021514893,1.9719587564468384,3.970374822616577,0.32344651222229004,0.20456427335739136,0.08617177605628967,2.539314031600952
199,23475,23472,0.043337952345609665,-0.1087488904595375,1.0273373126983643,-0.366668701171875,2.062816619873047,1.3555859327316284,1.9729677438735962,3.97041916847229,0.32351362705230713,0.1847689300775528,0.08747275918722153,2.5571696758270264
200,23485,23482,0.036482103168964386,-0.05397665128111839,0.922507643699646,-1.9942444562911987,3.7341721057891846,0.8539618253707886,1.9737269878387451,3.970216989517212,0.31953203678131104,0.12699370086193085,0.06874904036521912,2.5684902667999268
201,23495,23492,0.06112941354513168,0.015726814046502113,0.9456021785736084,-3.257661819458008,4.750776290893555,0.971871018409729,1.9746122360229492,3.9700071811676025,0.31929999589920044,0.04536116495728493,0.025649718940258026,2.5841782093048096
202,23505,23502,0.04530268907546997,-0.02475230023264885,0.9505015015602112,-3.250401258468628,4.6814494132995605,0.8703474402427673,1.9759182929992676,3.9719858169555664,0.3190261125564575,-0.03332282975316048,-0.10116583853960037,2.6062684059143066
203,23515,23512,0.009394325315952301,-0.04261785373091698,0.9842126369476318,-1.4619524478912354,4.901523590087891,0.7019687294960022,1.976387858390808,3.9725565910339355,0.3188556730747223,-0.030390474945306778,-0.1226014494895935,2.6209726333618164
204,23525,23522,9.523839980829507e-05,-0.04147057980298996,0.9697304368019104,0.10689262300729752,4.348519325256348,0.06797414273023605,1.9767816066741943,3.9725027084350586,0.3185819089412689,-0.011729859746992588,-0.11037131398916245,2.623061180114746
205,23535,23532,-0.015345106832683086,-0.00490986555814743,1.0227247476577759,1.7310045957565308,3.5909650325775146,-0.007154732011258602,1.9765598773956299,3.972167730331421,0.31829747557640076,0.0013763606548309326,-0.07682371884584427,2.6216607093811035
206,23545,23542,-0.04644588753581047,0.07394526898860931,0.9981703758239746,3.2533838748931885,3.319782018661499,0.0021485367324203253,1.976988673210144,3.972703695297241,0.3149248957633972,0.026203304529190063,-0.09469669312238693,2.626612663269043
207,23555,23552,-0.04112105444073677,0.08614704757928848,1.0437973737716675,4.391752243041992,3.644385576248169,-0.47812530398368835,1.977006435394287,3.972134590148926,0.3143936097621918,0.039407894015312195,-0.007874181494116783,2.623162031173706
208,23565,23562,-0.05357224494218826,0.04002882540225983,1.0157787799835205,4.489256381988525,4.680919647216797,-0.387771874666214,1.9790765047073364,3.97182559967041,0.3138118386268616,-0.1240929663181305,0.08536700904369354,2.5990984439849854
209,23575,23572,0.011324995197355747,-0.012333644554018974,0.9906019568443298,3.33925199508667,6.029243469238281,-0.1642484962940216,1.9786735773086548,3.969252109527588,0.31330606341362,-0.1460474580526352,0.15787538886070251,2.5745415687561035
210,23585,23582,-0.038831792771816254,0.09513463824987411,1.0421788692474365,1.3803402185440063,6.728206634521484,-0.7882400751113892,1.979192852973938,3.968804359436035,0.31443527340888977,-0.19959639012813568,0.19306820631027222,2.566343069076538
211,23595,23592,0.016413772478699684,-0.0038969144225120544,0.9579460024833679,-0.9813604354858398,5.8750481605529785,-1.309690237045288,1.979842185974121,3.9695541858673096,0.314064621925354,-0.22997498512268066,0.11602678894996643,2.5717670917510986
212,23605,23602,-0.014491493813693523,0.05218125879764557,1.0130294561386108,-2.048948049545288,4.589069843292236,-1.3397856950759888,1.9808158874511719,3.970355272293091,0.3136506676673889,-0.31892096996307373,0.10648391395807266,2.5573506355285645
213,23615,23612,0.022860994562506676,0.029569515958428383,0.9706351161003113,-3.015362024307251,3.7114784717559814,-1.0722304582595825,1.9818824529647827,3.969967842102051,0.31558987498283386,-0.39365559816360474,0.148171067237854,2.544201612472534
214,23625,23622,-0.020214393734931946,0.02929779328405857,1.046310544013977,-2.8397324085235596,2.9145591259002686,-1.2366517782211304,1.9827649593353271,3.9705119132995605,0.3153650760650635,-0.37603408098220825,0.09181151539087296,2.5348494052886963
215,23635,23632,0.020069848746061325,-0.036171454936265945,1.0257519483566284,-1.2160542011260986,1.6007510423660278,-1.1621519327163696,1.982787847518921,3.9705088138580322,0.3151305615901947,-0.3354003131389618,0.07073727995157242,2.5195064544677734
216,23645,23642,0.02826782874763012,-0.018046503886580467,1.002345085144043,-0.44551587104797363,1.1243455410003662,-1.0026233196258545,1.984470248222351,3.9706015586853027,0.31319481134414673,-0.44186004996299744,0.06200079247355461,2.5078232288360596
217,23655,23652,-0.06968891620635986,0.06920172274112701,1.0457080602645874,0.520401120185852,0.7385706901550293,-1.0938079357147217,1.985150933265686,3.9711227416992188,0.3128741383552551,-0.42531654238700867,0.07755832374095917,2.498016595840454
218,23665,23662,0.008977621793746948,0.017683714628219604,1.0125445127487183,0.5684036612510681,1.188565731048584,-1.0049028396606445,1.9874287843704224,3.971163272857666,0.3124207854270935,-0.6059530973434448,0.08890853822231293,2.478266477584839
219,23675,23672,0.02131717838346958,-0.0045198556035757065,1.025428056716919,1.7998216152191162,0.007986796088516712,-1.1457220315933228,1.9860737323760986,3.971485137939453,0.31503596901893616,-0.5209348201751709,0.02999374270439148,2.4823148250579834
220,23685,23682,0.0034023476764559746,-0.0443321093916893,1.0302157402038574,1.126242756843567,-1.015150785446167,-1.0524235963821411,1.9873919486999512,3.971776247024536,0.31489187479019165,-0.5725737810134888,0.06692757457494736,2.478058099746704
221,23695,23692,0.03977807238698006,-0.00823593232780695,1.0489580631256104,1.403038501739502,-3.5061593055725098,-1.442922592163086,1.9886929988861084,3.973358154296875,0.3147676885128021,-0.5914077758789062,0.10297858715057373,2.4971773624420166
222,23705,23702,0.03420977294445038,-0.037396710366010666,1.0078725814819336,-0.3206137716770172,-4.315771579742432,-1.7750383615493774,1.988415002822876,3.973487138748169,0.3148927688598633,-0.42582425475120544,0.1102023720741272,2.4831435680389404
223,23715,23712,-0.039566025137901306,0.021034736186265945,1.0787090063095093,-1.4261548519134521,-5.5483078956604,-2.085333824157715,1.9889718294143677,3.9728565216064453,0.3156324028968811,-0.3319067358970642,0.09600567072629929,2.444790840148926
224,23725,23722,0.03225359693169594,-0.034261882305145264,0.9930135607719421,-0.3971707820892334,-5.530629634857178,-2.0837156772613525,1.9899893999099731,3.9730513095855713,0.31570151448249817,-0.31324151158332825,0.09326430410146713,2.4236361980438232
225,23735,23732,0.02304122783243656,0.007487187162041664,1.0457954406738281,0.08733484894037247,-5.952845573425293,-1.5417929887771606,1.9903253316879272,3.974090099334717,0.3158743679523468,-0.22428269684314728,0.0954841896891594,2.4288837909698486
226,23745,23742,0.017404230311512947,0.042022932320833206,1.0541884899139404,-0.06679395586252213,-1.2847912311553955,-1.4167441129684448,1.991410493850708,3.974151611328125,0.3163479268550873,-0.17938832938671112,0.1749921441078186,2.4174489974975586
227,23755,23752,0.04039866477251053,-0.13359299302101135,1.064719557762146,-0.7396145462989807,0.974885106086731,-1.9709713459014893,1.9919501543045044,3.9730336666107178,0.31656333804130554,-0.3411097526550293,0.1587110012769699,2.372819662094116
228,23765,23762,0.04715924337506294,-0.1362873613834381,0.9556601047515869,-1.4793421030044556,1.8858317136764526,-2.256157398223877,1.9945400953292847,3.9721741676330566,0.31674492359161377,-0.2778838276863098,0.057755108922719955,2.354918956756592
229,23775,23772,-0.022012198343873024,0.05497000738978386,1.0762197971343994,-2.307523727416992,2.176760673522949,-2.450629234313965,1.9946188926696777,3.974320650100708,0.31650689244270325,-0.23067380487918854,0.10596823692321777,2.3588645458221436
230,23785,23782,0.05545593053102493,-0.04125184193253517,0.948255717754364,-2.7904999256134033,1.0434116125106812,-2.7886874675750732,1.9955766201019287,3.9750473499298096,0.3167819380760193,-0.42213138937950134,0.055026810616254807,2.3399717807769775
231,23795,23792,0.12746647000312805,-0.02985568530857563,0.982265830039978,-2.716752529144287,-0.18653768301010132,-2.4482200145721436,1.998173713684082,3.975281238555908,0.31695544719696045,-0.43242326378822327,-0.00078778708120808,2.3139209747314453
232,23805,23802,0.011155864223837852,0.07799132168292999,0.9764189720153809,-2.0275113582611084,-2.417966842651367,-2.6608784198760986,1.998091220855713,3.9764745235443115,0.3173416256904602,-0.2945590615272522,-0.03819502517580986,2.306243896484375
233,23815,23812,-0.008580678142607212,0.012510421685874462,0.977626383304596,-0.9336628317832947,-4.350264549255371,-3.021089553833008,1.998992681503296,3.9765090942382812,0.31812137365341187,-0.37781623005867004,-0.05958864837884903,2.2703986167907715
234,23825,23822,0.02922593057155609,0.08777043968439102,0.9982913136482239,0.6885568499565125,-4.672709941864014,-3.2233567237854004,2.000662326812744,3.976591110229492,0.31833478808403015,-0.28906407952308655,-0.06292040646076202,2.2361092567443848
235,23835,23832,0.03632921352982521,0.019735459238290787,0.9801503419876099,1.8703118562698364,-5.239034652709961,-3.607985734939575,2.001614570617676,3.976673126220703,0.3185507357120514,-0.26761701703071594,-0.03235991299152374,2.2033236026763916
236,23845,23842,0.031706374138593674,-0.027103343978524208,0.965149998664856,1.433345913887024,-5.2344841957092285,-3.5007734298706055,2.0031166076660156,3.976797103881836,0.3181486427783966,-0.16266384720802307,-0.004046914633363485,2.1688854694366455
237,23855,23852,-0.009324752725660801,0.006341253407299519,1.0217243432998657,1.652608871459961,-4.166463851928711,-3.6102702617645264,2.0038347244262695,3.976616382598877,0.3183133602142334,-0.14774885773658752,0.023704377934336662,2.1070573329925537
238,23865,23862,-0.006969464011490345,-0.018131019547581673,0.9758100509643555,0.1918705850839615,-2.9567625522613525,-3.715456008911133,2.005030632019043,3.975419044494629,0.3184252977371216,-0.15094466507434845,0.036316100507974625,2.0760347843170166
239,23875,23872,0.008591758087277412,-0.048490460962057114,1.005679965019226,-0.10268634557723999,-2.572638988494873,-3.4481728076934814,2.0059118270874023,3.9756979942321777,0.3177184462547302,-0.07583072781562805,0.03711578622460365,2.04061222076416
240,23885,23882,0.010450709611177444,-0.0417240709066391,0.9777188301086426,-1.4637616872787476,-0.02829970233142376,-3.53226637840271,2.006359577178955,3.975771427154541,0.3178211450576782,-0.05578155815601349,0.01843133382499218,1.9985294342041016
241,23895,23892,0.021880827844142914,-0.023535504937171936,0.9615318775177002,-2.3403422832489014,0.5171160101890564,-3.2842977046966553,2.0063586235046387,3.9755659103393555,0.31793442368507385,0.029669832438230515,-0.018014971166849136,1.9609103202819824
242,23905,23902,0.0056197610683739185,-0.01570136472582817,0.9845364093780518,-2.5362937450408936,0.9949958324432373,-2.854137897491455,2.0079832077026367,3.9757936000823975,0.3182700276374817,-0.04383678734302521,-0.03329181671142578,1.9597835540771484
243,23915,23912,0.008212827146053314,-0.1460048407316208,1.0109679698944092,-2.3122551441192627,1.208301305770874,-3.531067371368408,2.0091030597686768,3.9758341312408447,0.3182857036590576,-0.03796127438545227,-0.07253019511699677,1.9246991872787476
244,23925,23922,-0.015481756068766117,-0.04688860476016998,0.9997305870056152,-1.8109428882598877,1.712709903717041,-3.1847519874572754,2.0095555782318115,3.975914716720581,0.3182983100414276,-0.03943496197462082,-0.1021738275885582,1.894020915031433
245,23935,23932,0.017625464126467705,-0.05648452043533325,0.9573944211006165,0.4457044005393982,1.079659342765808,-3.2662596702575684,2.010971784591675,3.975850820541382,0.31823861598968506,-0.126132071018219,-0.1156172901391983,1.8613382577896118
246,23945,23942,-0.022489264607429504,0.012358223088085651,1.0112624168395996,1.8622034788131714,0.4014226496219635,-3.0652377605438232,2.0108118057250977,3.977092981338501,0.3168484568595886,-0.05046162009239197,-0.10095740109682083,1.860291600227356
247,23955,23952,0.05484532192349434,-0.05268482491374016,0.9710180163383484,1.6445738077163696,3.7539103031158447,-3.084139347076416,2.012385129928589,3.977038860321045,0.31667637825012207,-0.15253132581710815,-0.07046658545732498,1.8361972570419312
248,23965,23962,0.09893848747015,-0.15320353209972382,0.9759736657142639,2.652982711791992,-2.755457639694214,-2.892409086227417,2.013523817062378,3.976966142654419,0.31655892729759216,-0.07114830613136292,-0.10833659023046494,1.805902123451233
249,23975,23972,0.10811985284090042,-0.16487619280815125,0.9475080966949463,2.5447006225585938,-4.601695537567139,-2.6489648818969727,2.0136754512786865,3.9772143363952637,0.3156321048736572,-0.10964910686016083,-0.06076755002140999,1.8099339008331299
250,23985,23982,-0.002879694104194641,-0.1498965471982956,1.0118985176086426,1.9933445453643799,-4.923609733581543,-2.463942527770996,2.014031410217285,3.9782912731170654,0.31542858481407166,-0.02588329277932644,-0.014288367703557014,1.7779595851898193
251,23995,23992,0.03394260257482529,-0.08012279123067856,0.9520388245582581,1.2313309907913208,-3.0212807655334473,-2.133789300918579,2.014237642288208,3.9779531955718994,0.3151838779449463,0.06623461097478867,0.09621349722146988,1.7916970252990723
252,24005,24002,-0.04566691443324089,-0.04512118548154831,1.0324136018753052,-0.030827360227704048,-2.02392840385437,-2.412660837173462,2.0156657695770264,3.9792141914367676,0.3159325122833252,0.05919777229428291,0.037224963307380676,1.7776639461517334
253,24015,24012,0.02781905047595501,-0.06415092200040817,0.9768365025520325,-2.7827870845794678,2.671072006225586,-2.915250539779663,2.017080783843994,3.9813761711120605,0.31570062041282654,0.004836542997509241,0.03050987608730793,1.7873011827468872
254,24025,24022,0.1078493520617485,-0.05854334309697151,0.9939789772033691,-3.742764949798584,4.305695056915283,-2.640216112136841,2.01877760887146,3.9813826084136963,0.31541240215301514,-0.09772758930921555,-0.010471762157976627,1.7636730670928955
255,24035,24032,0.13252002000808716,-0.16401173174381256,0.9995652437210083,-2.892618417739868,4.110293865203857,-1.9826953411102295,2.020334005355835,3.98149037361145,0.3151319921016693,-0.07216653227806091,-0.06039293482899666,1.738808512687683
256,24045,24042,0.07949882000684738,-0.1462487280368805,0.9782230257987976,-2.001478433609009,1.902502179145813,-2.2260568141937256,2.020565986633301,3.980828046798706,0.3145562410354614,-0.11477954685688019,-0.09848622232675552,1.697020173072815
257,24055,24052,-0.0007012249552644789,0.022492030635476112,1.015367865562439,-0.7505695819854736,0.26652517914772034,-1.8615939617156982,2.021604061126709,3.9814505577087402,0.31428781151771545,-0.05642946437001228,-0.12229456752538681,1.6841371059417725
258,24065,24062,0.047745510935783386,-0.005615439265966415,0.9672660231590271,1.9544305801391602,-2.8789737224578857,-2.461721420288086,2.0220274925231934,3.981509208679199,0.31412944197654724,0.038659121841192245,-0.10956183075904846,1.6487759351730347
259,24075,24072,0.013595636002719402,0.00687473826110363,1.025685429573059,4.5165696144104,-4.0972900390625,-2.0180890560150146,2.0218145847320557,3.981536626815796,0.31505557894706726,0.008231347426772118,-0.05945713445544243,1.6289942264556885
260,24085,24082,0.026306038722395897,-0.016737010329961777,1.069675087928772,4.509237766265869,-3.1499085426330566,-1.826367735862732,2.0233116149902344,3.9810471534729004,0.3148697018623352,0.0007072120206430554,-0.05801592394709587,1.6280851364135742
261,24095,24092,0.030140887945890427,-0.016410699114203453,1.0174423456192017,3.7334864139556885,-1.2390034198760986,-1.874912977218628,2.024592161178589,3.983258008956909,0.31467804312705994,-0.019513169303536415,-0.052925754338502884,1.6489681005477905
262,24105,24102,-0.018224259838461876,0.03880572319030762,1.0268878936767578,2.204935312271118,1.6691806316375732,-2.3901007175445557,2.025900363922119,3.983996868133545,0.31502267718315125,0.07271708548069,0.01320631243288517,1.633859634399414
263,24115,24112,0.031845610588788986,-0.008855386637151241,0.9788248538970947,0.14386628568172455,1.5252679586410522,-2.1991546154022217,2.0257151126861572,3.9831409454345703,0.31502169370651245,-0.01824365369975567,0.051010459661483765,1.596814751625061
264,24125,24122,0.00102238729596138,0.012229016982018948,1.030147910118103,-0.8474104404449463,3.130788564682007,-2.1197633743286133,2.0272741317749023,3.982611894607544,0.314908504486084,-0.11446243524551392,0.05806269496679306,1.6063671112060547
265,24135,24132,0.010840448550879955,-0.03377015143632889,0.9988141655921936,-0.8558756709098816,3.215075731277466,-2.1290650367736816,2.0291106700897217,3.984262228012085,0.3147641718387604,-0.14767470955848694,0.04972315579652786,1.5950895547866821
266,24145,24142,0.011717956513166428,-0.021548738703131676,1.0036070346832275,-0.913159966468811,1.31887948513031,-1.952746033668518,2.0301003456115723,3.9840261936187744,0.31656864285469055,-0.08984211832284927,0.04488196596503258,1.556528925895691
267,24155,24152,-0.04502221941947937,0.11794043332338333,1.006827712059021,0.31222230195999146,-1.0562397241592407,-1.6290624141693115,2.0295658111572266,3.984069347381592,0.3167749047279358,-0.23187148571014404,-0.027341468259692192,1.5440117120742798
268,24165,24162,-0.009171349927783012,0.02490357682108879,1.0207387208938599,-0.31482625007629395,-1.7621197700500488,-1.1237475872039795,2.0308310985565186,3.9849650859832764,0.3166649639606476,-0.10779902338981628,-0.01325241569429636,1.541821002960205
269,24175,24172,0.0001126373463193886,0.004195236600935459,0.9877606630325317,1.6250576972961426,-3.3029439449310303,-1.3660571575164795,2.030740737915039,3.985412359237671,0.32187020778656006,-0.06070501729846001,0.009110122919082642,1.5197993516921997
270,24185,24182,0.019981440156698227,-0.029060199856758118,0.9848549365997314,2.448350191116333,-2.6277406215667725,-1.2367122173309326,2.0307295322418213,3.984264850616455,0.3223381042480469,0.00048469615285284817,0.04854336380958557,1.505604863166809
271,24195,24192,-0.0656859502196312,-0.047158122062683105,1.0754098892211914,2.7787041664123535,-1.3607816696166992,-1.2676259279251099,2.0313193798065186,3.984088897705078,0.32276245951652527,0.12092912942171097,0.020785577595233917,1.494089126586914
272,24205,24202,-0.05797886848449707,-0.12463854998350143,1.0209288597106934,2.264974594116211,0.3517914116382599,-1.096399188041687,2.031052350997925,3.9846456050872803,0.32013463973999023,0.007349993567913771,0.07887382805347443,1.4823614358901978
273,24215,24212,-0.04469078406691551,-0.016762271523475647,1.0352205038070679,0.6385654807090759,3.230090856552124,-1.0212795734405518,2.0332694053649902,3.9834041595458984,0.3203588128089905,0.0994630753993988,0.12247125059366226,1.4401040077209473
274,24225,24222,-0.01671403832733631,0.10244102776050568,0.9777015447616577,-0.16176748275756836,3.994455575942993,-0.970634400844574,2.033557415008545,3.9833319187164307,0.3207091987133026,0.06166777387261391,0.06642519682645798,1.4284659624099731
275,24235,24232,0.030028896406292915,-0.0754798874258995,0.9646007418632507,-1.2148051261901855,4.3603034019470215,-0.7912708520889282,2.0342953205108643,3.9849143028259277,0.3167285919189453,0.08835937827825546,0.07497639954090118,1.4439055919647217
276,24245,24242,0.04743587598204613,-0.015366989187896252,0.9763208031654358,-1.444756031036377,3.2553114891052246,-1.0325489044189453,2.034660577774048,3.984992027282715,0.3167707324028015,0.09612638503313065,0.0698847621679306,1.4369343519210815
277,24255,24252,-0.000949739245697856,0.01218810211867094,0.9920986890792847,-0.5106284022331238,2.686002016067505,-0.5574906468391418,2.034273624420166,3.9843413829803467,0.316784143447876,0.03731206804513931,0.06344574689865112,1.4153202772140503
278,24265,24262,0.011307841166853905,-0.02738511562347412,0.9628567695617676,0.5739595890045166,2.599923610687256,-0.34388136863708496,2.035550355911255,3.9838435649871826,0.31675925850868225,-0.23618297278881073,-0.0027887423057109118,1.3761327266693115
279,24275,24272,0.008100337348878384,-0.010679438710212708,0.9777897000312805,1.792707085609436,1.6313532590866089,-0.24666449427604675,2.038543462753296,3.984323263168335,0.3170064389705658,-0.17114755511283875,0.03142097592353821,1.3765636682510376
280,24285,24282,0.008717906661331654,-0.016506902873516083,0.9808328151702881,2.6556944847106934,0.2105982005596161,-0.3863105773925781,2.038740634918213,3.9855198860168457,0.31704485416412354,-0.09718796610832214,0.07827112823724747,1.4145630598068237
281,24295,24292,-0.055219683796167374,0.06541460007429123,1.0103529691696167,3.2653374671936035,-1.0207860469818115,-0.6933318376541138,2.0396194458007812,3.98870849609375,0.31712350249290466,-0.23529814183712006,0.06089618057012558,1.4908831119537354
282,24305,24302,-0.01716194674372673,0.013022007420659065,0.9834834933280945,3.8051342964172363,-1.9417821168899536,-1.3363525867462158,2.0415894985198975,3.9889473915100098,0.31972113251686096,-0.26296335458755493,0.05686983838677406,1.4782311916351318
283,24315,24312,-0.03355792909860611,0.06191381812095642,1.0683979988098145,3.7668991088867188,-3.2507259845733643,-1.7222908735275269,2.042724847793579,3.988933801651001,0.31975746154785156,-0.11557698994874954,0.13942018151283264,1.4597538709640503
284,24325,24322,0.024946410208940506,-0.018528319895267487,0.9549764394760132,3.1373090744018555,-2.4963574409484863,-0.9078681468963623,2.0422568321228027,3.989353895187378,0.3200170397758484,-0.13307246565818787,0.14002934098243713,1.4670095443725586
285,24335,24332,-0.02310173586010933,0.06186920031905174,0.9659047722816467,2.8323216438293457,-2.5731048583984375,-0.9926050305366516,2.043347120285034,3.9892971515655518,0.3193764090538025,-0.07382215559482574,0.1367749124765396,1.4325193166732788
286,24345,24342,-0.02997242845594883,0.1131191998720169,0.9393265843391418,2.00099515914917,-1.7240054607391357,-0.8960676193237305,2.043534755706787,3.988797187805176,0.31941452622413635,-0.08958080410957336,0.2048926055431366,1.3997888565063477
287,24355,24352,-0.0493246465921402,0.11894342303276062,0.9681128263473511,1.7537298202514648,-0.8754029870033264,-1.1106270551681519,2.0442728996276855,3.9884607791900635,0.3194063901901245,0.10070285946130753,0.25482532382011414,1.3965851068496704
288,24365,24362,0.002444224199280143,-0.01588885858654976,0.9604398608207703,1.52880859375,-0.1775548756122589,-1.3818002939224243,2.0430586338043213,3.9872868061065674,0.3195030093193054,-0.038115646690130234,0.29383018612861633,1.355432391166687
289,24375,24372,-0.0011849062284454703,0.0009461501031182706,1.0129241943359375,1.5169739723205566,1.3503562211990356,-1.3907759189605713,2.0454723834991455,3.987287759780884,0.3229949176311493,0.050252195447683334,0.255807489156723,1.3447397947311401
290,24385,24382,-0.0833498015999794,-0.026286467909812927,1.0242499113082886,1.7178329229354858,2.218538522720337,-1.516919493675232,2.045198917388916,3.9869883060455322,0.32316553592681885,0.043385397642850876,0.2273968905210495,1.307878017425537
291,24395,24392,-0.1324922889471054,0.0691322535276413,1.0411399602890015,1.2242918014526367,2.759702205657959,-0.9316092133522034,2.0459485054016113,3.987778663635254,0.3232780694961548,-0.11334540694952011,0.2757354974746704,1.2884503602981567
292,24405,24402,-0.0757998526096344,0.14612822234630585,0.9537619948387146,1.0681657791137695,2.622802972793579,-1.1240371465682983,2.0482442378997803,3.9870967864990234,0.3224838078022003,-0.11708326637744904,0.31616923213005066,1.266964077949524
293,24415,24412,-0.006511628162115812,0.06671115010976791,1.0100384950637817,1.3163405656814575,1.993883490562439,-0.6047943830490112,2.049175977706909,3.9868571758270264,0.32255250215530396,-0.13115164637565613,0.3508315682411194,1.250076174736023
294,24425,24422,-0.01130655501037836,0.15489590167999268,0.9772282242774963,1.6866967678070068,0.053142767399549484,-0.10978872328996658,2.049933671951294,3.986924648284912,0.32260069251060486,-0.06509841233491898,0.3842036724090576,1.257102608680725
295,24435,24432,-0.005556540563702583,0.08389703929424286,0.9384995102882385,1.3595952987670898,-2.1032848358154297,-0.47292935848236084,2.050058364868164,3.986835241317749,0.319070428609848,-0.1363440901041031,0.34185874462127686,1.23881995677948
296,24445,24442,-0.07168260961771011,0.03933317959308624,1.0023812055587769,0.5030630230903625,-3.3162500858306885,-0.9060454368591309,2.0515477657318115,3.9870290756225586,0.3188064992427826,-0.016206439584493637,0.2967393398284912,1.2329931259155273
297,24455,24452,-0.11074671894311905,0.03232727572321892,0.9974608421325684,-0.37944722175598145,-3.6506924629211426,-0.7555648684501648,2.0515379905700684,3.9876022338867188,0.3186749517917633,0.04298797622323036,0.31978708505630493,1.2236950397491455
298,24465,24462,-0.09620846062898636,0.0736178308725357,0.9577164053916931,-1.094962477684021,-2.5259814262390137,-0.7301472425460815,2.0520401000976562,3.9866957664489746,0.3184492290019989,-0.0501662902534008,0.3269142508506775,1.1776021718978882
299,24475,24472,-0.06464080512523651,0.13721716403961182,0.9946470260620117,-1.4935637712478638,-0.5851901173591614,-0.5070428848266602,2.054368495941162,3.9868929386138916,0.31761059165000916,0.07380694150924683,0.3199194669723511,1.1725469827651978
300,24485,24482,-0.018575595691800117,0.05903667211532593,1.0087664127349854,-0.5967479944229126,1.6315590143203735,-0.7676330804824829,2.054281234741211,3.987903356552124,0.3173668086528778,0.07752075046300888,0.31288444995880127,1.1972932815551758
301,24495,24492,0.03278475999832153,-0.0453224815428257,0.956942081451416,1.2769652605056763,2.8924076557159424,-0.5285333395004272,2.0550975799560547,3.9881560802459717,0.3170466721057892,0.050515126436948776,0.3239787817001343,1.1694337129592896
302,24505,24502,0.004644790664315224,-0.026691492646932602,0.9887408018112183,2.3747994899749756,3.570720672607422,-0.5325278043746948,2.0561680793762207,3.9871678352355957,0.31600651144981384,0.005075779277831316,0.3574177026748657,1.1688003540039062
303,24515,24512,-0.010020259767770767,-0.010887149721384048,1.009774088859558,1.3905082941055298,3.726879596710205,-0.24710829555988312,2.057084083557129,3.986431837081909,0.315614253282547,0.026410866528749466,0.39543429017066956,1.1428710222244263
304,24525,24522,-0.017224738374352455,0.1086294949054718,0.9548019170761108,0.3506029546260834,3.2314271926879883,-0.2596137821674347,2.057457685470581,3.9867024421691895,0.3152613937854767,-0.045343801379203796,0.34274592995643616,1.1361461877822876
305,24535,24532,0.021215010434389114,0.029196521267294884,0.983145534992218,-0.6043813824653625,2.47676944732666,-0.1986532360315323,2.058241605758667,3.986309766769409,0.3134796619415283,-0.023274827748537064,0.3525405824184418,1.1121190786361694
306,24545,24542,0.008249714970588684,-0.02976716123521328,0.982719361782074,-1.4612308740615845,1.919008493423462,-0.2451239675283432,2.0577845573425293,3.985771417617798,0.31303972005844116,-0.14948254823684692,0.3454398214817047,1.0748411417007446
307,24555,24552,-0.06314082443714142,-0.01913573034107685,1.1185799837112427,-1.9572052955627441,2.922819137573242,-0.05250466987490654,2.059542179107666,3.9851388931274414,0.31247633695602417,-0.09191396087408066,0.325877845287323,1.1188650131225586
308,24565,24562,-0.021620208397507668,-0.022916167974472046,1.044577717781067,-1.9173959493637085,3.3645169734954834,0.19195355474948883,2.059744358062744,3.9865643978118896,0.3137981593608856,-0.20299601554870605,0.3051309883594513,1.114259123802185
309,24575,24572,0.014423560351133347,-0.02228478528559208,1.007725477218628,-0.609531819820404,1.6442433595657349,-0.02401820383965969,2.061582088470459,3.9878523349761963,0.3135124444961548,-0.15761923789978027,0.2921982705593109,1.1587047576904297
310,24585,24582,-0.02840358577668667,0.16490599513053894,1.0181491374969482,-0.19021697342395782,0.2897055447101593,-0.06177674978971481,2.0614874362945557,3.987910032272339,0.3133374750614166,-0.3309635818004608,0.2881735861301422,1.142905592918396
311,24595,24592,0.009639553725719452,0.11748193949460983,0.94218510389328,0.7959340810775757,-0.3038161098957062,0.3730120360851288,2.0637874603271484,3.9891300201416016,0.31301435828208923,-0.24458757042884827,0.2212189882993698,1.176124095916748
312,24605,24602,-0.01596936583518982,0.026668183505535126,1.054280161857605,3.443086624145508,-2.4036507606506348,0.1251296103000641,2.0639336109161377,3.9895107746124268,0.31178948283195496,-0.21562178432941437,0.34108656644821167,1.1839141845703125
313,24615,24612,0.0394873321056366,-0.044936567544937134,0.9736063480377197,3.9863548278808594,-2.8114025592803955,0.20277902483940125,2.064964532852173,3.990856647491455,0.31160733103752136,-0.0830150619149208,0.4019732177257538,1.2602121829986572
314,24625,24622,-0.062482599169015884,0.02946847677230835,1.0237181186676025,2.1917929649353027,-1.7844016551971436,0.4448488652706146,2.0646677017211914,3.991333484649658,0.3114335536956787,-0.1048106774687767,0.4597528278827667,1.2855221033096313
315,24635,24632,-0.03833182156085968,0.051198560744524,1.0014208555221558,-0.8960398435592651,0.5553964972496033,0.5834686160087585,2.0667409896850586,3.9931435585021973,0.3082810342311859,-0.05787380412220955,0.480909526348114,1.339383602142334
316,24645,24642,0.008085465990006924,0.021612823009490967,1.0482419729232788,-3.990100383758545,2.9500062465667725,0.17982251942157745,2.067312002182007,3.993103504180908,0.3078615665435791,0.01548039261251688,0.44852253794670105,1.350660800933838
317,24655,24652,0.05240067467093468,-0.08225500583648682,0.9534882307052612,-5.6445536613464355,4.699552059173584,-0.6410483717918396,2.0662729740142822,3.9930813312530518,0.3074645400047302,-0.11668995022773743,0.37429118156433105,1.3561068773269653
318,24665,24662,0.007376783527433872,-0.015292225405573845,1.040610671043396,-5.24876070022583,5.073981285095215,-0.40779900550842285,2.0683703422546387,3.9929325580596924,0.30697059631347656,-0.2709563374519348,0.27545714378356934,1.3200901746749878
319,24675,24672,-0.020371213555336,0.02683122456073761,1.0592750310897827,-4.08768892288208,4.426542282104492,-0.29604843258857727,2.0698349475860596,3.993086099624634,0.30650416016578674,-0.24930764734745026,0.19826605916023254,1.3116016387939453
320,24685,24682,0.02792377769947052,0.049575306475162506,0.9444153308868408,-2.9610090255737305,3.9344143867492676,-0.25974586606025696,2.069779634475708,3.992933988571167,0.3062019944190979,-0.23087604343891144,0.14019517600536346,1.3011194467544556
321,24695,24692,-0.02867102064192295,0.05929595232009888,1.0284788608551025,0.2695741355419159,0.08656252175569534,0.370998352766037,2.069908380508423,3.993137836456299,0.3059188723564148,-0.3350186347961426,0.12192366272211075,1.2970983982086182
322,24705,24702,0.018882935866713524,-0.06740517169237137,1.009414553642273,3.80092453956604,-1.5783474445343018,0.5771628022193909,2.071716070175171,3.9922945499420166,0.30556055903434753,-0.29907187819480896,0.15866442024707794,1.2889589071273804
323,24715,24712,0.03732151538133621,-0.04192240536212921,0.9516952633857727,5.480809688568115,-2.0854666233062744,1.0294194221496582,2.0724778175354004,3.992825508117676,0.3052724599838257,-0.18282155692577362,0.2362879067659378,1.2868202924728394
324,24725,24722,0.06761202216148376,-0.0566522590816021,0.9374651908874512,4.398940563201904,-1.658900260925293,1.1633538007736206,2.0724551677703857,3.992607593536377,0.3050188720226288,-0.40556514263153076,0.31492891907691956,1.311428427696228
325,24735,24732,0.014248660765588284,-0.009932858869433403,1.0245052576065063,2.7581822872161865,-2.682718276977539,1.0464611053466797,2.074937105178833,3.9919631481170654,0.30104315280914307,-0.2640102207660675,0.37208905816078186,1.3139573335647583
326,24745,24742,0.026711465790867805,-0.15728846192359924,1.040320873260498,0.28690508008003235,-2.8885769844055176,1.6911922693252563,2.074829339981079,3.991838216781616,0.30058038234710693,-0.1882423460483551,0.3972024619579315,1.3177498579025269
327,24755,24752,-0.009776371531188488,-0.01786954328417778,1.0593615770339966,-0.9812758564949036,-2.0701606273651123,1.7112817764282227,2.0751218795776367,3.990885019302368,0.30005010962486267,-0.20777875185012817,0.38633519411087036,1.3148761987686157
328,24765,24762,-0.01857478730380535,-0.02334892749786377,1.0362235307693481,-4.610936164855957,-0.6363264322280884,1.3862807750701904,2.076274871826172,3.9906668663024902,0.3031023442745209,-0.09134335070848465,0.3383529782295227,1.3031522035598755
329,24775,24772,-0.004112910479307175,-0.03979145362973213,1.0158412456512451,-5.575436115264893,0.7056792378425598,1.825424313545227,2.0762171745300293,3.99042010307312,0.30291748046875,-0.16512034833431244,0.2495398074388504,1.3132917881011963
330,24785,24782,0.015879536047577858,0.02241826057434082,1.0483521223068237,-6.446522235870361,1.7428438663482666,1.9278696775436401,2.0774123668670654,3.990987539291382,0.30258992314338684,-0.17294086515903473,0.22220085561275482,1.3444502353668213
331,24795,24792,0.014537909999489784,-0.039394810795784,1.0219125747680664,-4.8971476554870605,2.099771738052368,1.800903081893921,2.078026533126831,3.990530014038086,0.3023899495601654,-0.19071488082408905,0.1950342357158661,1.3580721616744995
332,24805,24802,0.012539170682430267,-0.009502395056188107,1.0189789533615112,-1.8978954553604126,0.6486671566963196,1.5880805253982544,2.0791637897491455,3.991244077682495,0.30206045508384705,-0.4326547086238861,0.04600660130381584,1.4086380004882812
333,24815,24812,-0.0010194890201091766,-0.03263997659087181,1.0232324600219727,0.371944785118103,-0.8982878923416138,1.9529376029968262,2.082228183746338,3.9925730228424072,0.3017134964466095,-0.31876206398010254,0.029987316578626633,1.4304211139678955
334,24825,24822,-0.013171771541237831,0.001372546423226595,1.0547157526016235,2.3695363998413086,-3.7731051445007324,1.9271728992462158,2.082050323486328,3.992297649383545,0.301739364862442,-0.261391818523407,0.05209742859005928,1.4496150016784668
335,24835,24832,0.03811872377991676,-0.03353329002857208,0.9996869564056396,4.142253398895264,-5.994385719299316,1.5790114402770996,2.08182954788208,3.992269515991211,0.3034268617630005,-0.3153538107872009,0.10394539684057236,1.4867390394210815
336,24845,24842,0.016129298135638237,-0.032018400728702545,0.9866170287132263,4.251275062561035,-5.788852691650391,1.5728148221969604,2.083665370941162,3.9918768405914307,0.3033660352230072,-0.25956445932388306,0.24615547060966492,1.5049363374710083
337,24855,24852,-0.01762687787413597,0.025198692455887794,1.0716943740844727,2.435476303100586,-5.130502223968506,1.2678967714309692,2.0846621990203857,3.9903817176818848,0.30338090658187866,-0.04925664886832237,0.2922951877117157,1.50086510181427
338,24865,24862,0.058295875787734985,-0.08966253697872162,1.0397988557815552,-0.06722669303417206,-5.407632827758789,0.9191780686378479,2.0829949378967285,3.988356590270996,0.30817487835884094,-0.17379117012023926,0.2279922068119049,1.4391605854034424
339,24875,24872,0.06215159595012665,-0.16553111374378204,1.0785788297653198,-2.817847967147827,-3.4282150268554688,1.1593602895736694,2.085400104522705,3.988518714904785,0.30846938490867615,0.013796655461192131,0.20386748015880585,1.449498176574707
340,24885,24882,0.05259415879845619,-0.14438487589359283,0.9614477753639221,-4.718090057373047,-1.971055269241333,1.0672835111618042,2.085003614425659,3.988353967666626,0.3090634346008301,0.007472969591617584,0.13702087104320526,1.4447468519210815
341,24895,24892,0.03798989951610565,0.05007411912083626,0.9944235682487488,-4.919478416442871,2.2052650451660156,0.6770952343940735,2.0863730907440186,3.989567995071411,0.3094983696937561,-0.03566168248653412,0.13291598856449127,1.4542491436004639
342,24905,24902,0.07287594676017761,0.01397971622645855,0.9736250638961792,-3.909541368484497,0.31783607602119446,0.9408153891563416,2.0876691341400146,3.9892570972442627,0.30375614762306213,-0.09863796830177307,0.05146690458059311,1.497985601425171
343,24915,24912,0.047171030193567276,-0.0199528057128191,0.9620458483695984,-2.656080722808838,-1.021677851676941,0.7286840677261353,2.088977813720703,3.9894893169403076,0.3037623465061188,0.022976767271757126,0.1465204656124115,1.578005313873291
344,24925,24922,-0.03134789690375328,0.026668814942240715,1.0471526384353638,-0.5376744270324707,-2.5044705867767334,0.2463301420211792,2.088773727416992,3.9897892475128174,0.30391672253608704,0.0734148919582367,0.10160186141729355,1.58430016040802
345,24935,24932,0.015270144678652287,0.007562525104731321,0.9512896537780762,0.9972627758979797,-2.356779098510742,0.02145952358841896,2.0889880657196045,3.989762783050537,0.30403560400009155,0.047180768102407455,0.08706550300121307,1.5862177610397339
346,24945,24942,-0.024841340258717537,0.04911310225725174,1.0353385210037231,1.1388524770736694,-2.11482572555542,-0.23291821777820587,2.0895700454711914,3.988633871078491,0.3040415346622467,0.10704092681407928,0.09038817882537842,1.555012822151184
347,24955,24952,-0.05584697425365448,0.009353796020150185,0.9839861989021301,0.4806947410106659,-2.1943912506103516,-0.37381526827812195,2.090148687362671,3.9885661602020264,0.30411219596862793,0.2427545189857483,0.1682048887014389,1.5498230457305908
348,24965,24962,-0.06631401926279068,0.09718337655067444,0.9945561289787292,-0.587410032749176,-0.7019068002700806,-0.374656081199646,2.089719295501709,3.987539291381836,0.30218076705932617,0.20014268159866333,0.14840415120124817,1.5823614597320557
349,24975,24972,-0.03801657631993294,-0.029274960979819298,0.9742393493652344,-1.4562872648239136,-0.42704206705093384,-1.098000168800354,2.092322826385498,3.9900424480438232,0.3021342158317566,0.22733475267887115,0.11503511667251587,1.6106631755828857
350,24985,24982,-0.07634798437356949,-0.10940622538328171,0.951457142829895,-3.319626808166504,3.2289998531341553,-0.7149155139923096,2.093055486679077,3.9900479316711426,0.3020767569541931,0.14293088018894196,0.135254368185997,1.6088221073150635
351,24995,24992,-0.05219485983252525,-0.021055342629551888,1.0074363946914673,-5.78677225112915,5.412452220916748,-1.2792428731918335,2.0942189693450928,3.989133596420288,0.30396509170532227,0.09583746641874313,0.12091805040836334,1.5886119604110718
352,25005,25002,-0.02654035948216915,0.05760255455970764,0.9534206986427307,-6.751608371734619,3.8299026489257812,-1.086788535118103,2.0953173637390137,3.988279104232788,0.3039339780807495,0.034952182322740555,-0.005640564486384392,1.5578514337539673
353,25015,25012,-0.013402082026004791,0.10064282268285751,1.0262048244476318,-7.111950397491455,4.766941070556641,-0.4436972141265869,2.0961267948150635,3.988870859146118,0.30391401052474976,0.055953048169612885,-0.06367534399032593,1.5209524631500244
354,25025,25022,0.08107250183820724,-0.01600123755633831,0.9374469518661499,-3.22876238822937,-0.11417865008115768,-0.0713835135102272,2.0959808826446533,3.987603187561035,0.3039025366306305,0.02770981751382351,-0.17264030873775482,1.5172251462936401
355,25035,25032,0.02203485555946827,-0.023250272497534752,0.9931498765945435,-0.5686683654785156,-1.5823196172714233,-0.3690253496170044,2.0963528156280518,3.9878275394439697,0.30178967118263245,-0.02492724172770977,-0.15093567967414856,1.5810340642929077
356,25045,25042,-0.030105745419859886,0.09430752694606781,1.0142238140106201,2.089815378189087,-1.6981639862060547,0.410856157541275,2.0976366996765137,3.987978458404541,0.3015027940273285,0.012144695967435837,-0.08690134435892105,1.542773962020874
357,25055,25052,0.022131578996777534,0.09688907116651535,0.9239537119865417,2.924030065536499,-1.7091656923294067,0.08668430894613266,2.097450017929077,3.9852044582366943,0.301242858171463,-0.04714459925889969,-0.07527272403240204,1.4804749488830566
358,25065,25062,0.009418832138180733,0.09786298871040344,1.005858063697815,3.2610414028167725,-1.350449800491333,-0.22770975530147552,2.0984044075012207,3.9850690364837646,0.30054569244384766,-0.03276997432112694,-0.05450266972184181,1.4800182580947876
359,25075,25072,0.032005734741687775,0.0010549693834036589,0.992824375629425,1.6301639080047607,-0.0014704512432217598,-0.9102610945701599,2.0995070934295654,3.986652374267578,0.30027487874031067,-0.006508451420813799,-0.034587204456329346,1.5364454984664917
360,25085,25082,-0.027182096615433693,0.0014246125938370824,1.072546362876892,-0.19135428965091705,0.6140037775039673,-0.10405108332633972,2.099764823913574,3.9866526126861572,0.30004167556762695,0.09069541096687317,-0.038450680673122406,1.5105092525482178
361,25095,25092,0.00705383624881506,0.053561218082904816,0.9691312909126282,-2.551762342453003,1.4704060554504395,-0.6006857752799988,2.1004409790039062,3.9860706329345703,0.30271217226982117,0.006910518743097782,-0.07455418258905411,1.5107786655426025
362,25105,25102,0.0037847792264074087,0.18102769553661346,1.0250184535980225,-3.86326265335083,2.643782377243042,-0.25302210450172424,2.1021950244903564,3.9862663745880127,0.30261215567588806,-0.02500387653708458,-0.14045698940753937,1.5040262937545776
363,25115,25112,0.06361857801675797,0.02231028862297535,0.9352303743362427,-3.535862445831299,2.2062277793884277,-0.4712642729282379,2.102738380432129,3.9862494468688965,0.30254629254341125,-0.2055424451828003,-0.21298480033874512,1.4978777170181274
364,25125,25122,0.04004347324371338,-0.03265410289168358,0.9976472854614258,-3.0371010303497314,1.2572070360183716,-0.40644070506095886,2.1050832271575928,3.9860737323760986,0.30228838324546814,-0.13354402780532837,-0.20318835973739624,1.4922125339508057
365,25135,25132,-0.03163677081465721,0.013923950493335724,1.0283325910568237,-1.7466131448745728,-0.23444578051567078,-0.38954275846481323,2.1047515869140625,3.9850757122039795,0.3028514087200165,-0.04747827723622322,-0.25666970014572144,1.4187999963760376
366,25145,25142,-0.005452353972941637,0.17226184904575348,1.0341616868972778,1.3798658847808838,-1.9644114971160889,0.11926434934139252,2.1046981811523438,3.9848074913024902,0.3028918504714966,-0.17049700021743774,-0.19808734953403473,1.420329213142395
367,25155,25152,0.04234692454338074,0.12805244326591492,1.0096145868301392,3.5929839611053467,-3.4000635147094727,-0.05490095913410187,2.106851100921631,3.9833121299743652,0.3027600944042206,-0.04353086277842522,-0.17905378341674805,1.3866238594055176
368,25165,25162,-0.017735805362462997,0.015265914611518383,1.045676589012146,3.8193764686584473,-4.633255481719971,0.07153790444135666,2.1066737174987793,3.9830706119537354,0.30328741669654846,0.02892894484102726,-0.13513046503067017,1.3779356479644775
369,25175,25172,0.03879141807556152,-0.023241672664880753,0.9663944840431213,2.5443663597106934,-3.1453444957733154,-0.1541726440191269,2.107020854949951,3.9821951389312744,0.30337053537368774,-0.0448203906416893,-0.09605756402015686,1.3669012784957886
370,25185,25182,-0.04860891401767731,0.13178962469100952,1.0266190767288208,0.7575743198394775,-1.7776358127593994,0.44672688841819763,2.1090927124023438,3.982128381729126,0.3033272922039032,0.08655226975679398,-0.15987831354141235,1.379003643989563
371,25195,25192,0.010351170785725117,-0.022810332477092743,0.9676308035850525,-1.1134780645370483,0.08342909812927246,0.11351185292005539,2.108121395111084,3.9829506874084473,0.30401185154914856,0.10978613048791885,-0.16981668770313263,1.3818705081939697
372,25205,25202,-0.01409979909658432,0.01243600994348526,1.0245479345321655,-1.8666224479675293,1.8252805471420288,0.05398453399538994,2.1088478565216064,3.9825010299682617,0.30411961674690247,0.10533324629068375,-0.12514720857143402,1.3620963096618652
373,25215,25212,-0.04718281328678131,0.11409050971269608,1.015071988105774,-2.24709415435791,3.614956855773926,0.12564000487327576,2.109693765640259,3.9827651977539062,0.30424967408180237,-0.013695009984076023,-0.17036601901054382,1.3997081518173218
374,25225,25222,0.024879757314920425,0.015658462420105934,0.9772337079048157,-2.14145565032959,4.074803352355957,-0.057471636682748795,2.1116673946380615,3.981968402862549,0.3048902750015259,0.006586344912648201,-0.21678608655929565,1.3602495193481445
375,25235,25232,0.014419704675674438,0.01807408779859543,1.0096055269241333,-1.4165782928466797,4.79353666305542,0.3297807574272156,2.1123101711273193,3.9823825359344482,0.3050786256790161,0.00464528426527977,-0.18218998610973358,1.4089114665985107
376,25245,25242,-0.006001284345984459,-0.008663883432745934,1.0687038898468018,0.19807693362236023,3.0892093181610107,0.4828536808490753,2.1123712062835693,3.9828944206237793,0.3052724599838257,-0.12582919001579285,-0.20258529484272003,1.4187514781951904
377,25255,25252,-0.005220272112637758,-0.02910727635025978,1.0169342756271362,0.9160436391830444,1.1500145196914673,-0.2203255146741867,2.1139912605285645,3.9841744899749756,0.30539974570274353,-0.07229308038949966,-0.20126952230930328,1.4738569259643555
378,25265,25262,0.008770134299993515,0.07532444596290588,0.9423536658287048,1.2920193672180176,-0.34002524614334106,-0.7838268876075745,2.1141791343688965,3.9838438034057617,0.30733808875083923,-0.15952280163764954,-0.19317281246185303,1.4652316570281982
379,25275,25272,0.021175280213356018,0.22350071370601654,0.9716832041740417,1.3256433010101318,-0.8868114352226257,-0.7781562805175781,2.115828037261963,3.9839236736297607,0.30763015151023865,-0.23963624238967896,-0.11340175569057465,1.4611233472824097
380,25285,25282,0.059932924807071686,0.01271618902683258,0.928935706615448,1.385515570640564,-1.6285821199417114,-1.262343168258667,2.11749529838562,3.983043670654297,0.30785486102104187,-0.2057352364063263,-0.10762710124254227,1.4429816007614136
381,25295,25292,0.015603813342750072,0.011476999148726463,1.0040017366409302,-0.2702292799949646,-2.7501285076141357,-0.8890356421470642,2.1180667877197266,3.9826648235321045,0.30744507908821106,-0.15189743041992188,-0.11460646986961365,1.4136886596679688
382,25305,25302,-0.036144208163022995,-0.02226419560611248,1.0327472686767578,-1.964769721031189,-2.5299806594848633,-0.6995359659194946,2.118879556655884,3.982151508331299,0.30771633982658386,-0.16359980404376984,-0.14553873240947723,1.3867926597595215
383,25315,25312,0.0026683814357966185,-0.043898340314626694,0.9689348936080933,-2.7481162548065186,-1.4840819835662842,-0.6629371047019958,2.1202099323272705,3.982318878173828,0.30784833431243896,-0.114109106361866,-0.19625109434127808,1.3789891004562378
384,25325,25322,-0.0005653087282553315,-0.01163275446742773,0.9908976554870605,-2.8660333156585693,-0.11449046432971954,-0.7163882255554199,2.120877265930176,3.9820547103881836,0.3056723475456238,-0.08292116969823837,-0.17484934628009796,1.3497906923294067
385,25335,25332,-0.014620472677052021,-0.002510472433641553,0.9873328804969788,-3.1938936710357666,-0.42223024368286133,-0.9383863210678101,2.12164306640625,3.9817593097686768,0.30570557713508606,0.007888434454798698,-0.23954744637012482,1.3088959455490112
386,25345,25342,0.0038920482620596886,-0.05433898791670799,0.955011785030365,-2.5380074977874756,0.3594140410423279,-0.5801312923431396,2.121774911880493,3.9811763763427734,0.30578532814979553,-0.06524725258350372,-0.2946936786174774,1.3028955459594727
387,25355,25352,-0.021395370364189148,0.0029026055708527565,1.0171151161193848,-1.877859354019165,0.16595621407032013,-0.40401187539100647,2.1232385635375977,3.97995924949646,0.30569952726364136,-0.13713723421096802,-0.3362753391265869,1.2348980903625488
388,25365,25362,-0.025688109919428825,0.05338812246918678,1.0012584924697876,0.07471258193254471,2.201098680496216,-0.3944285809993744,2.1244864463806152,3.980262041091919,0.3064878284931183,-0.2154683619737625,-0.2765437662601471,1.2419028282165527
389,25375,25372,0.046405427157878876,-0.030845195055007935,0.9773963689804077,2.009260892868042,1.4500945806503296,-0.8946898579597473,2.126249074935913,3.979410171508789,0.3064654469490051,-0.14405784010887146,-0.2659946084022522,1.2258163690567017
390,25385,25382,0.013953465968370438,-0.033699337393045425,0.9855493903160095,2.5672430992126465,0.014861738309264183,-0.8906233906745911,2.1263599395751953,3.9794650077819824,0.3066113293170929,-0.13604407012462616,-0.23460060358047485,1.213937759399414
391,25395,25392,-0.011089932173490524,-0.0073458650149405,0.990385890007019,2.24130916595459,-1.4014121294021606,-0.5938640832901001,2.1269900798797607,3.9789953231811523,0.30463236570358276,-0.2511593699455261,-0.20508959889411926,1.2127184867858887
392,25405,25402,0.02210668846964836,-0.009618767537176609,1.0013713836669922,1.7306934595108032,-5.000162124633789,-0.4563908278942108,2.1289749145507812,3.978954792022705,0.3044112026691437,-0.17785148322582245,-0.2590692341327667,1.2624469995498657
393,25415,25412,0.02239162102341652,-0.05415601283311844,0.9826367497444153,-0.009557798504829407,-2.6930580139160156,-1.3411095142364502,2.1293325424194336,3.9806833267211914,0.30435946583747864,-0.17269159853458405,-0.24951602518558502,1.24534273147583
394,25425,25422,0.04639103636145592,-0.0758802741765976,0.944678008556366,-1.1424870491027832,-2.6720218658447266,-1.2100170850753784,2.1307907104492188,3.98016357421875,0.30161747336387634,-0.102499820291996,-0.2635918855667114,1.2071067094802856
395,25435,25432,0.07174372673034668,-0.1538676619529724,0.9780188798904419,-1.0962185859680176,-3.3104894161224365,-1.2241045236587524,2.1311819553375244,3.980691432952881,0.30134621262550354,-0.0991000309586525,-0.2067975550889969,1.224505066871643
396,25445,25442,0.013379016891121864,-0.19207102060317993,1.0621724128723145,-0.570911169052124,-3.182305335998535,-1.2284280061721802,2.1324105262756348,3.9793379306793213,0.30097755789756775,0.06906811147928238,-0.1503206342458725,1.1807023286819458
397,25455,25452,0.02917763963341713,-0.19470800459384918,1.0383423566818237,0.47954392433166504,-0.8122240900993347,-1.8517709970474243,2.1318657398223877,3.978247880935669,0.30079764127731323,0.0592833049595356,-0.23798218369483948,1.1226115226745605
398,25465,25462,0.06378768384456635,-0.11685551702976227,0.9015575051307678,-0.7343908548355103,2.5318939685821533,-1.4511499404907227,2.132780075073242,3.9781808853149414,0.3006185293197632,0.12270417809486389,-0.23866282403469086,1.100142478942871
399,25475,25472,0.08579551428556442,-0.0772608071565628,0.8969236016273499,-1.9200607538223267,4.504408836364746,-0.7077183127403259,2.132222890853882,3.978381872177124,0.30026352405548096,0.06410069763660431,-0.26168930530548096,1.10822331905365
400,25485,25482,0.02512347139418125,-0.04530290141701698,0.9956845045089722,-0.14649920165538788,3.020538330078125,-0.47774842381477356,2.132430076599121,3.978424072265625,0.2998613715171814,-0.05435262620449066,-0.35189560055732727,1.106252670288086
401,25495,25492,0.03906773030757904,-0.17964036762714386,1.0138463973999023,0.5607614517211914,3.2387213706970215,-0.8640803098678589,2.1340017318725586,3.9801549911499023,0.3008119463920593,-0.08489255607128143,-0.3394456207752228,1.1459397077560425
402,25505,25502,0.017342496663331985,-0.14641986787319183,1.0923782587051392,0.8818703293800354,3.775862693786621,-1.409561038017273,2.1341404914855957,3.979334592819214,0.30042633414268494,-0.03673909604549408,-0.3157390356063843,1.0791722536087036
403,25515,25512,0.07062042504549026,-0.09699338674545288,0.9193496108055115,3.112556219100952,2.474161386489868,-0.8805739879608154,2.1342692375183105,3.979217529296875,0.3002138137817383,-0.004082102328538895,-0.27162420749664307,1.0848032236099243
404,25525,25522,-0.0085771968588233,0.03188354894518852,1.022735834121704,3.825882911682129,2.986912965774536,-0.6249990463256836,2.134528875350952,3.980985403060913,0.3026941120624542,-0.11102782934904099,-0.20606286823749542,1.1698580980300903
405,25535,25532,0.03569071739912033,-0.020779049023985863,0.9963185787200928,3.4124367237091064,0.783976137638092,-0.973933219909668,2.136197328567505,3.9819116592407227,0.3025030195713043,-0.12487392872571945,-0.14392131567001343,1.2151349782943726
406,25545,25542,0.029768632724881172,-0.08503653109073639,1.0365118980407715,3.115870475769043,-0.42074865102767944,-1.4835479259490967,2.1363003253936768,3.981854200363159,0.3023035228252411,-0.11187558621168137,-0.09009906649589539,1.2050315141677856
407,25555,25552,0.012793993577361107,-0.05630017817020416,1.0084035396575928,0.12781250476837158,0.11241543292999268,-1.0423460006713867,2.1368813514709473,3.9813766479492188,0.30219176411628723,-0.24655359983444214,-0.07119637727737427,1.258321762084961
408,25565,25562,-0.012606942094862461,-0.009313861839473248,1.0485109090805054,-0.8722459077835083,-0.15165214240550995,-1.4294428825378418,2.1385250091552734,3.9825053215026855,0.30156585574150085,-0.13980847597122192,-0.08106715232133865,1.2552099227905273
409,25575,25572,0.05102591961622238,-0.0032366374507546425,1.00687575340271,-1.8579950332641602,-0.6426807045936584,-1.7172918319702148,2.138073682785034,3.981682062149048,0.30156394839286804,-0.19917668402194977,-0.1082230880856514,1.1941914558410645
410,25585,25582,-0.02692468836903572,0.026381155475974083,1.0725853443145752,-0.8804123401641846,-2.056720733642578,-1.3347702026367188,2.1392300128936768,3.981245279312134,0.30140841007232666,-0.07930495589971542,-0.13013271987438202,1.1407527923583984
411,25595,25592,0.018249934539198875,-0.03908989951014519,1.0077894926071167,-2.1901917457580566,-2.020751476287842,-0.4935132563114166,2.1380412578582764,3.9786221981048584,0.30019456148147583,0.043139223009347916,-0.2347707450389862,1.0009891986846924
412,25605,25602,-0.01344442367553711,0.014776351861655712,1.034589171409607,-0.5922514796257019,-1.1837549209594727,0.20839494466781616,2.1387252807617188,3.981680154800415,0.3003026843070984,-0.08277023583650589,-0.24282898008823395,1.1658517122268677
413,25615,25612,-0.0014642385067418218,0.09531322121620178,1.0799275636672974,0.8657160401344299,0.7201810479164124,-0.688263475894928,2.140801191329956,3.982818603515625,0.30020102858543396,0.018924053758382797,-0.22765827178955078,1.1667574644088745
414,25625,25622,0.005257242359220982,0.08283243328332901,1.0687583684921265,2.8791422843933105,2.0574216842651367,-1.4910695552825928,2.14070463180542,3.9838809967041016,0.3005923628807068,-0.001267335726879537,-0.1842983514070511,1.2163641452789307
415,25635,25632,0.009821780025959015,-0.015012777410447598,1.0198389291763306,4.113205909729004,3.0983126163482666,-2.237293004989624,2.1414856910705566,3.983875036239624,0.30071312189102173,-0.11480740457773209,-0.11665843427181244,1.2118405103683472
416,25645,25642,-0.058133333921432495,0.0633268803358078,1.0164024829864502,3.3663814067840576,4.114257335662842,-2.528386354446411,2.143444776535034,3.9832377433776855,0.3008120357990265,-0.08702224493026733,-0.13182154297828674,1.1611108779907227
417,25655,25652,-0.001640942064113915,-0.05796179175376892,0.9844986796379089,2.1998865604400635,2.964921236038208,-2.2894678115844727,2.143730640411377,3.9840049743652344,0.30489006638526917,-0.13526380062103271,-0.07365310937166214,1.1484266519546509
418,25665,25662,-0.028698522597551346,-0.0018316250061616302,1.091231346130371,1.716652750968933,2.6460909843444824,-2.1599998474121094,2.1434378623962402,3.983663320541382,0.3048858642578125,-0.24359862506389618,-0.035212066024541855,1.141764760017395
419,25675,25672,0.0015734663465991616,-0.06414557248353958,0.9600762128829956,1.3266011476516724,2.4277141094207764,-2.394557476043701,2.1449012756347656,3.9853150844573975,0.3052079677581787,-0.19728100299835205,-0.00547083280980587,1.1842848062515259
420,25685,25682,-0.027376333251595497,0.02441989816725254,0.9421180486679077,1.0937633514404297,-0.2890244126319885,-2.3199172019958496,2.1447808742523193,3.9847893714904785,0.30572330951690674,-0.19337396323680878,0.020581064745783806,1.1390653848648071
421,25695,25692,-0.044027864933013916,0.08521998673677444,0.960906982421875,0.7433712482452393,-2.1215810775756836,-2.606597661972046,2.146898031234741,3.987236976623535,0.3068635165691376,-0.23464246094226837,-0.034481506794691086,1.2256009578704834
422,25705,25702,-0.011335098184645176,0.006039612460881472,0.9775770306587219,0.2854286730289459,-3.2957043647766113,-3.31052303314209,2.1472771167755127,3.987647771835327,0.3068362772464752,-0.24620887637138367,-0.017105866223573685,1.186957836151123
423,25715,25712,-0.048160355538129807,-0.015405901707708836,1.0730540752410889,0.6257114410400391,-3.148566484451294,-3.6069869995117188,2.1487178802490234,3.9874188899993896,0.30716055631637573,-0.09012444317340851,-0.002422923222184181,1.1344656944274902
424,25725,25722,0.01636575348675251,-0.07908809930086136,0.9632744789123535,1.7153176069259644,-0.270823210477829,-3.6545073986053467,2.1485071182250977,3.9870147705078125,0.30710288882255554,-0.06886880844831467,0.02572176232933998,1.0914905071258545
425,25735,25732,0.045352764427661896,-0.030169105157256126,0.9535030722618103,1.2065157890319824,0.2787860631942749,-3.4964964389801025,2.1500487327575684,3.9877593517303467,0.3078175485134125,-0.1380751132965088,0.05136643350124359,1.0860923528671265
426,25745,25742,-0.029284149408340454,0.09420417994260788,0.9524607062339783,0.9697557091712952,1.4360469579696655,-3.4154059886932373,2.1508331298828125,3.9878673553466797,0.3079984188079834,-0.05796656385064125,0.07772374153137207,1.0693254470825195
427,25755,25752,-0.05541139841079712,0.20029368996620178,0.9617063999176025,0.42565682530403137,2.701246976852417,-3.1192116737365723,2.1498961448669434,3.9871277809143066,0.3057299554347992,-0.09241101145744324,0.012176534160971642,1.0064278841018677
428,25765,25762,-0.004051601514220238,0.11893059313297272,0.9201235175132751,0.2628554701805115,3.5829591751098633,-3.0403292179107666,2.1515183448791504,3.988770008087158,0.30587393045425415,-0.07036129385232925,0.10372477769851685,1.0105880498886108
429,25775,25772,-0.003515733638778329,0.01967434026300907,1.003920316696167,0.9302060008049011,2.663080930709839,-3.4463863372802734,2.1517174243927,3.9899845123291016,0.305978000164032,-0.2041916698217392,0.03901585936546326,1.0741876363754272
430,25785,25782,0.038660917431116104,0.022798018530011177,0.9735201597213745,1.5751829147338867,3.661724328994751,-4.137991905212402,2.1532251834869385,3.9910531044006348,0.30596429109573364,-0.1802138388156891,0.0703398659825325,1.0615200996398926
431,25795,25792,-0.07466765493154526,-0.027069827541708946,1.0004711151123047,1.3946062326431274,2.711780309677124,-4.02968168258667,2.153416156768799,3.9909274578094482,0.3049629330635071,-0.1447186917066574,0.10221410542726517,1.0198255777359009
432,25805,25802,-0.12785398960113525,0.09424280375242233,1.0293906927108765,1.2687287330627441,2.7334675788879395,-4.202183723449707,2.1536450386047363,3.990854024887085,0.3049171566963196,-0.3435632586479187,0.05214861407876015,0.9754149913787842
433,25815,25812,-0.007505799178034067,0.07364656031131744,0.998373806476593,0.7148341536521912,3.124298572540283,-3.8173303604125977,2.156050682067871,3.990816831588745,0.30472591519355774,-0.38052594661712646,0.0756915882229805,0.8997727036476135
434,25825,25822,0.04398785158991814,-0.060821257531642914,0.9799757599830627,0.5234869122505188,2.539313793182373,-3.575533628463745,2.1570816040039062,3.991481304168701,0.30513614416122437,-0.4049643278121948,0.09618871659040451,0.9312950968742371
435,25835,25832,0.022479347884655,-0.01249183714389801,0.995941698551178,1.106231451034546,0.9777227640151978,-4.13029670715332,2.157620429992676,3.9920568466186523,0.30509814620018005,-0.4968132972717285,0.03961772471666336,0.890077531337738
436,25845,25842,-0.007769586052745581,0.0221339613199234,1.0136364698410034,2.1256048679351807,-1.6600208282470703,-4.006761074066162,2.1590213775634766,3.992013692855835,0.3049262762069702,-0.37972700595855713,0.08289310336112976,0.8203288912773132
437,25855,25852,-0.04176132008433342,0.04433653876185417,0.9859234094619751,2.508547067642212,-4.620397090911865,-3.8681159019470215,2.1589996814727783,3.9919121265411377,0.3079714775085449,-0.30442824959754944,0.1332896500825882,0.8123030066490173
438,25865,25862,-0.013876927085220814,-0.02818138897418976,1.0052345991134644,1.9886090755462646,-5.505420684814453,-3.5379929542541504,2.159736394882202,3.9925003051757812,0.30813848972320557,-0.35681483149528503,0.17746049165725708,0.7753726243972778
439,25875,25872,-0.0335271917283535,0.009448896162211895,1.0241137742996216,1.7886877059936523,-4.035719394683838,-3.7000410556793213,2.1614367961883545,3.9922847747802734,0.30816420912742615,-0.18396756052970886,0.0584486685693264,0.710618793964386
440,25885,25882,-0.018702354282140732,0.01651025377213955,1.0132644176483154,0.8929221034049988,-3.1220037937164307,-3.356916904449463,2.161592721939087,3.992915153503418,0.30844178795814514,-0.1149805337190628,0.1731809377670288,0.6724770069122314
441,25895,25892,-0.018986234441399574,0.043564729392528534,1.0606456995010376,0.33681175112724304,-0.6127777695655823,-3.230103015899658,2.1624841690063477,3.9921746253967285,0.3095008432865143,-0.2421419620513916,0.18970561027526855,0.6286345720291138
442,25905,25902,0.031163249164819717,-0.019384680315852165,0.984133780002594,0.6037228107452393,1.9649553298950195,-2.9304215908050537,2.164547920227051,3.9918253421783447,0.3096567690372467,-0.1637222319841385,0.20684082806110382,0.5819368362426758
443,25915,25912,-0.04077399894595146,0.06754811108112335,0.9949347972869873,0.780266523361206,2.6453588008880615,-2.6506872177124023,2.1649491786956787,3.9915196895599365,0.30998122692108154,-0.11058885604143143,0.22697827219963074,0.5357344746589661
444,25925,25922,-0.023894693702459335,0.0355464331805706,0.9609150886535645,0.5680484771728516,3.3139126300811768,-2.5431466102600098,2.165090322494507,3.992084503173828,0.31228113174438477,-0.2382742315530777,0.24314813315868378,0.5460956692695618
445,25935,25932,-0.045749057084321976,0.09441129863262177,0.9754581451416016,-0.39642974734306335,2.2633919715881348,-2.9229493141174316,2.166501045227051,3.9919347763061523,0.31257033348083496,-0.2686728537082672,0.2418573796749115,0.5281265377998352
446,25945,25942,0.016013074666261673,-0.12054912745952606,0.9848248958587646,-0.5586071610450745,-0.14031650125980377,-2.1355533599853516,2.167055130004883,3.990694284439087,0.3128666579723358,-0.2586641013622284,0.16275447607040405,0.4327916204929352
447,25955,25952,0.007893226109445095,-0.08452625572681427,1.0364360809326172,0.2575930953025818,0.6010196805000305,-2.2772064208984375,2.167539358139038,3.9915413856506348,0.3131202757358551,-0.26020294427871704,0.1687852293252945,0.42368030548095703
448,25965,25962,-0.0723014771938324,-0.05911063775420189,1.0214016437530518,0.8817675113677979,-0.536532998085022,-2.3222084045410156,2.168729066848755,3.9912238121032715,0.3134290277957916,-0.31491559743881226,0.18854497373104095,0.37584927678108215
449,25975,25972,0.00510711595416069,-0.05958431214094162,0.9628093242645264,1.1782829761505127,-0.42156267166137695,-2.0837106704711914,2.1700408458709717,3.991067886352539,0.3136809468269348,-0.29485875368118286,0.13626274466514587,0.3520791232585907
450,25985,25982,0.03294687718153,-0.001890363171696663,0.9739060401916504,1.3673996925354004,-2.720885753631592,-1.7264618873596191,2.1705219745635986,3.99153208732605,0.31042981147766113,-0.16785816848278046,0.16996978223323822,0.31183648109436035
451,25995,25992,0.1296868771314621,-0.1155036985874176,0.9238964319229126,1.866368293762207,-3.0810599327087402,-0.8870478868484497,2.170663356781006,3.9907002449035645,0.3105890452861786,-0.15686456859111786,0.18238361179828644,0.2758750021457672
452,26005,26002,0.029416173696517944,-0.034869249910116196,0.9913642406463623,1.562413215637207,-3.109593391418457,-0.11093970388174057,2.1719675064086914,3.990396022796631,0.31059232354164124,-0.17250041663646698,0.22628314793109894,0.2583584785461426
453,26015,26012,-7.324739272007719e-05,0.004170618019998074,0.9886081218719482,0.8111258149147034,-0.9796992540359497,0.06658544391393661,2.1724584102630615,3.9903366565704346,0.31057992577552795,-0.11661296337842941,0.25576987862586975,0.259421169757843
454,26025,26022,0.030875634402036667,-0.03166276216506958,0.9446158409118652,0.659244179725647,0.9285354614257812,-0.10401038080453873,2.17378568649292,3.990381956100464,0.3110017776489258,-0.1731615513563156,0.2723892629146576,0.22456011176109314
455,26035,26032,-0.003454443532973528,-0.01718321070075035,0.9826650023460388,-0.2219381034374237,2.5758159160614014,-0.24566613137722015,2.1746816635131836,3.988938570022583,0.31093829870224,-0.1842973679304123,0.36097389459609985,0.25046277046203613
456,26045,26042,-0.01672636717557907,-0.0023346664384007454,1.001716136932373,-2.3018500804901123,2.314598560333252,-0.44258540868759155,2.1772255897521973,3.991428852081299,0.3107789158821106,-0.37292489409446716,0.26356035470962524,0.30839312076568604
457,26055,26052,-0.055310387164354324,0.027450185269117355,0.9726396799087524,-4.043025970458984,1.1716042757034302,-0.3417673110961914,2.178270101547241,3.991253137588501,0.31212887167930603,-0.38392847776412964,0.21399903297424316,0.26674923300743103
458,26065,26062,-0.009244406595826149,0.008980872109532356,0.9757211804389954,-3.62497615814209,-1.0219646692276,-0.12467490881681442,2.178360939025879,3.991326332092285,0.31217342615127563,-0.28786036372184753,0.14976471662521362,0.26850810647010803
459,26075,26072,-0.01808091439306736,0.02822178788483143,1.003280520439148,-3.322660207748413,-2.3450543880462646,-0.1692975014448166,2.178978681564331,3.991755485534668,0.3121460974216461,-0.2476045936346054,0.0941876769065857,0.27955031394958496
460,26085,26082,-0.008945171721279621,0.016553644090890884,0.9467411041259766,-1.1085240840911865,-3.212447166442871,-0.8914806842803955,2.1803126335144043,3.9926953315734863,0.312018483877182,-0.2597096860408783,0.06083720549941063,0.31763359904289246
461,26095,26092,0.015744628384709358,-0.06843093782663345,0.9630632996559143,2.337617874145508,-4.28868293762207,-1.173054575920105,2.181772232055664,3.992769241333008,0.31189587712287903,-0.25843310356140137,0.06833750754594803,0.3056917190551758
462,26105,26102,0.012525474652647972,-0.01251903548836708,0.9628661870956421,4.1805315017700195,-4.100580215454102,-0.9983410239219666,2.1814191341400146,3.992440938949585,0.3119003176689148,-0.08448249846696854,0.1285385936498642,0.29295092821121216
463,26115,26112,0.0005988971097394824,0.010376565158367157,0.9926225543022156,4.478549480438232,-2.2659380435943604,-0.6896131038665771,2.182769536972046,3.9920763969421387,0.31175461411476135,-0.09120872616767883,0.2069368213415146,0.26752638816833496
464,26125,26122,-0.015035625547170639,-0.002827343763783574,0.9577842354774475,3.080986499786377,-0.30146491527557373,-0.23552599549293518,2.1845223903656006,3.9920644760131836,0.3109036684036255,-0.1920112818479538,0.2801254391670227,0.34103888273239136
465,26135,26132,-0.017505647614598274,0.00878873560577631,1.0094307661056519,0.8011485934257507,1.485813021659851,-0.4727032780647278,2.1851158142089844,3.9927451610565186,0.31066298484802246,-0.17365485429763794,0.31812575459480286,0.3567374646663666
466,26145,26142,0.001799503224901855,0.009645991027355194,0.9808237552642822,-3.0129265785217285,3.874462127685547,-0.7210366725921631,2.1851253509521484,3.9933547973632812,0.31051573157310486,-0.11003357917070389,0.3081808090209961,0.36861202120780945
467,26155,26152,-0.014537804760038853,0.08346918970346451,1.0197237730026245,-4.021435737609863,-0.4195145070552826,-0.6909634470939636,2.1875686645507812,3.9941763877868652,0.3104212284088135,-0.27820947766304016,0.171835258603096,0.3323057293891907
468,26165,26162,-0.024644341319799423,0.031086651608347893,1.0396796464920044,-4.768924236297607,0.24606777727603912,-0.6764179468154907,2.187791585922241,3.994859218597412,0.31023287773132324,-0.17747552692890167,0.029085885733366013,0.3291495740413666
469,26175,26172,-0.05551520735025406,0.09890943020582199,1.0340032577514648,-3.461383104324341,-1.2821354866027832,-0.3524496257305145,2.1886258125305176,3.9951891899108887,0.30999860167503357,-0.14673715829849243,-0.0289897620677948,0.32552632689476013
470,26185,26182,-0.001159224077127874,0.012499009259045124,0.9894024133682251,-1.486586332321167,-0.8022300601005554,0.01798657700419426,2.1893410682678223,3.994048595428467,0.30925679206848145,-0.11054251343011856,0.08374761044979095,0.3265673816204071
471,26195,26192,-0.016453251242637634,0.027777129784226418,1.0456665754318237,-0.07057878375053406,-0.5988959074020386,-0.21480879187583923,2.19143009185791,3.9948112964630127,0.3089376389980316,-0.22443680465221405,-0.0003785697917919606,0.32021409273147583
472,26205,26202,0.016619425266981125,0.018980085849761963,0.9659399390220642,3.2741756439208984,-1.1878931522369385,-0.3298352360725403,2.1915535926818848,3.995107650756836,0.3088647723197937,-0.11086846888065338,0.024578142911195755,0.34859463572502136
473,26215,26212,-0.06125152111053467,0.06791117787361145,1.0913281440734863,4.88868522644043,-1.2013005018234253,-0.5407925248146057,2.194190502166748,3.9960429668426514,0.3073403537273407,-0.3022571802139282,0.09351418167352676,0.3961196541786194
474,26225,26222,0.0024299919605255127,-0.04212307184934616,0.989625871181488,4.370116710662842,-1.3007371425628662,-0.8118060827255249,2.1939480304718018,3.9953813552856445,0.30720511078834534,-0.17931783199310303,0.17939703166484833,0.40643760561943054
475,26235,26232,-0.019269833341240883,-0.030246958136558533,1.0616614818572998,2.7929553985595703,-1.8752294778823853,-0.7585495114326477,2.194471836090088,3.99627423286438,0.3071097135543823,-0.06442917138338089,0.24209566414356232,0.44971516728401184
476,26245,26242,-0.00512292655184865,-0.015190315432846546,0.9939587116241455,0.7729069590568542,-3.514390230178833,-0.8421885967254639,2.196350336074829,3.9962000846862793,0.3068147599697113,-0.15828974545001984,0.27660492062568665,0.47443634271621704
477,26255,26252,-0.036727990955114365,0.06387487798929214,0.9717535376548767,-1.6093599796295166,-2.0723211765289307,-0.8830780386924744,2.1957783699035645,3.996917724609375,0.30582180619239807,-0.005592277739197016,0.2721503973007202,0.45818236470222473
478,26265,26262,-0.009694376960396767,-0.021619433537125587,1.00388503074646,-3.73578143119812,-1.9914183616638184,-0.8790115118026733,2.1967756748199463,3.9967222213745117,0.3056276738643646,0.046814583241939545,0.2279951125383377,0.4259602725505829
