,timestamp_start,timestamp_end,acc.x,acc.y,acc.z,gyro.x,gyro.y,gyro.z,stateEstimate.x,stateEstimate.y,stateEstimate.z,stabilizer.pitch,stabilizer.roll,stabilizer.yaw
0,20609,20607,0.005281360819935799,-0.024599824100732803,1.08183753490448,-4.444436550140381,-2.5739212036132812,2.098146438598633,1.7552490234375,3.7890191078186035,0.16352297365665436,-1.580499529838562,-0.32847875356674194,1.709496259689331
1,20619,20617,0.017734916880726814,-0.060094088315963745,1.0681438446044922,-2.317164421081543,-1.9052821397781372,2.1961469650268555,1.7550184726715088,3.788501739501953,0.16504865884780884,-1.575927972793579,-0.2692100703716278,1.7569900751113892
2,20629,20627,0.026006443426012993,-0.0584067739546299,1.0818876028060913,0.8987900018692017,-6.187970161437988,1.634020209312439,1.755618929862976,3.7894976139068604,0.1665491759777069,-1.6296366453170776,-0.3424190282821655,1.765166997909546
3,20639,20637,0.02679317444562912,-0.02374046854674816,1.0645254850387573,0.7461004257202148,-8.443117141723633,1.573035478591919,1.7554043531417847,3.788695812225342,0.1680847853422165,-1.6086159944534302,-0.2137669026851654,1.8207401037216187
4,20649,20647,0.014087812043726444,0.01504937931895256,1.0851173400878906,-0.47559472918510437,-8.46330738067627,2.386256694793701,1.7553492784500122,3.788604497909546,0.16982008516788483,-1.4615817070007324,-0.24328526854515076,1.8247604370117188
5,20659,20657,0.0065471879206597805,-0.09728145599365234,1.0955690145492554,-1.0663650035858154,-9.34509563446045,1.885917067527771,1.7563250064849854,3.7889509201049805,0.171609029173851,-1.3866111040115356,-0.349485844373703,1.811731219291687
6,20669,20667,0.009875224903225899,-0.13594990968704224,1.123231291770935,1.107225775718689,-8.699541091918945,1.3587604761123657,1.755682349205017,3.78920316696167,0.17344985902309418,-1.2991300821304321,-0.37935540080070496,1.8244773149490356
7,20679,20677,0.015002255327999592,-0.04102301597595215,1.088708519935608,0.8590908050537109,-5.431729316711426,1.611997365951538,1.7556487321853638,3.787916421890259,0.17492716014385223,-1.214505910873413,-0.23772427439689636,1.8834887742996216
8,20689,20687,0.03788480907678604,-0.1168903112411499,1.049973964691162,0.36279061436653137,-4.121549606323242,1.3924394845962524,1.754102110862732,3.7883052825927734,0.17692145705223083,-1.16569983959198,-0.25723639130592346,1.8926243782043457
9,20699,20697,0.009278319776058197,-0.04124497249722481,1.101819396018982,1.4735846519470215,-3.6801211833953857,1.760809063911438,1.751846194267273,3.790541410446167,0.1791202276945114,-0.9204500317573547,-0.5642778873443604,1.8099498748779297
10,20709,20707,-0.022502409294247627,-0.04405764117836952,1.116969108581543,3.080188035964966,-4.515928745269775,2.3512983322143555,1.7539997100830078,3.7938127517700195,0.17840607464313507,-0.9356365203857422,-1.0957272052764893,1.6783273220062256
11,20719,20717,0.017000865191221237,-0.10724232345819473,1.0198317766189575,9.5935697555542,-0.7197834849357605,1.7983900308609009,1.7538902759552002,3.7931480407714844,0.1814376711845398,-0.932830274105072,-0.8550779223442078,1.7596527338027954
12,20729,20727,0.021368345245718956,-0.0003389580233488232,1.0418819189071655,16.585058212280273,1.0744129419326782,1.633236050605774,1.7552005052566528,3.7985544204711914,0.18214674293994904,-0.6678170561790466,-1.2815728187561035,1.6348098516464233
13,20739,20737,0.00921664759516716,0.06817079335451126,1.0732758045196533,24.261306762695312,-2.261850357055664,1.8334088325500488,1.7565112113952637,3.7991960048675537,0.18651530146598816,-0.75794517993927,-0.8491306304931641,1.7241549491882324
14,20749,20747,-0.010032891295850277,-0.01977797970175743,1.0517446994781494,27.492555618286133,-5.189648628234863,1.2085672616958618,1.7570383548736572,3.8000123500823975,0.18927814066410065,-0.8709290027618408,-0.4823359251022339,1.7890743017196655
15,20759,20757,-0.04548050835728645,-0.015155010856688023,1.046989917755127,26.163198471069336,-5.386298179626465,1.3310645818710327,1.7572741508483887,3.799605369567871,0.19181105494499207,-0.8503766059875488,-0.14779356122016907,1.8182976245880127
16,20769,20767,-0.01470199879258871,-0.04587830603122711,0.9993563294410706,20.116357803344727,-5.547693729400635,1.377342700958252,1.7579275369644165,3.800455331802368,0.19527606666088104,-0.9557098150253296,0.31056931614875793,1.8850311040878296
17,20779,20777,0.03966114670038223,-0.08567879348993301,1.0300800800323486,12.438132286071777,-8.162870407104492,0.2821640968322754,1.7591832876205444,3.7993555068969727,0.19773171842098236,-0.9571918249130249,0.7218440771102905,1.9404773712158203
18,20789,20787,0.022490642964839935,-0.08903539925813675,1.0227552652359009,3.78637433052063,-7.874269485473633,0.18885570764541626,1.7595769166946411,3.7988109588623047,0.20018209517002106,-0.8386384844779968,0.9778521060943604,1.9641804695129395
19,20799,20797,0.004873067140579224,-0.01988133229315281,1.02388596534729,-5.745447158813477,-3.944237232208252,-0.3214060962200165,1.759400486946106,3.798762083053589,0.20273126661777496,-0.7093809247016907,1.071755051612854,1.9676790237426758
20,20809,20807,0.035683125257492065,0.05013579875230789,0.9734787344932556,-12.222826957702637,-4.578936576843262,-0.07641138136386871,1.7604413032531738,3.7994844913482666,0.20618624985218048,-0.624384880065918,1.002677083015442,1.959342122077942
21,20819,20817,0.13424141705036163,-0.04852256551384926,0.9189594388008118,-15.872322082519531,-5.69874906539917,-0.21299436688423157,1.7603888511657715,3.800018548965454,0.2088298350572586,-0.5327015519142151,0.9024789333343506,1.9590235948562622
22,20829,20827,0.10176573693752289,-0.1281973421573639,0.9825901389122009,-13.462822914123535,-7.4550700187683105,-0.2878257632255554,1.76144540309906,3.7984201908111572,0.21122366189956665,-0.5071389079093933,0.955856442451477,1.9870951175689697
23,20839,20837,0.057748910039663315,-0.15158957242965698,0.9789968132972717,-11.563304901123047,-6.0887370109558105,-0.6436078548431396,1.761662244796753,3.7985146045684814,0.2117929905653,-0.3831232190132141,0.7820597887039185,1.983105182647705
24,20849,20847,0.012630773708224297,-0.1401619166135788,0.9455904960632324,-9.474163055419922,-4.292099952697754,-0.7468935251235962,1.7621023654937744,3.796731948852539,0.21396273374557495,-0.28475138545036316,0.8675129413604736,2.005737781524658
25,20859,20857,-0.006325963884592056,-0.1094704419374466,0.9300329089164734,-8.113203048706055,-2.9561216831207275,-0.21427024900913239,1.7685548067092896,3.808462142944336,0.2193070948123932,-1.0402878522872925,-0.7711339592933655,1.7248661518096924
26,20869,20867,-0.014022119343280792,-0.013856454752385616,0.9698723554611206,-2.870995044708252,-4.360567092895508,1.0387603044509888,1.7683759927749634,3.8087878227233887,0.22074508666992188,-0.8890798091888428,-0.7502514123916626,1.7433422803878784
27,20879,20877,0.010199567303061485,-0.015600347891449928,0.936123788356781,8.71198558807373,-8.124783515930176,1.187044620513916,1.7720824480056763,3.809798240661621,0.2235109955072403,-0.9620670676231384,-0.5888630747795105,1.7756417989730835
28,20889,20887,0.02824976295232773,-0.0005769913550466299,0.9208524823188782,20.941394805908203,-13.926345825195312,0.9534795880317688,1.7721234560012817,3.8076210021972656,0.2266652137041092,-0.8091545104980469,-0.2692103981971741,1.8267903327941895
29,20899,20897,0.006635289639234543,0.02607344463467598,0.9844032526016235,28.23226547241211,-19.873680114746094,0.4694998264312744,1.7720164060592651,3.8076224327087402,0.2293906807899475,-0.5735265016555786,0.06764266639947891,1.859548568725586
30,20909,20907,-0.026477588340640068,0.09206105768680573,1.0484004020690918,28.367780685424805,-24.230466842651367,-0.3450438380241394,1.7709535360336304,3.806361675262451,0.23209303617477417,-0.2535361051559448,0.5141886472702026,1.8880524635314941
31,20919,20917,-0.01655268482863903,0.05699721723794937,1.0268638134002686,21.008779525756836,-22.257461547851562,-0.9496142268180847,1.770374059677124,3.808685064315796,0.2345084547996521,0.20090647041797638,0.7245320677757263,1.8768707513809204
32,20929,20927,-0.02230493351817131,0.026164814829826355,0.9685203433036804,8.779183387756348,-14.132328987121582,-0.5361529588699341,1.7727330923080444,3.8089051246643066,0.23699340224266052,0.1476837694644928,0.9838821887969971,1.865740180015564
33,20939,20937,0.010775906033813953,-0.04988842457532883,0.9276000261306763,-2.5808286666870117,-7.477903366088867,-1.5156115293502808,1.7721868753433228,3.8085825443267822,0.23922289907932281,0.32010677456855774,1.200538992881775,1.86668062210083
34,20949,20947,0.0479130744934082,0.0143772317096591,0.9155193567276001,-10.919979095458984,-3.7154996395111084,-1.5180423259735107,1.7745256423950195,3.8089513778686523,0.2415173351764679,0.2315581738948822,1.2122442722320557,1.8460184335708618
35,20959,20957,0.04543392360210419,0.0791880413889885,0.9477381706237793,-16.549415588378906,-1.3582937717437744,-1.7172716856002808,1.7750425338745117,3.8094544410705566,0.24392181634902954,0.392738938331604,1.0616248846054077,1.8339285850524902
36,20969,20967,0.058165550231933594,0.05358176678419113,0.9375908970832825,-16.937528610229492,-2.9108235836029053,-1.6939618587493896,1.7755188941955566,3.8093106746673584,0.24603143334388733,0.510303795337677,1.1308557987213135,1.8317930698394775
37,20979,20977,0.02496967278420925,-0.010718218050897121,0.9440872073173523,-16.0599422454834,-2.5828206539154053,-1.3038219213485718,1.776821494102478,3.8094427585601807,0.24818187952041626,0.5509220957756042,0.9261592030525208,1.8126540184020996
38,20989,20987,0.06061418727040291,-0.03627874329686165,0.9504534006118774,-11.296490669250488,-5.631641387939453,-1.8418793678283691,1.7775012254714966,3.8108205795288086,0.250213086605072,0.6682730913162231,0.739571750164032,1.8067328929901123
39,20999,20997,0.008373452350497246,-0.02477799355983734,0.9216098785400391,-6.185536861419678,-5.7911882400512695,-1.7459183931350708,1.77910578250885,3.809248447418213,0.25216785073280334,0.7375625967979431,0.7739194631576538,1.7870385646820068
40,21009,21007,0.02570149302482605,-0.0573597252368927,0.917540967464447,-1.9097398519515991,-6.175444602966309,-1.0815480947494507,1.778971552848816,3.808161497116089,0.2518571615219116,0.8891085982322693,0.7962780594825745,1.7743358612060547
41,21019,21017,0.07534484565258026,-0.14504088461399078,0.9034245014190674,-0.98048335313797,-5.560007095336914,-1.2372113466262817,1.7785247564315796,3.807555913925171,0.2535158097743988,1.0349621772766113,0.8023112416267395,1.767624020576477
42,21029,21027,0.020944690331816673,-0.045472774654626846,0.946757435798645,-3.1132466793060303,-3.741049289703369,-0.4010234773159027,1.7783328294754028,3.8050501346588135,0.2549443244934082,0.9922609925270081,1.0549931526184082,1.7247098684310913
43,21039,21037,0.03872506693005562,-0.05171847715973854,0.9702472686767578,-6.301175594329834,-0.35988378524780273,-0.7092335820198059,1.7785168886184692,3.8055970668792725,0.25608888268470764,1.0111045837402344,0.9375996589660645,1.7219648361206055
44,21049,21047,0.008436087518930435,0.0030127817299216986,0.9488677382469177,-12.245285034179688,2.0948004722595215,-0.4071280062198639,1.7800019979476929,3.805126190185547,0.2576766908168793,0.960878312587738,0.8439546227455139,1.711785078048706
45,21059,21057,0.008995676413178444,-0.010419395752251148,0.9324663281440735,-16.112247467041016,2.9423341751098633,-0.4397089183330536,1.7800612449645996,3.80399489402771,0.25908413529396057,1.0253632068634033,0.8094903826713562,1.7091467380523682
46,21069,21067,0.018032625317573547,-0.018281282857060432,0.9330840110778809,-18.824281692504883,2.2370445728302,-0.2517865300178528,1.779670238494873,3.8038885593414307,0.2620057165622711,0.9864343404769897,0.6189132332801819,1.7089557647705078
47,21079,21077,0.001209706417284906,0.04038236290216446,0.962410569190979,-20.04283905029297,-0.5592144727706909,-0.2063731998205185,1.7796664237976074,3.8048009872436523,0.26338866353034973,0.8837894201278687,0.46376854181289673,1.6997497081756592
48,21089,21087,0.049336038529872894,0.010169386863708496,0.9410220980644226,-19.200950622558594,2.6215412616729736,0.34853696823120117,1.7794438600540161,3.80370831489563,0.26468220353126526,0.8938677310943604,0.3613380789756775,1.6877340078353882
49,21099,21097,0.04710469767451286,-0.05468982458114624,0.9330520629882812,-16.8577938079834,-1.2234781980514526,0.7052804231643677,1.7800763845443726,3.8034632205963135,0.26603996753692627,0.8801552653312683,0.11044807732105255,1.6995166540145874
50,21109,21107,-0.0020343910437077284,0.17700116336345673,0.9378267526626587,-13.138700485229492,-1.5752521753311157,0.3261657953262329,1.7802239656448364,3.803521156311035,0.2680966854095459,0.9118205904960632,-0.11335790902376175,1.711764931678772
51,21119,21117,-0.04772818833589554,0.11175673454999924,0.9457429051399231,-9.719882011413574,-1.2498998641967773,0.8563494682312012,1.78169846534729,3.805011749267578,0.26926863193511963,0.9575752019882202,-0.17073699831962585,1.7065844535827637
52,21129,21127,4.6456574636977166e-05,-0.005779148545116186,0.9490352869033813,-6.500410079956055,-0.12300583720207214,0.5564204454421997,1.7823364734649658,3.8051490783691406,0.2704654335975647,0.9876582026481628,-0.3346165418624878,1.722750186920166
53,21139,21137,0.005274898372590542,-0.09678243100643158,0.9383533000946045,-4.416781425476074,1.1053187847137451,0.7677941918373108,1.783119559288025,3.8069911003112793,0.2679946720600128,0.9935545921325684,-0.43934547901153564,1.7337640523910522
54,21149,21147,0.012014642357826233,-0.04580657556653023,0.9382649064064026,-3.589834451675415,2.6695775985717773,0.6360477805137634,1.7846661806106567,3.807060480117798,0.2688351273536682,0.9787253141403198,-0.4306211471557617,1.732057809829712
55,21159,21157,-0.01335473544895649,0.0014282242627814412,0.9695088267326355,-3.708893299102783,2.7786879539489746,-0.11829717457294464,1.7852011919021606,3.8070054054260254,0.2696516215801239,1.0127160549163818,-0.4908353388309479,1.742106556892395
56,21169,21167,-0.04908286780118942,0.0008511423948220909,0.9691494107246399,-5.068545341491699,4.444623947143555,0.5871436595916748,1.7852555513381958,3.807621717453003,0.26818376779556274,0.951103150844574,-0.4774087965488434,1.7346259355545044
57,21179,21177,0.011741801165044308,-0.055689241737127304,0.97090083360672,-6.4267258644104,5.638179779052734,-0.3802051246166229,1.7861244678497314,3.807663917541504,0.2688055634498596,0.8689255714416504,-0.5626055002212524,1.7441498041152954
58,21189,21187,0.0077878860756754875,0.0063796136528253555,0.9615737199783325,-7.15511417388916,5.843142509460449,-0.016675762832164764,1.7877634763717651,3.808820962905884,0.2693411409854889,0.7740381956100464,-0.6633239984512329,1.7481658458709717
59,21199,21197,0.0118899280205369,-0.0014484473504126072,0.9215664267539978,-6.8765549659729,5.453226089477539,-0.38489261269569397,1.7888612747192383,3.808908462524414,0.2715252935886383,0.756412148475647,-0.6919699311256409,1.7388654947280884
60,21209,21207,-0.009178484790027142,0.04968102648854256,0.9580163955688477,-6.091948986053467,3.532470941543579,-0.26031526923179626,1.788258671760559,3.80806827545166,0.27206894755363464,0.8097290992736816,-0.7246301770210266,1.725884199142456
61,21219,21217,0.005080036353319883,-0.017101159319281578,0.974670946598053,-4.724486351013184,2.8078765869140625,0.0705336257815361,1.7880901098251343,3.8101933002471924,0.2726225256919861,0.7300848364830017,-0.8966411352157593,1.7409570217132568
62,21229,21227,0.0032197493128478527,-0.0021482612937688828,1.0265684127807617,-1.7318181991577148,-1.5992341041564941,0.6092789769172668,1.788224697113037,3.811035394668579,0.2731066048145294,0.7334661483764648,-1.0294164419174194,1.7492753267288208
63,21239,21237,-0.016987496986985207,-0.07821320742368698,1.0137104988098145,1.1203367710113525,0.9201204180717468,0.21414725482463837,1.7891663312911987,3.81302809715271,0.2718137800693512,0.697127640247345,-1.0303634405136108,1.755168080329895
64,21249,21247,-0.001309861778281629,-0.10538437962532043,0.9607994556427002,2.902190923690796,6.181911945343018,0.18004779517650604,1.7913295030593872,3.8139796257019043,0.27220192551612854,0.5495930910110474,-0.9823593497276306,1.762898564338684
65,21259,21257,-0.01698490045964718,-0.005106979515403509,0.9640524983406067,3.183628797531128,6.168623924255371,0.2687954604625702,1.790432333946228,3.813671588897705,0.27262112498283386,0.58662348985672,-0.9076745510101318,1.7490684986114502
66,21269,21267,0.034479573369026184,-0.005206899251788855,0.9727624654769897,1.6465349197387695,7.960816383361816,0.19723354279994965,1.7899402379989624,3.814929246902466,0.2733950614929199,0.5448317527770996,-0.9038012027740479,1.7530657052993774
67,21279,21277,0.0034363972954452038,-0.037657372653484344,1.019386887550354,-0.4721689820289612,9.573535919189453,-0.3499804735183716,1.7903943061828613,3.815079689025879,0.2737317383289337,0.397421270608902,-0.9183157086372375,1.7664408683776855
68,21289,21287,0.05078442767262459,-0.09196434915065765,0.9920250177383423,-0.6682270169258118,7.7910871505737305,-0.8735077977180481,1.7900738716125488,3.816037893295288,0.27404481172561646,0.3973775804042816,-0.8879074454307556,1.7492786645889282
69,21299,21297,0.005794523283839226,-0.11790909618139267,0.9864290952682495,-1.34865403175354,4.844091892242432,-0.06195167824625969,1.7902977466583252,3.816025972366333,0.27458176016807556,0.32886555790901184,-0.94471275806427,1.7473697662353516
70,21309,21307,0.02872563898563385,-0.043458472937345505,0.9765362739562988,-1.4536055326461792,1.3605163097381592,-0.4261713922023773,1.7894880771636963,3.8166344165802,0.2749447226524353,0.3002886176109314,-1.0008578300476074,1.7458033561706543
71,21319,21317,-0.014119686558842659,0.01858360506594181,1.0571928024291992,-0.832198441028595,-1.214860439300537,0.08974777162075043,1.7899607419967651,3.816387414932251,0.2752718925476074,0.25041133165359497,-0.9769277572631836,1.7438561916351318
72,21329,21327,-0.008073631674051285,-0.013043130747973919,1.0383703708648682,0.1872386485338211,0.9996265172958374,-0.5798185467720032,1.789563536643982,3.8163697719573975,0.27562886476516724,0.23087310791015625,-0.9434518218040466,1.740143895149231
73,21339,21337,0.0031989167910069227,0.0072484444826841354,1.0214554071426392,0.27155667543411255,2.1181559562683105,-0.9269341230392456,1.789084553718567,3.8181607723236084,0.27652618288993835,0.3302558362483978,-0.9728193879127502,1.7222050428390503
74,21349,21347,-0.002126421546563506,-0.012462419457733631,1.0537545680999756,1.3687185049057007,3.8833847045898438,-0.8894257545471191,1.790198802947998,3.8192710876464844,0.27702876925468445,0.1864045262336731,-0.9911729693412781,1.7336654663085938
75,21359,21357,0.014387447386980057,-0.023892764002084732,0.9648151993751526,1.6549426317214966,3.0952258110046387,-0.601996660232544,1.7871440649032593,3.820181131362915,0.27753880620002747,0.400210976600647,-0.9907689094543457,1.6885087490081787
76,21369,21367,0.007116932887583971,0.012078342027962208,1.0402872562408447,1.982669472694397,4.100361347198486,-0.36622777581214905,1.788382887840271,3.8211615085601807,0.2768157720565796,0.30276235938072205,-0.9791427850723267,1.692559838294983
77,21379,21377,0.01615173928439617,-0.03439226746559143,0.9979169368743896,3.397122859954834,4.702188491821289,-0.493558406829834,1.7879396677017212,3.82155704498291,0.2772759199142456,0.2646404802799225,-0.9569058418273926,1.687545895576477
78,21389,21387,-0.009606829844415188,0.016793765127658844,1.0308736562728882,3.528566837310791,5.682254314422607,-0.27878445386886597,1.7883172035217285,3.8210926055908203,0.277768075466156,0.14179906249046326,-0.9109638333320618,1.6934059858322144
79,21399,21397,0.02073827013373375,-0.018665004521608353,1.0056742429733276,4.509573936462402,5.37559700012207,-0.48552122712135315,1.7877486944198608,3.8215177059173584,0.27603575587272644,0.15357249975204468,-0.9388109445571899,1.68083655834198
80,21409,21407,-0.018729008734226227,0.09807661175727844,1.0340882539749146,4.125473499298096,6.713212013244629,-0.02848358266055584,1.7871919870376587,3.820796251296997,0.2764129042625427,0.08564142882823944,-0.7973874807357788,1.6746904850006104
81,21419,21417,0.019321786239743233,-0.018770556896924973,0.9917075037956238,3.0539958477020264,7.4150567054748535,0.0691286027431488,1.787734866142273,3.8208541870117188,0.27679750323295593,0.0018510749796405435,-0.743981659412384,1.6751126050949097
82,21429,21427,0.020642785355448723,0.0375872403383255,1.0404574871063232,2.788959503173828,5.8617448806762695,-0.9908247590065002,1.7873010635375977,3.821807384490967,0.27713826298713684,-0.08648604899644852,-0.777389407157898,1.6756974458694458
83,21439,21437,0.00961242988705635,-0.016743293032050133,1.0111950635910034,2.801675796508789,4.639780044555664,-0.8313153386116028,1.7882057428359985,3.8227882385253906,0.2775352895259857,-0.22737643122673035,-0.8101478219032288,1.678192377090454
84,21449,21447,-0.002375994576141238,-0.11318621784448624,0.9888669848442078,3.636857748031616,2.928406000137329,-0.7717695832252502,1.7887674570083618,3.823362112045288,0.2779396176338196,-0.33655545115470886,-0.8304153084754944,1.678544521331787
85,21459,21457,0.023250199854373932,-0.009830008260905743,1.0278066396713257,4.643979549407959,3.075289249420166,-0.39819422364234924,1.7871060371398926,3.823415756225586,0.2784141004085541,-0.2552635371685028,-0.7560150027275085,1.6563379764556885
86,21469,21467,0.04072931781411171,-0.06886626780033112,1.004353642463684,7.52829122543335,-1.329135775566101,-0.3497752547264099,1.7874161005020142,3.823085308074951,0.28149083256721497,-0.3203219473361969,-0.6573712825775146,1.6591002941131592
87,21479,21477,0.03505506366491318,-0.011505072005093098,1.0571964979171753,8.638023376464844,-2.0540459156036377,-0.31161123514175415,1.78728187084198,3.823870897293091,0.2821202874183655,-0.32318824529647827,-0.5957149267196655,1.6556411981582642
88,21489,21487,0.010268202051520348,-0.021394042298197746,1.0169858932495117,7.537136077880859,-0.5016735792160034,0.21109150350093842,1.7869477272033691,3.8243296146392822,0.2828119397163391,-0.3205796182155609,-0.5206561088562012,1.6549105644226074
89,21499,21497,0.02435912750661373,-0.09910895675420761,1.0410690307617188,6.813171863555908,6.770740032196045,-0.5304915904998779,1.7871806621551514,3.8234684467315674,0.28391480445861816,-0.34504374861717224,-0.3891143202781677,1.662217378616333
90,21509,21507,-0.019447272643446922,0.029535233974456787,0.9950190186500549,3.7844297885894775,13.90210247039795,0.18026185035705566,1.7880810499191284,3.8248422145843506,0.28466466069221497,-0.4870491921901703,-0.4273293614387512,1.6626698970794678
91,21519,21517,0.008014596998691559,0.014673198573291302,1.0244752168655396,1.0489405393600464,19.021081924438477,0.2750263810157776,1.7889713048934937,3.8255817890167236,0.28537625074386597,-0.7313336730003357,-0.42392849922180176,1.672977089881897
92,21529,21527,0.01245278399437666,-0.06052910163998604,0.977907121181488,0.46427038311958313,18.050697326660156,0.6367207169532776,1.7882969379425049,3.8270506858825684,0.28469517827033997,-0.8994448184967041,-0.4568600654602051,1.6670398712158203
93,21539,21537,0.0004908081027679145,-0.07366462051868439,1.0674141645431519,2.5763890743255615,20.174070358276367,-0.32582077383995056,1.7886123657226562,3.8281497955322266,0.2853485941886902,-1.1493773460388184,-0.49029192328453064,1.6684540510177612
94,21549,21547,0.012956414371728897,-0.05559356510639191,0.9775587916374207,5.0510382652282715,14.49386215209961,-0.23595237731933594,1.7864248752593994,3.827812671661377,0.2862924039363861,-1.1171069145202637,-0.41069495677948,1.6483094692230225
95,21559,21557,0.006855812855064869,-0.057846926152706146,0.9861992597579956,7.968917369842529,12.80660343170166,-0.12290811538696289,1.788187861442566,3.828824758529663,0.2869972586631775,-1.396100640296936,-0.2908760905265808,1.6620856523513794
96,21569,21567,0.02066379226744175,0.001367453602142632,1.0115118026733398,9.210620880126953,10.810807228088379,-0.3800261914730072,1.7862874269485474,3.8297359943389893,0.2895960509777069,-1.3160676956176758,-0.2097775936126709,1.644580364227295
97,21579,21577,0.04290933907032013,0.008103873580694199,0.98252934217453,8.564440727233887,4.03552770614624,-0.5339806079864502,1.7877203226089478,3.83013916015625,0.2904106378555298,-1.4916106462478638,-0.1097910925745964,1.6489101648330688
98,21589,21587,0.020050274208188057,0.0012092130491510034,1.0059322118759155,7.710153102874756,3.1662967205047607,-1.341925024986267,1.788541316986084,3.8309974670410156,0.2911919057369232,-1.5647594928741455,-0.020502999424934387,1.6466562747955322
99,21599,21597,0.031041068956255913,-0.010097196325659752,0.9732731580734253,5.667125701904297,3.0032036304473877,-1.3155090808868408,1.7887399196624756,3.8317854404449463,0.28911691904067993,-1.6104986667633057,-0.022645097225904465,1.6249454021453857
100,21609,21607,-0.012370627373456955,0.06519083678722382,0.9844157099723816,3.5012552738189697,3.0988340377807617,-0.819841206073761,1.7889705896377563,3.832296371459961,0.28973978757858276,-1.6449729204177856,0.021989425644278526,1.6155954599380493
101,21619,21617,-0.014527508988976479,0.12506762146949768,0.9699988961219788,2.631883144378662,3.4170498847961426,-0.5543245673179626,1.789775013923645,3.831989049911499,0.29035791754722595,-1.6691241264343262,0.11151839047670364,1.6221903562545776
102,21629,21627,0.026414664462208748,0.1862460970878601,0.9193187952041626,1.3151860237121582,2.438596248626709,-0.6559244990348816,1.7907934188842773,3.832970142364502,0.2905066907405853,-1.7780276536941528,0.1036628782749176,1.6109453439712524
103,21639,21637,-0.011009985581040382,0.0931657999753952,0.9791451096534729,2.046374559402466,0.5378627181053162,-0.9167002439498901,1.7909164428710938,3.833439588546753,0.2909930944442749,-1.7865145206451416,0.1588059514760971,1.6132023334503174
104,21649,21647,-0.0018536897841840982,-0.0601448118686676,0.9921266436576843,2.9967188835144043,-4.773747444152832,-0.32292109727859497,1.790218710899353,3.83388614654541,0.2915577292442322,-1.6998226642608643,0.14395441114902496,1.595488429069519
105,21659,21657,-0.08791805058717728,-0.03192610666155815,1.1000943183898926,4.2476372718811035,-4.711465358734131,-0.23397347331047058,1.7910956144332886,3.8343005180358887,0.2919875979423523,-1.7916699647903442,0.14664778113365173,1.5837438106536865
106,21669,21667,-0.04054451361298561,-0.021904243156313896,1.0227744579315186,4.61768102645874,-2.101210832595825,-0.052938491106033325,1.791599988937378,3.8343050479888916,0.29538658261299133,-1.7273660898208618,0.1684853434562683,1.5763885974884033
107,21679,21677,-0.022682929411530495,-0.004582926630973816,0.9826422333717346,3.702949285507202,1.1536866426467896,0.30260175466537476,1.7923672199249268,3.8338167667388916,0.2961648404598236,-1.697838544845581,0.2707921862602234,1.5911989212036133
108,21689,21687,0.020831802859902382,0.0153809804469347,0.9758927822113037,2.6459693908691406,2.0713372230529785,0.6056928634643555,1.793325662612915,3.835689067840576,0.29683077335357666,-1.7746027708053589,0.2060784548521042,1.5636097192764282
109,21699,21697,0.08501632511615753,-0.03338411822915077,0.9700821042060852,2.3430984020233154,0.9766979813575745,0.5183352828025818,1.7934601306915283,3.835430860519409,0.2976471781730652,-1.6983658075332642,0.28855326771736145,1.5825546979904175
110,21709,21707,0.06412174552679062,-0.11467574536800385,0.9954624176025391,2.8204572200775146,-0.17651529610157013,-0.20112894475460052,1.7938263416290283,3.83682918548584,0.2983878552913666,-1.7573997974395752,0.21617557108402252,1.5551772117614746
111,21719,21717,0.009597274474799633,-0.11310993134975433,0.998810350894928,3.477555274963379,-0.5997083187103271,-0.35835883021354675,1.7943190336227417,3.8362345695495605,0.29919564723968506,-1.7108895778656006,0.3078378438949585,1.57235586643219
112,21729,21727,0.05060942471027374,-0.1066761389374733,0.9333939552307129,3.427825927734375,-0.8079266548156738,-0.5141776204109192,1.7951397895812988,3.837236166000366,0.3053634762763977,-1.7266970872879028,0.3257561922073364,1.565462350845337
113,21739,21737,0.03981731832027435,-0.012321877293288708,0.9709490537643433,4.426508903503418,-5.09825325012207,-0.046110693365335464,1.7974833250045776,3.8367037773132324,0.3063150644302368,-1.801038146018982,0.41927579045295715,1.575422763824463
114,21749,21747,0.016986588016152382,-0.020542433485388756,0.9821450114250183,4.056813716888428,-1.7952370643615723,-0.3068780303001404,1.798660159111023,3.8369998931884766,0.3072665333747864,-1.7186908721923828,0.4526239037513733,1.5721029043197632
115,21759,21757,0.033515363931655884,-0.05147375538945198,0.9377698302268982,2.7983314990997314,-5.313963890075684,-0.5355385541915894,1.79843008518219,3.8366477489471436,0.3077335059642792,-1.603134274482727,0.5522682666778564,1.5881879329681396
116,21769,21767,0.05289973318576813,-0.09732222557067871,0.9308879375457764,1.9151945114135742,-7.235229015350342,-0.3248632848262787,1.801844596862793,3.837747812271118,0.3084188401699066,-1.7777209281921387,0.4628456234931946,1.5389537811279297
117,21779,21777,0.0036666537635028362,-0.07482494413852692,0.9695889353752136,0.4465780258178711,-8.182890892028809,-0.32998040318489075,1.801557183265686,3.8377301692962646,0.3093227744102478,-1.5757830142974854,0.5253260731697083,1.5565648078918457
118,21789,21787,-0.07082463055849075,-0.08084424585103989,1.0436666011810303,0.4971829056739807,-10.151512145996094,-0.5010427236557007,1.8025912046432495,3.837570905685425,0.31015142798423767,-1.442774772644043,0.5576333403587341,1.56391179561615
119,21799,21797,-0.0385776162147522,-0.003608528757467866,0.9978260397911072,0.0754343718290329,-9.565455436706543,-0.4708176851272583,1.8053860664367676,3.838359832763672,0.31115052103996277,-1.4400609731674194,0.5113158226013184,1.5398457050323486
120,21809,21807,0.023152204230427742,0.05529913306236267,0.9287098050117493,-0.038538821041584015,-8.2015962600708,-0.4410404562950134,1.8071212768554688,3.838371515274048,0.31184813380241394,-1.4355015754699707,0.538406491279602,1.5343090295791626
121,21819,21817,0.002888212213292718,-0.0075424183160066605,0.9487215876579285,0.29832723736763,-8.09519100189209,-0.693107008934021,1.808890461921692,3.8383095264434814,0.31260985136032104,-1.3634889125823975,0.5608392953872681,1.5337897539138794
122,21829,21827,0.004513422027230263,0.015755360946059227,0.9338902235031128,0.46160486340522766,-7.960663795471191,-0.41276979446411133,1.8098174333572388,3.838308095932007,0.31125396490097046,-1.2859890460968018,0.5881592035293579,1.5321133136749268
123,21839,21837,0.027242129668593407,0.02553662285208702,0.948447585105896,0.00022811070084571838,-8.222369194030762,-0.9505231380462646,1.8101255893707275,3.8381693363189697,0.31194689869880676,-1.0514724254608154,0.6119105815887451,1.5428061485290527
124,21849,21847,0.03273099660873413,0.01576649397611618,0.9780939221382141,-0.5951727628707886,-9.372929573059082,-1.1202293634414673,1.8116410970687866,3.8392181396484375,0.3124863803386688,-0.9729210138320923,0.5514235496520996,1.5164258480072021
125,21859,21857,0.011346654035151005,-0.04039322957396507,0.9586851000785828,-1.9915714263916016,-7.4157280921936035,-1.042819857597351,1.812691569328308,3.839224338531494,0.3151247203350067,-0.8821823000907898,0.5606145858764648,1.5070663690567017
126,21869,21867,0.009617366828024387,-0.044468123465776443,0.9978825449943542,-2.275233030319214,-6.082830429077148,-1.6707172393798828,1.8162840604782104,3.839707851409912,0.3156377971172333,-0.9705847501754761,0.5446775555610657,1.4784634113311768
127,21879,21877,-0.0048124585300683975,-0.0002407641732133925,1.0238815546035767,-2.7985894680023193,-5.38205099105835,-1.6546510457992554,1.8181802034378052,3.84082293510437,0.31611111760139465,-0.9856799244880676,0.44570088386535645,1.440631628036499
128,21889,21887,0.008050492964684963,0.023165525868535042,0.9828199148178101,-1.7159026861190796,-6.868264675140381,-1.1953693628311157,1.8202000856399536,3.840731382369995,0.31670844554901123,-0.9260655045509338,0.41946133971214294,1.424561619758606
129,21899,21897,-0.007579750847071409,0.10288944095373154,0.9294788241386414,-0.6926754117012024,-5.18880558013916,-2.611156940460205,1.8210771083831787,3.8412253856658936,0.3145204186439514,-0.7804191708564758,0.41447877883911133,1.4180662631988525
130,21909,21907,0.031822435557842255,0.0902964323759079,0.915425717830658,0.8906102180480957,-6.347296237945557,-2.671248197555542,1.8222401142120361,3.842257261276245,0.31482410430908203,-0.7144265174865723,0.35279399156570435,1.3850226402282715
131,21919,21917,0.04107028245925903,0.08342625200748444,0.9214156270027161,1.75702965259552,-6.52016544342041,-2.7511138916015625,1.824974775314331,3.842108726501465,0.3150464594364166,-0.69947749376297,0.398603230714798,1.3589552640914917
132,21929,21927,0.03614257276058197,0.06184113770723343,0.9083667397499084,2.8015332221984863,-10.57889175415039,-2.2687575817108154,1.8258146047592163,3.8418850898742676,0.31279563903808594,-0.5123437643051147,0.453242689371109,1.3476636409759521
133,21939,21937,0.016670051962137222,-0.03753543645143509,0.9444825649261475,2.980225086212158,-5.035163402557373,-2.484851837158203,1.8279770612716675,3.841618776321411,0.31272101402282715,-0.44421297311782837,0.522296130657196,1.3252294063568115
134,21949,21947,0.03009548783302307,0.01761600561439991,0.9621210694313049,1.900094747543335,-4.766356945037842,-2.1147425174713135,1.8306804895401,3.8417022228240967,0.3125699460506439,-0.4391300082206726,0.5890287160873413,1.299015760421753
135,21959,21957,0.015230657532811165,0.0424213744699955,1.0001437664031982,-1.3188426494598389,-5.0628743171691895,-2.326967477798462,1.8308970928192139,3.8415565490722656,0.30983400344848633,-0.27500206232070923,0.6264625191688538,1.2869871854782104
136,21969,21967,0.014053691178560257,-0.02111644856631756,0.9968898296356201,-4.178294658660889,-6.076796531677246,-2.2906124591827393,1.8348230123519897,3.842172622680664,0.3094122111797333,-0.35988301038742065,0.600227415561676,1.2509117126464844
137,21979,21977,-0.03796670585870743,-0.06402122229337692,1.0330952405929565,-5.503809928894043,-7.9221110343933105,-2.298210620880127,1.8347175121307373,3.842862367630005,0.3093118667602539,-0.09966535866260529,0.5292556881904602,1.2449589967727661
138,21989,21987,-0.0467270202934742,-0.03851649910211563,1.037700891494751,-6.6061506271362305,-8.205351829528809,-2.2326343059539795,1.8358736038208008,3.8432235717773438,0.30915915966033936,0.07155854254961014,0.43401995301246643,1.2269688844680786
139,21999,21997,-0.06880482286214828,0.021877475082874298,1.0206879377365112,-6.638082504272461,-6.679004669189453,-1.6693918704986572,1.8390731811523438,3.84389591217041,0.3120313286781311,-0.018469471484422684,0.3236011266708374,1.1916556358337402
140,22009,22007,-0.06967949122190475,0.061339862644672394,1.0231128931045532,-5.477329730987549,-0.48753899335861206,-1.5637325048446655,1.8398734331130981,3.844531536102295,0.31209704279899597,0.10921889543533325,0.2225216180086136,1.1817619800567627
141,22019,22017,0.028187135234475136,0.024427419528365135,1.0168148279190063,-2.080963373184204,0.17146632075309753,-1.9207831621170044,1.84221613407135,3.8431825637817383,0.3121498227119446,0.07414192706346512,0.31280919909477234,1.1659114360809326
142,22029,22027,-0.0008869606535881758,-0.03395280987024307,1.003401517868042,-1.3130114078521729,0.4770577549934387,-2.195739984512329,1.8449677228927612,3.843595027923584,0.3116735816001892,-0.052950989454984665,0.2792881727218628,1.1355191469192505
143,22039,22037,0.019667360931634903,-0.010446181520819664,1.0152350664138794,0.18346545100212097,-0.5788804888725281,-1.8023827075958252,1.8456593751907349,3.843538761138916,0.3117173910140991,-0.005593311972916126,0.2637580931186676,1.1163326501846313
144,22049,22047,0.03916814923286438,-0.08039280027151108,1.0185761451721191,0.22814086079597473,-2.5162014961242676,-2.029808759689331,1.8462798595428467,3.844259023666382,0.31185492873191833,0.1465282291173935,0.275397926568985,1.1085596084594727
145,22059,22057,0.02112857811152935,-0.1289438158273697,0.983439564704895,0.7505658268928528,-5.83413028717041,-2.02069354057312,1.849388599395752,3.8445796966552734,0.3070150911808014,0.0033715309109538794,0.2856970429420471,1.0742521286010742
146,22069,22067,-0.0002579236461315304,0.05502665415406227,1.0129755735397339,0.05855594202876091,-7.207767963409424,-1.737105369567871,1.8488073348999023,3.8451621532440186,0.3069666028022766,0.2592977285385132,0.2174798548221588,1.0701789855957031
147,22079,22077,-0.023620527237653732,0.011214579455554485,1.017255425453186,-0.12287195771932602,-8.302375793457031,-1.0961222648620605,1.8485292196273804,3.84519624710083,0.3068220913410187,0.41864722967147827,0.22060340642929077,1.0577529668807983
148,22089,22087,0.020937062799930573,-0.002556800376623869,1.0253335237503052,-0.5760043263435364,-3.535147190093994,-1.4922330379486084,1.8506488800048828,3.844738245010376,0.31087663769721985,0.4238169193267822,0.23151925206184387,1.036003828048706
149,22099,22097,-0.02242985926568508,-0.002430875785648823,1.0469352006912231,-0.40158507227897644,-1.2792645692825317,-1.4508483409881592,1.8523064851760864,3.845015525817871,0.31094157695770264,0.4268043339252472,0.22933220863342285,1.0204061269760132
150,22109,22107,-0.0013838110025972128,0.029835253953933716,1.0338224172592163,-1.815482258796692,2.587157964706421,-2.4211277961730957,1.854009747505188,3.845526695251465,0.31109946966171265,0.46383994817733765,0.21586358547210693,1.0039448738098145
151,22119,22117,0.008727328851819038,-0.0168367400765419,1.0329395532608032,-0.698959469795227,3.7039644718170166,-2.379370927810669,1.8566557168960571,3.845489740371704,0.3111940026283264,0.28491461277008057,0.19300763309001923,0.9728702306747437
152,22129,22127,0.0030301916413009167,0.005434808321297169,1.0282491445541382,-0.5923581123352051,3.572334051132202,-2.441511392593384,1.857080340385437,3.8454644680023193,0.3103364408016205,0.34044551849365234,0.1832781434059143,0.9530365467071533
153,22139,22137,0.010212903842329979,-0.05202160403132439,0.9884703755378723,-0.33600711822509766,2.6533689498901367,-2.609394073486328,1.8575098514556885,3.8451645374298096,0.31056156754493713,0.39532724022865295,0.17725954949855804,0.9319555759429932
154,22149,22147,0.012508255429565907,-0.0240000169724226,1.011020302772522,0.509136438369751,1.7830644845962524,-2.4565227031707764,1.859578013420105,3.844578266143799,0.31066274642944336,0.2984892725944519,0.2576811909675598,0.8963063359260559
155,22159,22157,0.02834279276430607,-0.054808132350444794,0.9536092877388,1.1631172895431519,0.9555823802947998,-1.8198344707489014,1.8609470129013062,3.8445281982421875,0.3085252344608307,0.3059968650341034,0.26822197437286377,0.8750664591789246
156,22169,22167,0.03390185907483101,-0.04940786957740784,0.9644551873207092,0.4418756365776062,-0.3544660210609436,-1.7506474256515503,1.8631454706192017,3.8452329635620117,0.3084944784641266,0.25379863381385803,0.20091331005096436,0.8618521690368652
157,22179,22177,0.04375224560499191,-0.014794636517763138,1.033137321472168,1.281318187713623,-4.853105068206787,-1.5788863897323608,1.8633859157562256,3.8461196422576904,0.30859532952308655,0.3932816982269287,0.2180018275976181,0.8545605540275574
158,22189,22187,-0.015672771260142326,-0.009505568072199821,1.066413402557373,0.9368489384651184,-3.113785982131958,-1.6971168518066406,1.8637717962265015,3.846004009246826,0.30675455927848816,0.5821241140365601,0.24027657508850098,0.8410770893096924
159,22199,22197,0.02991236373782158,-0.0784970074892044,1.0029267072677612,-0.5450446009635925,-0.2546720504760742,-1.7130053043365479,1.8654025793075562,3.8460357189178467,0.30666545033454895,0.43096888065338135,0.2353602796792984,0.8275349736213684
160,22209,22207,0.02035646140575409,-0.010573207400739193,1.0335556268692017,-1.3557270765304565,1.9821815490722656,-1.8016544580459595,1.865577220916748,3.8473587036132812,0.30662018060684204,0.44992175698280334,0.30344173312187195,0.8184711337089539
161,22219,22217,0.007746334653347731,-0.007087856996804476,1.008918285369873,-3.8715665340423584,7.1939263343811035,-1.3960597515106201,1.866013765335083,3.8472585678100586,0.30672287940979004,0.49637371301651,0.2661294639110565,0.8061798214912415
162,22229,22227,0.031308364123106,-0.03534497320652008,0.9527143239974976,-3.1236469745635986,5.628856182098389,-1.7049763202667236,1.8672058582305908,3.8480608463287354,0.30647003650665283,0.4662514328956604,0.19620095193386078,0.7980456948280334
163,22239,22237,0.023119531571865082,0.030560310930013657,1.0392321348190308,-2.7376575469970703,6.173027038574219,-1.7967420816421509,1.8702832460403442,3.847867250442505,0.30633899569511414,0.2048620581626892,0.1405186951160431,0.7729060053825378
164,22249,22247,-0.028604401275515556,-0.0774427205324173,1.0495011806488037,-0.9070166945457458,4.995866775512695,-1.7686762809753418,1.872591495513916,3.848456621170044,0.3061787188053131,0.051331888884305954,0.10136328637599945,0.7553133964538574
165,22259,22257,-0.023039156571030617,-0.010622682981193066,1.0754029750823975,1.5633292198181152,-0.09693679213523865,-2.1465229988098145,1.8732662200927734,3.8485710620880127,0.3087463676929474,0.006778673268854618,0.09575161337852478,0.7440544366836548
166,22269,22267,-0.019702933728694916,-0.02317522093653679,1.0552175045013428,1.1039059162139893,-0.8949453234672546,-1.8441846370697021,1.8750758171081543,3.8486342430114746,0.30934569239616394,0.12246555089950562,0.20117950439453125,0.7144172191619873
167,22279,22277,0.0058322749100625515,-0.06613288819789886,1.0369679927825928,1.7543529272079468,-6.634497165679932,-1.251055121421814,1.875162959098816,3.8489184379577637,0.30936357378959656,0.16187934577465057,0.20685075223445892,0.6978564262390137
168,22289,22287,-0.004013866186141968,0.14898866415023804,1.0142234563827515,-0.791545033454895,-4.2405314445495605,-1.30663001537323,1.875366449356079,3.8496816158294678,0.3113481402397156,0.20796853303909302,0.1357380598783493,0.701447606086731
169,22299,22297,0.00219776201993227,0.01866673119366169,1.0098400115966797,-1.0903395414352417,-5.2034759521484375,-0.4602237045764923,1.8752896785736084,3.8496925830841064,0.3118772506713867,0.3743579387664795,0.19145099818706512,0.6845031380653381
170,22309,22307,0.05136309564113617,0.010176003910601139,1.0179905891418457,-2.306197166442871,-2.2997212409973145,-0.715985119342804,1.876584529876709,3.849302053451538,0.3123737573623657,0.4430539011955261,0.16000819206237793,0.6711180806159973
171,22319,22317,0.03579651191830635,-0.08983351290225983,1.0106151103973389,-3.537658214569092,1.8865066766738892,-1.4524461030960083,1.8780012130737305,3.849421977996826,0.31288841366767883,0.37283629179000854,0.10974594205617905,0.6625180840492249
172,22329,22327,0.01257825456559658,-0.11455406248569489,0.9965579509735107,-3.2921602725982666,5.306212902069092,-1.7803171873092651,1.8791792392730713,3.850492000579834,0.31533050537109375,0.3304934799671173,0.04655023291707039,0.6584967374801636
173,22339,22337,0.016183696687221527,-0.1574537605047226,0.9724678993225098,-2.5731396675109863,6.2085113525390625,-2.3946595191955566,1.8806653022766113,3.851065158843994,0.31596168875694275,0.24067376554012299,-0.007341803517192602,0.6420320868492126
174,22349,22347,0.030179405584931374,-0.1050812229514122,0.9805170297622681,-1.1581684350967407,6.00123405456543,-2.4443488121032715,1.8813995122909546,3.850825786590576,0.31660059094429016,0.22277724742889404,0.03537195175886154,0.6150307655334473
175,22359,22357,-0.0013792159734293818,-0.03772581368684769,0.9839006662368774,0.49344107508659363,5.215324878692627,-2.175018787384033,1.883252501487732,3.851398468017578,0.3164346516132355,0.13552041351795197,0.020881131291389465,0.5957702398300171
176,22369,22367,-0.011611569672822952,-0.002376909600570798,0.9602977633476257,2.295840263366699,2.2834322452545166,-1.9173482656478882,1.8843770027160645,3.850625514984131,0.31692883372306824,0.07167761772871017,0.11151380836963654,0.5672950744628906
177,22379,22377,0.02746494486927986,-0.027940500527620316,0.9544368982315063,2.3129289150238037,1.5655863285064697,-2.0312881469726562,1.8853286504745483,3.8503823280334473,0.3173971176147461,0.05672602355480194,0.13717946410179138,0.5484999418258667
178,22389,22387,0.02543415129184723,-0.006494578439742327,0.9811528325080872,1.778045415878296,-0.7702156901359558,-1.9161548614501953,1.8864996433258057,3.8504176139831543,0.31853941082954407,0.056195858865976334,0.15933796763420105,0.5282336473464966
179,22399,22397,-0.011907313950359821,0.0353400856256485,1.0415666103363037,-0.12852197885513306,-2.3196933269500732,-2.019852876663208,1.8865572214126587,3.850445032119751,0.3190935552120209,0.16870760917663574,0.15998990833759308,0.5162517428398132
180,22409,22407,-0.01979186199605465,0.013925034552812576,1.043843150138855,-0.9936825037002563,-3.2163403034210205,-2.3181097507476807,1.8877373933792114,3.8503975868225098,0.3196016550064087,0.2196863293647766,0.1434156596660614,0.5028778910636902
181,22419,22417,-0.02828698791563511,-0.04729635268449783,1.0397497415542603,-3.741361379623413,-1.2524909973144531,-1.8569482564926147,1.8886332511901855,3.8520002365112305,0.3201400935649872,0.25828149914741516,0.09531375020742416,0.48202940821647644
182,22429,22427,-0.06798703968524933,-0.09227615594863892,1.0547642707824707,-4.5171918869018555,0.3757859170436859,-1.9550807476043701,1.8898276090621948,3.8521389961242676,0.3229210376739502,0.2700517773628235,0.019977958872914314,0.46471357345581055
183,22439,22437,-0.09610442817211151,-0.04729746654629707,1.0286169052124023,-3.743002414703369,1.1432489156723022,-2.606790065765381,1.892311692237854,3.8512229919433594,0.32363325357437134,0.10169147700071335,0.09198763221502304,0.4311445951461792
184,22449,22447,-0.08918467909097672,0.011361231096088886,0.9951967597007751,-2.1695480346679688,2.395129919052124,-2.537794589996338,1.8920106887817383,3.852175235748291,0.3245711624622345,0.22077690064907074,0.01275434996932745,0.4102405309677124
185,22459,22457,-0.0780927836894989,0.0350799486041069,0.9741658568382263,-1.7334275245666504,3.845829963684082,-2.459596872329712,1.8934000730514526,3.852248430252075,0.32091784477233887,0.16269418597221375,-0.0410509817302227,0.38671180605888367
186,22469,22467,-0.07020603120326996,0.03370949998497963,0.9625234007835388,-1.2706817388534546,4.255392551422119,-2.388206958770752,1.8937232494354248,3.852271795272827,0.3215304911136627,0.15599358081817627,-0.009383822791278362,0.35870134830474854
187,22479,22477,-0.06648387014865875,0.0399705208837986,0.9653891324996948,-1.9543801546096802,7.774043083190918,-2.505483627319336,1.8944711685180664,3.8519599437713623,0.32216548919677734,0.13458596169948578,-0.04826557636260986,0.33709925413131714
188,22489,22487,-0.009984923526644707,-0.019075294956564903,0.9709625840187073,-1.1042596101760864,3.9231770038604736,-2.476195812225342,1.8955100774765015,3.851682424545288,0.32384201884269714,0.07494588941335678,-0.01812412030994892,0.3123486042022705
189,22499,22497,-0.030869729816913605,0.0517394058406353,0.9720796346664429,-1.4677786827087402,6.990224838256836,-1.9846316576004028,1.8958102464675903,3.851825714111328,0.32447269558906555,0.05239827185869217,-0.05956175923347473,0.29017916321754456
190,22509,22507,0.014439667575061321,0.009323163889348507,0.9579387307167053,-1.9983265399932861,7.379558563232422,-1.5414671897888184,1.896851658821106,3.8516886234283447,0.3256186842918396,-0.002487299731001258,-0.10211749374866486,0.2729252576828003
191,22519,22517,0.010427744127810001,-0.0031956785824149847,0.9587835669517517,-2.721862554550171,3.7366278171539307,-1.513187050819397,1.8966469764709473,3.852295160293579,0.32477867603302,-0.07167546451091766,-0.15165071189403534,0.2645849585533142
192,22529,22527,-0.0176502987742424,0.09946729987859726,0.9543834924697876,-2.12831974029541,6.212166786193848,-1.6774638891220093,1.8980189561843872,3.8525242805480957,0.3252262473106384,-0.16043159365653992,-0.20523862540721893,0.2568844258785248
193,22539,22537,0.01123327761888504,-0.017385346814990044,0.9490740895271301,-1.3977094888687134,5.850188255310059,-1.5436131954193115,1.8987685441970825,3.853257656097412,0.32567280530929565,-0.2091008573770523,-0.24067136645317078,0.24028582870960236
194,22549,22547,0.024078721180558205,-0.057115115225315094,0.9444294571876526,0.7378216981887817,5.169569492340088,-2.2243731021881104,1.8999040126800537,3.854503870010376,0.3263872563838959,-0.2352033108472824,-0.2615956664085388,0.23832330107688904
195,22559,22557,-0.04465174302458763,0.07150208204984665,0.9505020380020142,2.390892267227173,4.619279384613037,-2.0007574558258057,1.9005779027938843,3.854429006576538,0.32313188910484314,-0.24429717659950256,-0.2433410882949829,0.21511687338352203
196,22569,22567,0.0578773096203804,-0.05790792778134346,0.9611546397209167,3.169337272644043,3.1899492740631104,-1.7314547300338745,1.9016799926757812,3.8534371852874756,0.32317405939102173,-0.36080318689346313,-0.12250488996505737,0.19432058930397034
197,22579,22577,0.0049652219749987125,0.0025474741123616695,0.991215705871582,2.3580198287963867,3.5462124347686768,-1.6148035526275635,1.9033845663070679,3.8531839847564697,0.32317501306533813,-0.43492844700813293,-0.08683034032583237,0.17718319594860077
198,22589,22587,-0.03928005322813988,0.0010042329085990787,1.0095784664154053,0.5674524307250977,2.2569198608398438,-1.6466556787490845,1.9040290117263794,3.8533265590667725,0.3187299370765686,-0.430278480052948,-0.06715528666973114,0.15629054605960846
199,22599,22597,-0.03143893927335739,-0.03725609555840492,1.013529896736145,-2.236137866973877,4.9995808601379395,-2.5380234718322754,1.9038913249969482,3.853586435317993,0.3184341490268707,-0.4120112657546997,-0.08248094469308853,0.13489721715450287
200,22609,22607,0.03520302474498749,-0.11193793267011642,0.9949995279312134,-1.9799015522003174,1.4223153591156006,-2.0960276126861572,1.9047985076904297,3.853708267211914,0.31813108921051025,-0.43158668279647827,-0.1358078420162201,0.1089990884065628
201,22619,22617,0.03763245791196823,-0.2612490653991699,1.0257492065429688,-3.02435302734375,1.5793535709381104,-1.848575472831726,1.9048789739608765,3.854801654815674,0.3182360529899597,-0.40799224376678467,-0.18401697278022766,0.09434524923563004
202,22629,22627,0.027395455166697502,-0.2555508315563202,1.0491746664047241,-2.7160775661468506,5.969552516937256,-2.4477367401123047,1.9069123268127441,3.855113983154297,0.31791090965270996,-0.5724758505821228,-0.24214456975460052,0.07373970001935959
203,22639,22637,-0.0018017188413068652,-0.1434127390384674,1.0273427963256836,-2.227149724960327,8.47619915008545,-2.910524606704712,1.907639503479004,3.855285406112671,0.3176889419555664,-0.623259425163269,-0.28543567657470703,0.04454052448272705
204,22649,22647,0.01460263691842556,-0.05397637560963631,0.9641854763031006,1.3437936305999756,6.1508073806762695,-3.0581014156341553,1.9080734252929688,3.855748414993286,0.31750693917274475,-0.6995236873626709,-0.30620765686035156,0.020855365321040154
205,22659,22657,0.01687198504805565,-0.050964560359716415,0.9779777526855469,3.5538575649261475,5.193657875061035,-3.446897029876709,1.9099873304367065,3.8555846214294434,0.3164805769920349,-0.8222024440765381,-0.2721584439277649,-0.0085268160328269
206,22669,22667,-0.01991676166653633,0.06583723425865173,1.0327342748641968,5.671018123626709,3.5177195072174072,-2.965367555618286,1.9105006456375122,3.8554251194000244,0.3162720501422882,-0.8383650779724121,-0.2023831009864807,-0.041632939130067825
207,22679,22677,-0.0032470659352838993,0.15642020106315613,1.02708899974823,6.268232822418213,0.6855371594429016,-1.994763731956482,1.9120486974716187,3.8549797534942627,0.3160165846347809,-0.8944728374481201,-0.10337438434362411,-0.06743137538433075
208,22689,22687,0.02461773343384266,0.16437676548957825,1.001495122909546,4.978438377380371,-1.9166395664215088,-1.7377406358718872,1.9146384000778198,3.85473895072937,0.3150358498096466,-1.0507162809371948,-0.00947804469615221,-0.07283264398574829
209,22699,22697,0.06808381527662277,0.11936900019645691,1.026860237121582,2.5586280822753906,-4.106650352478027,-1.7288322448730469,1.9152134656906128,3.8548505306243896,0.31478142738342285,-0.9917566180229187,0.051323577761650085,-0.09469252824783325
210,22709,22707,0.061732251197099686,0.007272297982126474,1.055179476737976,-0.2923464775085449,-8.408797264099121,-1.7168289422988892,1.9160927534103394,3.8542380332946777,0.3145829737186432,-0.8880612850189209,0.07176820188760757,-0.11162523180246353
211,22719,22717,-0.013340188190340996,-0.06025192141532898,1.0836492776870728,-3.7921643257141113,-7.181157112121582,-2.068498134613037,1.917629599571228,3.8550877571105957,0.31685763597488403,-0.8954604864120483,-0.039341796189546585,-0.13710717856884003
212,22729,22727,0.005938625894486904,-0.08759492635726929,1.0300947427749634,-4.837935924530029,-6.6844482421875,-2.2564923763275146,1.9180939197540283,3.855034112930298,0.31692424416542053,-0.7680180072784424,-0.1136651337146759,-0.1713452935218811
213,22739,22737,0.02873779647052288,-0.10824321955442429,1.0257834196090698,-4.422545433044434,-5.396818161010742,-2.2129738330841064,1.917527675628662,3.8550167083740234,0.31713950634002686,-0.5695286989212036,-0.19491098821163177,-0.20653901994228363
214,22749,22747,-0.0011940558906644583,-0.018447421491146088,1.027550458908081,-1.172366738319397,-0.5058050751686096,-2.751715898513794,1.9203287363052368,3.8553004264831543,0.3170527219772339,-0.7223575711250305,-0.24868330359458923,-0.22253133356571198
215,22759,22757,0.0010164262494072318,0.09982101619243622,0.9825835227966309,2.335230827331543,0.7305089831352234,-2.8433725833892822,1.9211676120758057,3.854581594467163,0.3172030448913574,-0.6969537734985352,-0.17011027038097382,-0.24083243310451508
216,22769,22767,0.020064063370227814,0.10819200426340103,0.9717074632644653,4.8832926750183105,-2.204733371734619,-2.226039171218872,1.9247877597808838,3.8549039363861084,0.3171003758907318,-0.9012117385864258,-0.11827817559242249,-0.25409185886383057
217,22779,22777,0.0020825001411139965,0.08588318526744843,1.0110231637954712,6.236310005187988,-2.8847155570983887,-2.0683770179748535,1.9266084432601929,3.854783058166504,0.31716206669807434,-0.8936671018600464,-0.024992741644382477,-0.2777254581451416
218,22789,22787,-0.007949081249535084,-7.368575461441651e-05,0.9867998361587524,4.587577819824219,-3.178471088409424,-1.5724425315856934,1.9277992248535156,3.8544492721557617,0.31428951025009155,-0.8678815364837646,0.07224822044372559,-0.2919544577598572
219,22799,22797,0.028199655935168266,-0.12451404333114624,0.9783260822296143,3.1730289459228516,-6.28890323638916,-1.8328531980514526,1.929565668106079,3.855891227722168,0.3141705393791199,-0.8086459636688232,-0.016448376700282097,-0.3205731213092804
220,22809,22807,0.04120326414704323,-0.15045177936553955,0.9881980419158936,1.93536376953125,-9.148229598999023,-2.290386199951172,1.929387092590332,3.8555688858032227,0.3142821192741394,-0.5490798354148865,0.03431795910000801,-0.35106757283210754
221,22819,22817,0.025144819170236588,-0.11695808917284012,0.988528311252594,-0.058195605874061584,-12.148276329040527,-2.1843466758728027,1.9315024614334106,3.8558149337768555,0.31575125455856323,-0.4862409830093384,0.0594465471804142,-0.3620210886001587
222,22829,22827,0.012724659405648708,-0.021216504275798798,0.9823118448257446,-1.412251353263855,-13.067596435546875,-1.2886641025543213,1.9341964721679688,3.855771541595459,0.3156164884567261,-0.4659299850463867,0.0534285306930542,-0.37821584939956665
223,22839,22837,-0.02543821558356285,0.013525021262466908,1.0385459661483765,-2.382451057434082,-8.783758163452148,-1.6233876943588257,1.9350718259811401,3.8560614585876465,0.31560733914375305,-0.27779504656791687,0.013912164606153965,-0.4027223587036133
224,22849,22847,-0.006688507739454508,0.09679604321718216,0.984086275100708,-2.490377187728882,-7.936563491821289,-1.2068876028060913,1.9351465702056885,3.85539174079895,0.3101172149181366,0.004795778542757034,0.04559514299035072,-0.43081459403038025
225,22859,22857,0.007616396062076092,0.0562058724462986,0.9413816928863525,-2.956697463989258,-6.112316131591797,-0.9055518507957458,1.9386242628097534,3.8546504974365234,0.30967190861701965,-0.07113737612962723,-0.004539326764643192,-0.44848987460136414
226,22869,22867,-0.000841288361698389,0.011138375848531723,0.9887353181838989,-1.6275014877319336,-2.5982894897460938,-0.804568350315094,1.9411439895629883,3.8549001216888428,0.30907806754112244,-0.2120712399482727,-0.02648324891924858,-0.43913182616233826
227,22879,22877,0.0017067180015146732,0.1140952855348587,0.9845186471939087,-0.6524187326431274,-1.6065729856491089,-0.7121893763542175,1.9434338808059692,3.8553926944732666,0.30856451392173767,-0.16554340720176697,-0.058059874922037125,-0.44854629039764404
228,22889,22887,0.019880376756191254,-0.10708606243133545,1.0286154747009277,0.7675423622131348,-1.6628409624099731,-0.729651689529419,1.9438196420669556,3.855943202972412,0.3083672523498535,0.004724324215203524,-0.06778497993946075,-0.4623435437679291
229,22899,22897,-0.017529156059026718,-0.1770387589931488,1.079224944114685,2.8666253089904785,-3.0850110054016113,-0.64911949634552,1.9463621377944946,3.8562185764312744,0.30789434909820557,0.007075161673128605,-0.0539751835167408,-0.46415284276008606
230,22909,22907,0.003080778056755662,-0.04178216680884361,1.0290671586990356,4.480681896209717,-5.415998458862305,-0.5499969720840454,1.947906494140625,3.856348991394043,0.3074796497821808,0.025896094739437103,-0.08391118049621582,-0.48866933584213257
231,22919,22917,0.024105332791805267,-0.037098225206136703,1.0302987098693848,3.623596668243408,-3.4617621898651123,0.3401518166065216,1.9509422779083252,3.857103109359741,0.3062531650066376,-0.07173267006874084,-0.004951564595103264,-0.4790632426738739
232,22929,22927,0.0033227261155843735,-0.05474468693137169,1.0318456888198853,3.4392595291137695,-7.200341701507568,0.6780144572257996,1.951616883277893,3.856502056121826,0.3059758245944977,0.06580725312232971,0.0606357678771019,-0.48860225081443787
233,22939,22937,-0.0003185391833540052,0.06539876013994217,1.0375652313232422,1.5421689748764038,-4.958533763885498,0.5927652716636658,1.9515960216522217,3.8568875789642334,0.30576658248901367,0.23197516798973083,0.038515739142894745,-0.485930472612381
234,22949,22947,0.026882901787757874,-0.017478562891483307,1.0378272533416748,-1.2320640087127686,-3.4664134979248047,0.31555843353271484,1.952854037284851,3.8566813468933105,0.3067064881324768,0.28985345363616943,0.06540818512439728,-0.4795153737068176
235,22959,22957,-0.006936629302799702,-0.034329239279031754,1.0452589988708496,-1.947855830192566,-1.74965500831604,0.4555942118167877,1.9544581174850464,3.8567123413085938,0.30650120973587036,0.32547715306282043,0.05232778936624527,-0.47477203607559204
236,22969,22967,-0.0032523651607334614,-0.03784140944480896,1.0729073286056519,-2.2795968055725098,0.2729285657405853,0.1485593467950821,1.9565969705581665,3.856834888458252,0.3062778115272522,0.24603807926177979,0.025564365088939667,-0.45993828773498535
237,22979,22977,0.017794599756598473,-0.021090926602482796,1.0002717971801758,-1.2659903764724731,-1.3528295755386353,0.8319094181060791,1.9591264724731445,3.857553482055664,0.30617615580558777,0.22147700190544128,-0.007212056778371334,-0.44241002202033997
238,22989,22987,-0.019389595836400986,0.008595924824476242,1.0710320472717285,-0.6862309575080872,-1.866965889930725,0.520948052406311,1.9610249996185303,3.8583528995513916,0.3060276210308075,0.21789859235286713,-0.024892395362257957,-0.43546897172927856
239,22999,22997,0.015762459486722946,-0.03598370403051376,1.0272455215454102,0.1636657416820526,-1.4460504055023193,1.1230953931808472,1.9628939628601074,3.8577771186828613,0.30601203441619873,0.22734814882278442,0.046142540872097015,-0.43323463201522827
240,23009,23007,0.013314791955053806,-0.03206776827573776,1.0178745985031128,2.6975860595703125,-3.437356948852539,0.4747425615787506,1.9641571044921875,3.8581326007843018,0.30612361431121826,0.30981993675231934,0.0494142584502697,-0.417213499546051
241,23019,23017,0.0023863581009209156,-0.04465357959270477,1.0293829441070557,2.67935848236084,-4.598269939422607,0.8647284507751465,1.9649341106414795,3.8583290576934814,0.3100520074367523,0.42095187306404114,0.09474001824855804,-0.4050345718860626
242,23029,23027,0.00032823224319145083,-0.14003624022006989,1.0423210859298706,1.724892497062683,-4.076339244842529,0.9638285040855408,1.9682074785232544,3.8584182262420654,0.31027182936668396,0.30546751618385315,0.13665196299552917,-0.3971615135669708
243,23039,23037,-0.0017769424011930823,-0.16235792636871338,1.0345845222473145,0.3996213376522064,-4.475574016571045,1.2883976697921753,1.9697139263153076,3.8595309257507324,0.3106203079223633,0.33921656012535095,0.15785300731658936,-0.3602584898471832
244,23049,23047,-0.002466962207108736,-0.04999341443181038,1.0183827877044678,-2.318800926208496,-4.048089981079102,1.3229482173919678,1.971250295639038,3.8603851795196533,0.30594855546951294,0.39696580171585083,0.08312499523162842,-0.32894617319107056
245,23059,23057,0.0329020693898201,-0.09411376714706421,0.9948875904083252,-2.8054230213165283,-3.683429479598999,1.0422046184539795,1.9733259677886963,3.8612167835235596,0.30608314275741577,0.4444290101528168,0.05215151235461235,-0.32443034648895264
246,23069,23067,0.002076718956232071,0.004700949881225824,1.0299038887023926,-3.7802951335906982,-4.247553825378418,1.4383000135421753,1.9751466512680054,3.8612751960754395,0.30611827969551086,0.4242391288280487,0.0047639221884310246,-0.3119604289531708
247,23079,23077,0.008906826376914978,-0.03574646636843681,1.016528844833374,-3.170259714126587,-2.3784894943237305,1.7348047494888306,1.9759687185287476,3.8607678413391113,0.3065732419490814,0.5628241896629333,0.023522283881902695,-0.30092373490333557
248,23089,23087,0.059992916882038116,-0.13079829514026642,0.9997235536575317,-1.4193153381347656,-0.5381689667701721,1.3363566398620605,1.9762128591537476,3.8616926670074463,0.3068274259567261,0.7310959100723267,-0.030328810214996338,-0.2647443413734436
249,23099,23097,0.006023901980370283,-0.1001586765050888,1.0435634851455688,-0.984336256980896,0.4308367967605591,2.061434268951416,1.9789254665374756,3.8619747161865234,0.30695611238479614,0.6187755465507507,-0.05805584415793419,-0.24883981049060822
250,23109,23107,0.02787332609295845,-0.08401977270841599,1.0449210405349731,-0.2672191262245178,4.361935615539551,0.9978840947151184,1.9798184633255005,3.861488103866577,0.30717167258262634,0.6407936215400696,-0.06848080456256866,-0.21758829057216644
251,23119,23117,-8.313345460919663e-05,0.06816693395376205,0.9626617431640625,0.5633683800697327,6.4736714363098145,-0.006463331636041403,1.9816100597381592,3.863442897796631,0.30625590682029724,0.5360903739929199,-0.07119836658239365,-0.18525545299053192
252,23129,23127,-0.014358153566718102,0.15033721923828125,0.9534826874732971,0.6730830073356628,2.902047872543335,0.11364737898111343,1.982555866241455,3.863339900970459,0.3065199553966522,0.5495137572288513,-0.060922957956790924,-0.18956543505191803
253,23139,23137,0.020439377054572105,-0.002481675473973155,0.9880794882774353,1.2273012399673462,2.4052722454071045,0.10788486897945404,1.9831594228744507,3.863607406616211,0.3067401349544525,0.6081354022026062,-0.0467434823513031,-0.18218190968036652
254,23149,23147,0.021170921623706818,0.05108940601348877,1.007609248161316,0.5224436521530151,1.635818362236023,0.2876623272895813,1.9856349229812622,3.8634238243103027,0.30647048354148865,0.42963796854019165,-0.030163617804646492,-0.18658550083637238
255,23159,23157,0.028597429394721985,0.009990610182285309,0.9957802891731262,0.7758780717849731,-0.6189413070678711,0.4238344728946686,1.9865163564682007,3.8635268211364746,0.3065791726112366,0.4364660680294037,-0.022330597043037415,-0.17497503757476807
256,23169,23167,0.0539998821914196,-0.0665961354970932,0.9733873009681702,-0.7417019009590149,-0.6400283575057983,0.3280261754989624,1.989037036895752,3.8639161586761475,0.3065175414085388,0.3186021149158478,-0.01092788390815258,-0.16040824353694916
257,23179,23177,0.016476159915328026,-0.16783025860786438,0.9990870952606201,-0.9553349614143372,-2.7511017322540283,-0.13852377235889435,1.9896349906921387,3.8631629943847656,0.3047603666782379,0.3777034282684326,-0.019570771604776382,-0.17728428542613983
258,23189,23187,-0.008489497005939484,-0.1508883535861969,0.9977839589118958,-1.7115052938461304,-3.6805989742279053,0.9148778319358826,1.9905070066452026,3.863476276397705,0.3047412931919098,0.4635709822177887,-0.035242803394794464,-0.17108502984046936
259,23199,23197,-0.019827065989375114,-0.019640419632196426,1.0198127031326294,-2.1660914421081543,-2.624253034591675,0.6732217073440552,1.9924566745758057,3.8637912273406982,0.3046816289424896,0.4810445010662079,-0.06334937363862991,-0.17001351714134216
260,23209,23207,0.011855103075504303,0.06643929332494736,0.9765551090240479,-2.149430274963379,-2.1753740310668945,0.7799251675605774,1.9941301345825195,3.864251136779785,0.30459079146385193,0.48447248339653015,-0.09648822247982025,-0.16109317541122437
261,23219,23217,-0.0028441189788281918,-0.027617136016488075,1.004221796989441,-2.0243313312530518,-1.1022400856018066,0.6928923726081848,1.9940696954727173,3.864398241043091,0.30303680896759033,0.6335504651069641,-0.13095387816429138,-0.14641310274600983
262,23229,23227,-0.016382843255996704,0.0735839307308197,1.0658106803894043,-1.6486696004867554,0.8141644597053528,0.7528594732284546,1.9957062005996704,3.864760637283325,0.3028976023197174,0.6068212985992432,-0.160560742020607,-0.13785392045974731
263,23239,23237,0.00948286708444357,-0.051910847425460815,1.0154036283493042,-0.45329371094703674,4.938456058502197,1.0072338581085205,1.9973419904708862,3.8658273220062256,0.30277442932128906,0.5509903430938721,-0.18107666075229645,-0.1005842313170433
264,23249,23247,0.03293957561254501,-0.1036897674202919,1.0550308227539062,1.2943974733352661,7.386721134185791,0.4697406589984894,1.9981091022491455,3.865805149078369,0.3049640357494354,0.5839040279388428,-0.18171995878219604,-0.09825778007507324
265,23259,23257,-0.015385868027806282,0.05370943620800972,0.999902606010437,2.054457426071167,7.876206874847412,0.2732052803039551,2.0003960132598877,3.866273880004883,0.30500319600105286,0.3882893919944763,-0.15059229731559753,-0.0915803462266922
266,23269,23267,0.04072101414203644,0.002090998226776719,0.9617422819137573,2.372523546218872,6.510371208190918,0.6322880387306213,2.001023054122925,3.8659415245056152,0.3051731586456299,0.3589121401309967,-0.10977710038423538,-0.09421399980783463
267,23279,23277,-0.018475709483027458,0.0019800628069788218,1.0314929485321045,1.6899775266647339,4.259601593017578,0.5304908156394958,2.001713275909424,3.865699052810669,0.3065741956233978,0.35040998458862305,-0.06597737222909927,-0.098182812333107
268,23289,23287,0.024741584435105324,-0.014700859785079956,1.0096664428710938,-0.017092932015657425,2.5280158519744873,0.40604180097579956,2.00331449508667,3.8652775287628174,0.30670303106307983,0.21628037095069885,-0.03440165892243385,-0.10127473622560501
269,23299,23297,-0.014905735850334167,0.018235137686133385,1.002160668373108,-0.9061887264251709,1.1485636234283447,0.05143246054649353,2.003984212875366,3.8655858039855957,0.30690738558769226,0.19724148511886597,-0.10802516341209412,-0.1024971455335617
270,23309,23307,0.04609179496765137,-0.06373228132724762,0.9787981510162354,-3.2023913860321045,-0.10601378977298737,0.8727624416351318,2.0035316944122314,3.865885019302368,0.3072660565376282,0.2892182469367981,-0.11929100751876831,-0.0966925173997879
271,23319,23317,0.004907575435936451,-0.16379019618034363,1.0572043657302856,-2.0569040775299072,-1.608304738998413,0.9131115674972534,2.004528522491455,3.8653931617736816,0.3060298264026642,0.3144441545009613,-0.16242176294326782,-0.10646005719900131
272,23329,23327,0.04233027622103691,0.02827354148030281,0.9730994701385498,-0.820770263671875,-0.990129292011261,1.5700737237930298,2.0048203468322754,3.8654613494873047,0.3062788248062134,0.4307163655757904,-0.18900717794895172,-0.10476785898208618
273,23339,23337,0.04673552140593529,0.0013506702380254865,0.9601514339447021,0.6489711403846741,1.114067554473877,2.104250192642212,2.004920482635498,3.865506410598755,0.306502103805542,0.5276778340339661,-0.19146735966205597,-0.08712615817785263
274,23349,23347,-0.014952672645449638,0.08440528064966202,1.025907039642334,2.803030014038086,1.4318153858184814,2.2445785999298096,2.0079033374786377,3.8656198978424072,0.3092162609100342,0.35014182329177856,-0.17006434500217438,-0.06976445019245148
275,23359,23357,-0.025644544512033463,0.249270960688591,1.008763313293457,2.893244981765747,7.125685214996338,2.0717153549194336,2.008817672729492,3.8659310340881348,0.3095158636569977,0.3285191059112549,-0.11344237625598907,-0.04282766580581665
276,23369,23367,0.006760225165635347,0.004144472070038319,0.9917688965797424,3.1674227714538574,8.24664306640625,2.0752360820770264,2.010599136352539,3.866267204284668,0.30978626012802124,0.14629997313022614,-0.13288697600364685,-0.015286881476640701
277,23379,23377,-0.014301985502243042,-0.15681949257850647,1.0025690793991089,3.5515589714050293,5.952182769775391,1.8511285781860352,2.0117027759552,3.8665480613708496,0.31292834877967834,0.07967305183410645,-0.06785807013511658,0.019352668896317482
278,23389,23387,-0.06338168680667877,-0.0064129759557545185,1.0047388076782227,3.2729692459106445,2.748708486557007,1.7775713205337524,2.012589931488037,3.8665411472320557,0.31337130069732666,-0.0012053980026394129,-0.07713005691766739,0.026542162522673607
279,23399,23397,-0.006769765168428421,-0.04574234411120415,1.0101056098937988,2.3372695446014404,0.717958390712738,1.9619109630584717,2.0133678913116455,3.866060256958008,0.3138379454612732,-0.03662204369902611,-0.01439443789422512,0.0318196602165699
280,23409,23407,0.03891566023230553,-0.11427031457424164,0.9357441663742065,1.889485239982605,-1.0733484029769897,1.4136227369308472,2.0134146213531494,3.8672115802764893,0.31326788663864136,0.03659258037805557,-0.04507848992943764,0.06364291906356812
281,23419,23417,-0.014805929735302925,-0.014158905483782291,0.9852598309516907,1.556828260421753,-2.571777582168579,1.763688087463379,2.0149104595184326,3.8690218925476074,0.3136059045791626,-0.007964212447404861,0.0006194707821123302,0.14030976593494415
282,23429,23427,0.005330469459295273,0.005390564911067486,0.9781025052070618,3.17189884185791,-3.313995361328125,1.3426393270492554,2.0157077312469482,3.8703134059906006,0.3140581548213959,0.04611285775899887,0.04342962056398392,0.1821775734424591
283,23439,23437,0.014858575537800789,0.04269697517156601,0.9408259987831116,3.2926948070526123,-2.4225802421569824,1.168624758720398,2.0171151161193848,3.869687080383301,0.31430694460868835,-0.0472663976252079,0.10677254945039749,0.21578100323677063
284,23449,23447,-0.01049665454775095,0.08539129793643951,0.9393355250358582,2.1991567611694336,0.40607529878616333,0.655824601650238,2.018376588821411,3.8747518062591553,0.31601473689079285,0.07875826954841614,0.01658470928668976,0.32939109206199646
285,23459,23457,-0.06419714540243149,0.09683498740196228,1.0200181007385254,1.2248131036758423,2.010139226913452,0.12838521599769592,2.0193142890930176,3.8760263919830322,0.31639063358306885,0.09013444185256958,0.07356246560811996,0.3800102472305298
286,23469,23467,0.008462411351501942,-0.00968092493712902,0.9700824618339539,1.2723214626312256,2.5306499004364014,-0.5375935435295105,2.020392894744873,3.8759231567382812,0.31670260429382324,0.060668379068374634,0.11096973717212677,0.3753446042537689
287,23479,23477,-0.012241831049323082,-0.06281469762325287,1.0117518901824951,0.9775841236114502,3.6449761390686035,-0.550368070602417,2.0200235843658447,3.875680923461914,0.32096755504608154,0.11531366407871246,0.1443324238061905,0.33973562717437744
288,23489,23487,-0.02488728240132332,-0.06545724719762802,1.0378618240356445,0.7735110521316528,6.590651512145996,-1.0766350030899048,2.0203604698181152,3.874704599380493,0.3215649127960205,0.14489489793777466,0.17114199697971344,0.3330671489238739
289,23499,23497,0.004368750378489494,-0.0369466170668602,0.9613203406333923,0.007203236222267151,5.236324787139893,-0.6711307168006897,2.022064685821533,3.877946138381958,0.32220780849456787,0.11165627837181091,0.19124366343021393,0.4181066155433655
290,23509,23507,0.002543730428442359,-0.06970034539699554,0.9586315751075745,-0.3575955927371979,9.422467231750488,-1.803270697593689,2.0232932567596436,3.878095865249634,0.32277414202690125,-0.04981650039553642,0.1986231952905655,0.4306620657444
291,23519,23517,0.047391586005687714,-0.01531737670302391,0.9306107759475708,-0.7941262722015381,6.002396583557129,-1.7210726737976074,2.0240402221679688,3.881138324737549,0.3238663375377655,-0.03423852473497391,0.12444447726011276,0.47047486901283264
292,23529,23527,0.060433682054281235,0.05162531137466431,0.943365752696991,-0.80292809009552,3.593578338623047,-2.272571563720703,2.0261712074279785,3.8812475204467773,0.32426801323890686,-0.24124599993228912,0.12224379926919937,0.4503505229949951
293,23539,23537,0.08743799477815628,0.03498079255223274,0.9092648029327393,-0.5911490321159363,1.5725940465927124,-2.0067200660705566,2.026484966278076,3.882020950317383,0.32474246621131897,-0.21680599451065063,0.0446738637983799,0.4417067766189575
294,23549,23547,0.04621307924389839,-0.02445937693119049,0.913804829120636,0.11663144081830978,-2.285780906677246,-2.1754798889160156,2.0263538360595703,3.88250994682312,0.32379403710365295,-0.16081936657428741,0.05427243933081627,0.4263451099395752
295,23559,23557,0.0013625847641378641,-0.04159533977508545,0.943225622177124,1.2861658334732056,-2.935487747192383,-2.0989413261413574,2.028296947479248,3.882533311843872,0.3238981068134308,-0.27494800090789795,0.0746646374464035,0.4093186855316162
296,23569,23567,-0.04408968240022659,-0.05378236621618271,0.9650554060935974,2.0704166889190674,-2.1010522842407227,-2.1314809322357178,2.0285379886627197,3.882007360458374,0.32406291365623474,-0.20306909084320068,0.1132950484752655,0.37446242570877075
297,23579,23577,-0.06701517105102539,-0.0377197191119194,0.9702785015106201,2.4348061084747314,-2.9816701412200928,-2.2774174213409424,2.029541254043579,3.8831725120544434,0.324556827545166,-0.1602899581193924,0.16406123340129852,0.3775748014450073
298,23589,23587,-0.11661285161972046,-0.02783447504043579,0.9768149256706238,0.4537893235683441,0.22253495454788208,-2.278099298477173,2.0297789573669434,3.8823249340057373,0.3247015178203583,-0.11641652882099152,0.2065618336200714,0.35619115829467773
299,23599,23597,-0.027238504961133003,-0.016958359628915787,0.9740586280822754,-0.23490040004253387,1.8014230728149414,-2.6870126724243164,2.029918670654297,3.8821828365325928,0.3248729109764099,-0.0495169498026371,0.2213127315044403,0.32847270369529724
300,23609,23607,-0.041475698351860046,0.01178759802132845,0.9610365033149719,-1.0820732116699219,2.8463501930236816,-3.0090420246124268,2.0320863723754883,3.88283634185791,0.32349565625190735,-0.24313607811927795,0.14568045735359192,0.2966170310974121
301,23619,23617,-0.04861903190612793,0.03279915824532509,0.9678525328636169,-1.443523645401001,2.564605951309204,-2.6428050994873047,2.0333142280578613,3.8828749656677246,0.32342344522476196,-0.28295013308525085,0.14297731220722198,0.26621848344802856
302,23629,23627,-0.004497517365962267,-0.00895978044718504,0.9716025590896606,-0.5694035887718201,1.4324334859848022,-2.5166208744049072,2.0334999561309814,3.8829731941223145,0.32339122891426086,-0.23951631784439087,0.13435056805610657,0.21603769063949585
303,23639,23637,0.01656828448176384,0.0013551396550610662,0.9835923910140991,-0.476915180683136,0.8300418853759766,-2.1907825469970703,2.03360652923584,3.8821682929992676,0.3233437240123749,-0.18047519028186798,0.13888242840766907,0.2107890248298645
304,23649,23647,0.04546309635043144,-0.056879155337810516,0.9786897301673889,1.2686394453048706,-1.0136417150497437,-2.5640149116516113,2.0346219539642334,3.8842809200286865,0.3245094418525696,-0.1903296709060669,0.14760439097881317,0.24336066842079163
305,23659,23657,0.03219998627901077,-0.0951099842786789,0.9668161869049072,1.3868601322174072,-0.9940115809440613,-3.0451791286468506,2.035466194152832,3.8856372833251953,0.324461430311203,-0.18223221600055695,0.17495928704738617,0.2739754915237427
306,23669,23667,0.042266156524419785,-0.079804927110672,0.968915581703186,0.4936199188232422,0.6747376322746277,-3.540170431137085,2.038386583328247,3.890002727508545,0.3243575692176819,-0.24448759853839874,0.12850327789783478,0.3537498116493225
307,23679,23677,0.06787421554327011,-0.06970133632421494,0.9419553279876709,1.2967534065246582,-0.2255735695362091,-4.068835735321045,2.041177272796631,3.8931612968444824,0.31988054513931274,-0.32573434710502625,0.1490960568189621,0.449518084526062
308,23689,23687,0.012918878346681595,-0.031909435987472534,0.9632509350776672,2.0164287090301514,-1.382447361946106,-4.936444282531738,2.0438730716705322,3.8949835300445557,0.31927087903022766,-0.45004013180732727,0.1123417317867279,0.4015010893344879
309,23699,23697,-0.01276172511279583,-0.020348630845546722,0.9838420748710632,1.9688293933868408,-0.30525660514831543,-4.999080657958984,2.046173095703125,3.8994781970977783,0.318867027759552,-0.4004509150981903,0.08568784594535828,0.46847695112228394
310,23709,23707,0.027460969984531403,-0.032173410058021545,1.000171422958374,3.3504674434661865,-2.572111129760742,-5.448127746582031,2.0461950302124023,3.899399995803833,0.31336912512779236,-0.28285714983940125,0.14516812562942505,0.4228721261024475
311,23719,23717,-0.004404094535857439,-0.04736744612455368,1.0324958562850952,4.389543056488037,-4.7568745613098145,-4.828948497772217,2.0495660305023193,3.8998475074768066,0.3122996687889099,-0.4457995891571045,0.15368585288524628,0.3500422537326813
312,23729,23727,-0.06514855474233627,-0.02119763009250164,1.0850090980529785,3.9033007621765137,-4.03896427154541,-4.346456527709961,2.048887014389038,3.8994617462158203,0.3117562532424927,-0.2293737679719925,0.2532661259174347,0.31007111072540283
313,23739,23737,0.02207835577428341,0.015642812475562096,0.9901850819587708,3.005509376525879,-4.602627754211426,-3.938189744949341,2.0484564304351807,3.898777484893799,0.3111523985862732,-0.0741359293460846,0.33132481575012207,0.2895287871360779
314,23749,23747,0.00026551191695034504,-0.07109975069761276,0.9988942742347717,1.427414059638977,-1.943558692932129,-4.1303582191467285,2.051361322402954,3.903705358505249,0.3151950240135193,-0.05535147339105606,0.39132535457611084,0.3872433602809906
315,23759,23757,-0.014422444626688957,-0.008439195342361927,1.0465461015701294,-1.1294119358062744,2.4885804653167725,-4.931878089904785,2.050837755203247,3.90375018119812,0.31484049558639526,0.06561018526554108,0.3390314280986786,0.32865023612976074
316,23769,23767,0.039019666612148285,-0.03835505619645119,0.9841460585594177,-2.9291563034057617,4.360835552215576,-5.121546268463135,2.0545802116394043,3.9039433002471924,0.3143394887447357,-0.2086593061685562,0.3301965594291687,0.2657031714916229
317,23779,23777,-0.002355493139475584,-0.028101550415158272,1.0410988330841064,-3.886214017868042,6.091442584991455,-5.0705132484436035,2.0548477172851562,3.9042298793792725,0.3128770887851715,-0.17480768263339996,0.29056769609451294,0.21566863358020782
318,23789,23787,0.027301814407110214,0.07512335479259491,1.050096869468689,-2.703730583190918,4.201488018035889,-4.769892692565918,2.056147336959839,3.9039418697357178,0.3124197721481323,-0.2665611207485199,0.24100780487060547,0.14359693229198456
319,23799,23797,0.016328752040863037,-0.011865017004311085,1.0286740064620972,-0.9463114738464355,0.9101740717887878,-4.030477523803711,2.0581703186035156,3.906822681427002,0.3120689392089844,-0.3013979494571686,0.2222161740064621,0.18851371109485626
320,23809,23807,-0.025777822360396385,-0.11293558031320572,1.062323808670044,1.5037375688552856,-0.8642703294754028,-4.342333793640137,2.060792922973633,3.9068684577941895,0.31055116653442383,-0.4297828674316406,0.22550417482852936,0.1446562558412552
321,23819,23817,0.008834301494061947,-0.02200360596179962,1.0470762252807617,2.0413196086883545,-3.2618184089660645,-4.128059387207031,2.0617313385009766,3.9066715240478516,0.3102692663669586,-0.36524051427841187,0.2628112733364105,0.09719505906105042
322,23829,23827,-0.015496433712542057,-0.0407303050160408,0.9820562601089478,1.8558413982391357,-5.334382057189941,-3.710430383682251,2.062304973602295,3.906857490539551,0.309987872838974,-0.2648417353630066,0.31137725710868835,0.07021551579236984
323,23839,23837,0.006874776910990477,0.03969103470444679,1.0213335752487183,2.5134222507476807,-8.509574890136719,-3.0614748001098633,2.063667058944702,3.9065284729003906,0.3129770755767822,-0.21238699555397034,0.355569988489151,0.026533693075180054
324,23849,23847,-0.004534399136900902,0.08702884614467621,1.0689369440078735,-1.1609349250793457,-8.220821380615234,-3.2956180572509766,2.063253402709961,3.907287120819092,0.3130149841308594,-0.03290008381009102,0.3128916323184967,0.007046464364975691
325,23859,23857,0.01615765504539013,-0.012016763910651207,1.0546473264694214,-2.684251308441162,-6.134038925170898,-2.933659315109253,2.064082384109497,3.9080731868743896,0.31300148367881775,0.05422554537653923,0.22052060067653656,-0.019031640142202377
326,23869,23867,0.00011527343303896487,-0.04709026217460632,1.0791810750961304,-3.0470187664031982,-2.7085142135620117,-3.302255630493164,2.065913438796997,3.907416820526123,0.3130354583263397,0.022981327027082443,0.267356812953949,-0.061411015689373016
327,23879,23877,0.0138923991471529,-0.08301398158073425,1.0400750637054443,-2.614288568496704,0.9156672954559326,-3.0155515670776367,2.0670697689056396,3.908388614654541,0.3142276704311371,0.013270395807921886,0.22745363414287567,-0.0655379369854927
328,23889,23887,0.02096443995833397,-0.07441844046115875,1.0167402029037476,-1.4865093231201172,1.9503916501998901,-2.4796459674835205,2.0682997703552246,3.908506155014038,0.3144897222518921,0.02070780284702778,0.19597573578357697,-0.10152097791433334
329,23899,23897,-0.008003643713891506,0.01919623650610447,1.0241554975509644,-0.07528424263000488,2.276052474975586,-2.37872314453125,2.0693671703338623,3.907902479171753,0.31476154923439026,-0.004475357476621866,0.26014965772628784,-0.12545140087604523
330,23909,23907,0.0036466759629547596,0.020563460886478424,1.0178472995758057,0.49081170558929443,2.229273557662964,-1.6473606824874878,2.0702178478240967,3.907940149307251,0.31228402256965637,-0.0017432528547942638,0.26428455114364624,-0.1458899825811386
331,23919,23917,0.007823452353477478,0.06918077170848846,0.9523745179176331,0.9579981565475464,-0.59654301404953,-1.8721857070922852,2.072096109390259,3.9076483249664307,0.31231847405433655,-0.0861230418086052,0.2769598066806793,-0.17536447942256927
332,23929,23927,0.011194917373359203,0.031467679888010025,0.9537379145622253,0.6378611922264099,-1.9937201738357544,-1.3704243898391724,2.0727548599243164,3.908369302749634,0.3124314248561859,-0.03519556298851967,0.21280327439308167,-0.19186171889305115
333,23939,23937,-0.002665471052750945,-0.05783889815211296,0.9865695238113403,0.1795005053281784,-3.3491315841674805,-1.1085448265075684,2.0732760429382324,3.909648895263672,0.31446343660354614,0.03723049908876419,0.22593864798545837,-0.14973415434360504
334,23949,23947,0.017374014481902122,-0.017911305651068687,1.0044960975646973,0.6621127128601074,-2.8718271255493164,-0.8912143707275391,2.075389862060547,3.909677267074585,0.31452280282974243,-0.03185863792896271,0.2367568016052246,-0.1775055229663849
335,23959,23957,0.011813495308160782,-0.157282754778862,1.000359296798706,0.5910248756408691,-2.8243820667266846,-0.29987823963165283,2.075263500213623,3.909302234649658,0.31478002667427063,0.1280088871717453,0.2518880367279053,-0.18065649271011353
336,23969,23967,-0.014065315015614033,-0.040660515427589417,1.0149339437484741,0.7890959978103638,-1.642797589302063,0.4963027834892273,2.0764899253845215,3.9088175296783447,0.31488126516342163,0.11956051737070084,0.258027583360672,-0.20106416940689087
337,23979,23977,-0.027752889320254326,-0.052204281091690063,1.0608216524124146,0.7605961561203003,-0.3974144458770752,0.6034983396530151,2.077913761138916,3.9088118076324463,0.3183088004589081,0.09577479213476181,0.2808395028114319,-0.1999158263206482
338,23989,23987,-0.04878416284918785,0.04232369735836983,1.014046311378479,0.6692344546318054,-1.503213882446289,0.9668422937393188,2.0785787105560303,3.9075820446014404,0.31868070363998413,0.13100665807724,0.29255279898643494,-0.2277407944202423
339,23999,23997,-0.09667398780584335,0.034715913236141205,1.037195086479187,-0.9569307565689087,1.0037599802017212,1.1930423974990845,2.0786123275756836,3.9075989723205566,0.3191538453102112,0.18388701975345612,0.3023715913295746,-0.23193372786045074
340,24009,24007,-0.08501078188419342,0.03750358894467354,1.0224359035491943,-2.2631514072418213,2.062828779220581,1.719325065612793,2.0800817012786865,3.9069247245788574,0.31742069125175476,0.12573657929897308,0.2838711738586426,-0.22050261497497559
341,24019,24017,-0.07486272603273392,0.06703953444957733,0.9966479539871216,-2.6598763465881348,1.7063146829605103,2.1118998527526855,2.0811002254486084,3.907029151916504,0.3178253173828125,0.13474687933921814,0.2432776838541031,-0.20122568309307098
342,24029,24027,-0.06292496621608734,0.07057607918977737,0.9860451221466064,-2.339958429336548,0.777910053730011,2.237351417541504,2.0809485912323,3.9067814350128174,0.31828731298446655,0.2276569902896881,0.20004373788833618,-0.1915450245141983
343,24039,24037,-0.03395542874932289,0.04820718616247177,0.9727911949157715,-2.1158595085144043,1.6802386045455933,2.3353073596954346,2.081632137298584,3.906036376953125,0.31857115030288696,0.24221794307231903,0.23898278176784515,-0.16864949464797974
344,24049,24047,0.013694177381694317,2.966480860777665e-05,0.9702820777893066,-1.2361185550689697,1.0742443799972534,2.1744656562805176,2.0838186740875244,3.9068784713745117,0.318878710269928,0.14027783274650574,0.2004450410604477,-0.14302340149879456
345,24059,24057,0.003581560682505369,-0.004519843030720949,0.9726331830024719,-2.3141932487487793,0.9077080488204956,1.8583543300628662,2.0840201377868652,3.906003713607788,0.31925857067108154,0.2147284746170044,0.25081518292427063,-0.1199042946100235
346,24069,24067,-0.008321993052959442,-0.010425332002341747,0.9667293429374695,-1.7094826698303223,0.1801854372024536,1.2889539003372192,2.0849075317382812,3.906013011932373,0.31797829270362854,0.21294309198856354,0.20543237030506134,-0.10268542170524597
347,24079,24077,0.0032294336706399918,-0.026318281888961792,0.9496673345565796,-2.555522918701172,0.8372967839241028,1.850284218788147,2.0846896171569824,3.9064159393310547,0.3181963562965393,0.29327067732810974,0.15842172503471375,-0.07396696507930756
348,24089,24087,-0.049092184752225876,0.0924401581287384,0.9424977898597717,-2.8350837230682373,1.9521950483322144,1.2909743785858154,2.086232900619507,3.906545400619507,0.3182846009731293,0.1924418807029724,0.10752144455909729,-0.06239704787731171
349,24099,24097,0.00194042909424752,0.028965257108211517,0.9555952548980713,-3.1660938262939453,3.2040464878082275,1.2875725030899048,2.0869903564453125,3.906526803970337,0.3183731734752655,0.1600545346736908,0.056724369525909424,-0.053401995450258255
350,24109,24107,0.008917585015296936,0.0006141620106063783,0.9779210686683655,-2.667888641357422,5.113994121551514,0.735369086265564,2.0900015830993652,3.9072718620300293,0.3192635476589203,-0.053341902792453766,0.005294672213494778,-0.029013603925704956
351,24119,24117,0.01753314398229122,0.016546210274100304,0.9623070359230042,-1.72891366481781,5.460870742797852,0.6660771369934082,2.091268539428711,3.906714916229248,0.31932297348976135,-0.1201338991522789,0.036526262760162354,-0.024098090827465057
352,24129,24127,-0.00034152090665884316,0.010842117480933666,0.9646527171134949,0.11026781797409058,1.893602728843689,0.4473873972892761,2.0915427207946777,3.9069831371307373,0.31943973898887634,-0.09460734575986862,0.009158812463283539,-0.007169662043452263
353,24139,24137,0.008711280301213264,-0.018307847902178764,0.9634844660758972,1.059178113937378,-1.1786001920700073,0.5826150178909302,2.092676877975464,3.9070935249328613,0.31551098823547363,-0.10205330699682236,0.012173592112958431,-0.008765297941863537
354,24149,24147,-0.022739144042134285,-0.07185865938663483,1.0015842914581299,2.1952686309814453,-3.447127342224121,0.23404033482074738,2.0930914878845215,3.906898021697998,0.3152894079685211,-0.054559435695409775,0.025352710857987404,-0.0018132420955225825
355,24159,24157,-0.013961237855255604,-0.0042021991685032845,1.020359754562378,0.4491806924343109,-2.462631940841675,0.33916133642196655,2.09376859664917,3.9059011936187744,0.31507110595703125,0.02787655033171177,0.1339053213596344,-0.00533635588362813
356,24169,24167,-0.009298129938542843,0.022927172482013702,1.0000245571136475,0.9114719033241272,-2.0631508827209473,0.33790361881256104,2.096719741821289,3.907897710800171,0.30927422642707825,-0.14189565181732178,-0.03400455415248871,0.015053847804665565
357,24179,24177,0.009556026197969913,-0.028874080628156662,0.946512758731842,-0.9488934278488159,-0.6176710724830627,0.5255497097969055,2.096345901489258,3.907806634902954,0.30877596139907837,0.012527252547442913,-0.02469434216618538,0.025999251753091812
358,24189,24187,0.013810216449201107,0.024277301505208015,0.9814544320106506,-0.9788000583648682,0.9620400667190552,0.4745435416698456,2.097330093383789,3.907986879348755,0.3081914782524109,0.04953843727707863,-0.03718043863773346,0.020335299894213676
359,24199,24197,-0.06392023712396622,-0.03040792979300022,1.0550161600112915,-0.682016134262085,0.21581661701202393,0.42225074768066406,2.0998291969299316,3.908076286315918,0.3074468672275543,-0.08753599971532822,-0.04597775638103485,0.02632998675107956
360,24209,24207,-0.0021048537455499172,0.07712391018867493,1.0467617511749268,-0.47898727655410767,1.5702821016311646,0.3615160882472992,2.100452184677124,3.9076690673828125,0.308153361082077,-0.03117416240274906,-0.05245184525847435,-0.007656880188733339
361,24219,24217,0.027203897014260292,-0.03241343796253204,0.9683534502983093,1.139190673828125,1.6018000841140747,0.6791094541549683,2.100510835647583,3.907379150390625,0.3076925575733185,0.04443948343396187,-0.04860549420118332,-0.012656940147280693
362,24229,24227,-0.03290460258722305,-0.045742180198431015,1.0292210578918457,0.6417244076728821,1.3984817266464233,1.1976419687271118,2.102308511734009,3.907179832458496,0.30716249346733093,-0.028601735830307007,-0.024265389889478683,-0.003249858506023884
363,24239,24237,-0.011018944904208183,-0.012182573787868023,1.035431981086731,-0.04437299072742462,1.8020298480987549,0.7393180727958679,2.102468967437744,3.9070723056793213,0.3060252368450165,0.03881104663014412,-0.021902523934841156,0.0005062579293735325
364,24249,24247,0.003324401332065463,-0.07013417780399323,0.9902287721633911,0.240698903799057,1.420577049255371,1.0727430582046509,2.1039319038391113,3.90730357170105,0.30547353625297546,-0.024754798039793968,-0.018591901287436485,0.0178238395601511
365,24259,24257,0.022980626672506332,-0.06651211529970169,0.9837521910667419,0.5081900358200073,0.40632808208465576,0.7935100793838501,2.105027437210083,3.907224416732788,0.3050000071525574,-0.018860893324017525,-0.01196513045579195,0.006464232224971056
366,24269,24267,0.00913071446120739,-0.02297384664416313,1.0155479907989502,0.5859067440032959,-0.4648001790046692,1.0548683404922485,2.1072747707366943,3.9071075916290283,0.3063908815383911,-0.15678763389587402,-0.0007398203015327454,0.01656547375023365
367,24279,24277,0.04987278953194618,-0.032832175493240356,1.0502691268920898,0.8998991250991821,-1.299459457397461,1.3333523273468018,2.1092097759246826,3.906895637512207,0.30597633123397827,-0.1927584856748581,0.013918139040470123,0.029559146612882614
368,24289,24287,0.03517301008105278,-0.022454489022493362,1.032361626625061,1.5490503311157227,-3.397081136703491,1.3841197490692139,2.11016845703125,3.9065170288085938,0.30569010972976685,-0.1225799024105072,0.02677758038043976,0.021253662183880806
369,24299,24297,-0.021855564787983894,0.03882632032036781,1.0364091396331787,0.7478642463684082,-4.340523719787598,1.4539709091186523,2.109590768814087,3.905766010284424,0.3055463135242462,0.04093976691365242,0.13542966544628143,0.0413779653608799
370,24309,24307,0.017966412007808685,-0.04923170804977417,1.0423365831375122,0.9633963704109192,-4.265388488769531,1.7225614786148071,2.1108689308166504,3.9061996936798096,0.31193414330482483,0.05559559538960457,0.05824774503707886,0.053563810884952545
371,24319,24317,0.021609654650092125,-0.07285146415233612,1.005295753479004,-0.47504597902297974,-3.1340668201446533,1.7149276733398438,2.1121292114257812,3.9065260887145996,0.3120573163032532,0.06707751005887985,0.06649275869131088,0.08186528831720352
372,24329,24327,0.006300593726336956,-0.08358684927225113,1.0559183359146118,0.10538660734891891,-1.2108502388000488,0.9826769232749939,2.112452507019043,3.906507730484009,0.3122712969779968,0.1394684612751007,0.05648762732744217,0.10692443698644638
373,24339,24337,0.027643904089927673,-0.11903038620948792,1.0176277160644531,-0.47100743651390076,0.4500810205936432,0.9194204807281494,2.1138546466827393,3.906287908554077,0.31200531125068665,0.09569600224494934,0.051999833434820175,0.10108613967895508
374,24349,24347,0.009037892334163189,0.03361181914806366,1.010884404182434,-0.8012456297874451,1.894088864326477,0.555199146270752,2.1154448986053467,3.9068703651428223,0.31217044591903687,0.01702273078262806,-0.031503912061452866,0.11150595545768738
375,24359,24357,0.008139509707689285,-0.07565955817699432,1.0142642259597778,-0.2723296582698822,2.251329183578491,0.5731202363967896,2.1162517070770264,3.9071669578552246,0.3124169707298279,0.02394423820078373,-0.03765126317739487,0.11668862402439117
376,24369,24367,0.022834645584225655,-0.13069316744804382,1.0125364065170288,1.0889360904693604,-0.22065141797065735,1.0819048881530762,2.117845296859741,3.90653395652771,0.31178510189056396,-0.06433441489934921,0.04718876630067825,0.19740958511829376
377,24379,24377,0.012999201193451881,-0.024347836151719093,0.9963445663452148,2.3522140979766846,0.8377593755722046,0.005674732383340597,2.1180191040039062,3.9088897705078125,0.31209149956703186,0.012120618484914303,0.07458009570837021,0.25109994411468506
378,24389,24387,0.04329409822821617,0.08485133945941925,0.9157249331474304,2.539915084838867,-0.5101958513259888,-0.9779719114303589,2.118757486343384,3.9090301990509033,0.3121291399002075,-0.07414798438549042,0.11082478612661362,0.2697027027606964
379,24399,24397,0.060771021991968155,0.11543924361467361,0.9296784996986389,2.1128218173980713,-0.6506261229515076,-0.9870807528495789,2.11915922164917,3.9097676277160645,0.3135914206504822,-0.06488023698329926,0.07541590929031372,0.26999804377555847
380,24409,24407,-0.018697423860430717,-0.012605102732777596,1.0166066884994507,0.986829400062561,-3.9981226921081543,-0.7564260363578796,2.1193487644195557,3.9096200466156006,0.3138357400894165,0.0652477890253067,0.10967971384525299,0.25370514392852783
381,24419,24417,-0.012553947977721691,0.0029298635199666023,1.0069682598114014,-1.402669906616211,-0.3143327236175537,-0.3575361371040344,2.1193013191223145,3.909514904022217,0.3140251636505127,0.17095251381397247,0.1162443608045578,0.2458074986934662
382,24429,24427,-0.014173184521496296,-0.0315919853746891,0.9786396622657776,-0.5706785917282104,0.08110784739255905,-0.039956070482730865,2.123358726501465,3.909550428390503,0.3139883875846863,-0.11643926054239273,0.10318488627672195,0.23641103506088257
383,24439,24437,-0.0702265053987503,-0.05970355123281479,0.9983247518539429,-1.6810157299041748,-0.4968108534812927,0.26611584424972534,2.123762845993042,3.9106500148773193,0.3082372546195984,0.0036318383645266294,0.012553194537758827,0.2382424771785736
384,24449,24447,-0.016633300110697746,-0.009299634955823421,1.008715271949768,-1.9985414743423462,0.0381806381046772,0.0190748181194067,2.1237330436706543,3.9100794792175293,0.3081284761428833,0.10361887514591217,0.06194700300693512,0.23871640861034393
385,24459,24457,-0.057855475693941116,0.014636530540883541,0.999723494052887,-1.422710657119751,-0.3037842810153961,0.520909309387207,2.125873565673828,3.9101626873016357,0.3078060448169708,-0.003719153581187129,0.03730841353535652,0.24033240973949432
386,24469,24467,-0.000960665987804532,-0.016758356243371964,0.9809641242027283,-1.1222054958343506,0.9081563949584961,0.29834046959877014,2.127373695373535,3.910037040710449,0.3086431622505188,-0.05662427842617035,0.017055189236998558,0.23360654711723328
387,24479,24477,-0.006812445819377899,0.01710965484380722,0.9860392212867737,-0.1779586672782898,0.4825528860092163,0.5731664299964905,2.128693103790283,3.910116672515869,0.3084234297275543,-0.08413803577423096,0.005573747679591179,0.2403133064508438
388,24489,24487,0.017731763422489166,0.017367934808135033,0.9965044856071472,1.192386269569397,-0.9160344004631042,0.6160544157028198,2.1295764446258545,3.909956693649292,0.3082931339740753,-0.029453344643115997,0.007692653685808182,0.2359153926372528
389,24499,24497,0.02436044067144394,-0.03394842892885208,0.9705746173858643,1.6900324821472168,-1.7851121425628662,0.6756517887115479,2.129410982131958,3.9099488258361816,0.30641117691993713,0.09502505511045456,0.031499773263931274,0.24530813097953796
390,24509,24507,-0.014374303631484509,0.00603925297036767,1.034481406211853,1.8730225563049316,-2.592423439025879,0.2654050588607788,2.1322855949401855,3.9109995365142822,0.3059718906879425,-0.07468394935131073,0.06663264334201813,0.3132658302783966
391,24519,24517,0.019141346216201782,-0.0015549013623967767,0.9764739871025085,1.585015892982483,-2.362609386444092,-0.03593795746564865,2.13199782371521,3.911733627319336,0.30584782361984253,0.08633119612932205,0.09769539535045624,0.3593476116657257
392,24529,24527,0.02602495811879635,-0.0476592518389225,0.9679545164108276,1.1825883388519287,-3.40317702293396,-0.1707475483417511,2.132094144821167,3.9115889072418213,0.30569231510162354,0.23792128264904022,0.11749614775180817,0.3324156105518341
393,24539,24537,0.010242905467748642,0.01227214839309454,0.9904987215995789,0.1357942819595337,-1.545591950416565,-0.08313123136758804,2.1330513954162598,3.9117348194122314,0.3000006079673767,0.12203320860862732,0.12764360010623932,0.3705619275569916
394,24549,24547,0.03500140458345413,0.037369254976511,0.9364109039306641,-0.8851483464241028,0.7798287272453308,-0.36468327045440674,2.1331026554107666,3.913386106491089,0.29945072531700134,0.20632599294185638,0.04368898645043373,0.4107900559902191
395,24559,24557,0.021943349391222,0.07298222184181213,1.0033694505691528,-1.5745561122894287,2.4731409549713135,-0.7680413722991943,2.134631395339966,3.9136788845062256,0.29856550693511963,0.03471217676997185,0.030338827520608902,0.4296295642852783
396,24569,24567,0.004279858432710171,0.036853279918432236,1.05662202835083,0.5844740867614746,2.832918882369995,-0.965417206287384,2.135152816772461,3.9139904975891113,0.29840150475502014,0.02379523403942585,0.024946153163909912,0.4353044927120209
397,24579,24577,0.0008295935112982988,0.0027005441952496767,1.0448212623596191,0.9780417680740356,3.949429988861084,-1.3176277875900269,2.1359362602233887,3.9156572818756104,0.29776185750961304,-0.004365895874798298,0.0357016921043396,0.5077536106109619
398,24589,24587,-0.003502482082694769,-0.0054290140978991985,1.0659022331237793,1.5439974069595337,3.1530778408050537,-1.9739381074905396,2.1374430656433105,3.9154903888702393,0.29712724685668945,-0.07274739444255829,0.067060187458992,0.49317148327827454
399,24599,24597,0.012433284893631935,-0.006628681439906359,0.9634950160980225,1.0506469011306763,4.252721309661865,-2.0213565826416016,2.1381638050079346,3.9153480529785156,0.29621827602386475,-0.077696293592453,0.1032138243317604,0.4712086021900177
400,24609,24607,0.05087669938802719,-0.0008640707237645984,1.024796962738037,0.5473268032073975,0.5279268026351929,-1.1988667249679565,2.1390116214752197,3.9151601791381836,0.2956860661506653,-0.08142317831516266,0.04832897335290909,0.41132116317749023
401,24619,24617,0.044806383550167084,-0.068081334233284,1.0015870332717896,0.3894757926464081,-1.0113372802734375,-0.2782883048057556,2.1393160820007324,3.9155216217041016,0.2952277362346649,-0.020327670499682426,0.05468723550438881,0.4810594916343689
402,24629,24627,0.05788261070847511,-0.07170794904232025,1.0726146697998047,0.9235485196113586,-1.654053807258606,-0.6262556910514832,2.142249822616577,3.918384313583374,0.29462891817092896,-0.12164024263620377,0.0751476138830185,0.5492622256278992
403,24639,24637,0.0002894111385103315,-0.1124328076839447,1.0698256492614746,-0.006598694249987602,-0.9821164608001709,-0.9393502473831177,2.1420135498046875,3.918139696121216,0.29665815830230713,0.060361672192811966,0.10752727836370468,0.5257641077041626
404,24649,24647,0.0493423156440258,-0.015996914356946945,1.063191533088684,0.15206116437911987,-3.309166669845581,-1.3814163208007812,2.1448612213134766,3.9180610179901123,0.29626429080963135,-0.09994339942932129,0.11319714784622192,0.5319504737854004
405,24659,24657,-0.0006664505926892161,-0.0335681214928627,1.039312481880188,-0.1882399320602417,-2.090742588043213,-0.9792162179946899,2.1459007263183594,3.9186010360717773,0.29618510603904724,-0.015566865913569927,0.11395209282636642,0.5240015387535095
406,24669,24667,0.014984616078436375,0.027940839529037476,1.0397783517837524,0.12218166142702103,-1.9443939924240112,-0.41130584478378296,2.1465847492218018,3.9198877811431885,0.29602229595184326,0.04893430322408676,0.029136495664715767,0.5435179471969604
407,24679,24677,0.023717129603028297,-0.06133219227194786,1.0245580673217773,-1.024364709854126,-0.4001569151878357,-0.27374646067619324,2.148339033126831,3.9196999073028564,0.2958025336265564,-0.05175057798624039,0.030722886323928833,0.5272676348686218
408,24689,24687,-0.011397959664463997,0.06552591174840927,1.0424370765686035,-0.2835887372493744,0.08516569435596466,0.06656423956155777,2.149049758911133,3.920145034790039,0.2957614064216614,-0.01491320226341486,0.03263300284743309,0.5416494607925415
409,24699,24697,0.033884551376104355,0.06352550536394119,1.0033607482910156,0.9004484415054321,0.4588976204395294,0.9946281313896179,2.1503355503082275,3.920153856277466,0.2986012101173401,-0.008352422155439854,0.041183508932590485,0.5437664985656738
410,24709,24707,0.0169175136834383,0.15504081547260284,1.0754814147949219,1.2528876066207886,-0.44368913769721985,0.744104266166687,2.1512420177459717,3.9211907386779785,0.2987648546695709,0.032862868160009384,0.06742671877145767,0.6033069491386414
411,24719,24717,0.03602990135550499,0.07444050163030624,1.1014872789382935,1.072584867477417,-2.102848768234253,0.2684204578399658,2.153301954269409,3.9215004444122314,0.2988819181919098,-0.03002876415848732,0.027259744703769684,0.5917161703109741
412,24729,24727,-0.019848283380270004,0.000831429788377136,1.0722368955612183,1.149760127067566,-2.398815631866455,0.5075734853744507,2.1538872718811035,3.9211244583129883,0.30059483647346497,0.0797441303730011,0.06681723892688751,0.5784661173820496
413,24739,24737,0.005317441187798977,-0.04159337654709816,1.0069102048873901,1.5523625612258911,-2.3484184741973877,0.9189618825912476,2.155224561691284,3.9210705757141113,0.300996333360672,0.06867575645446777,0.09443629533052444,0.5346413254737854
414,24749,24747,0.012344283983111382,0.017638906836509705,1.041299819946289,1.0725739002227783,-1.8935915231704712,1.513353705406189,2.156639575958252,3.919743299484253,0.3014377951622009,0.05727910250425339,0.12116225063800812,0.5282993912696838
415,24759,24757,0.037066273391246796,-0.06944618374109268,0.9661334156990051,-0.6539308428764343,-1.4891473054885864,1.715697169303894,2.1570005416870117,3.9194886684417725,0.30203017592430115,0.15306411683559418,0.11943061649799347,0.5252713561058044
416,24769,24767,0.0567840114235878,-0.07441528886556625,1.0205223560333252,0.051768217235803604,-3.159691095352173,2.0395522117614746,2.15901255607605,3.920025587081909,0.30458176136016846,0.044600628316402435,0.0353454165160656,0.5327787399291992
417,24779,24777,0.01469516009092331,-0.0006762375123798847,1.0186080932617188,0.821727991104126,-3.5413148403167725,2.333230495452881,2.1599724292755127,3.9195892810821533,0.30532127618789673,0.15226633846759796,0.05706777423620224,0.5230933427810669
418,24789,24787,-0.000956112053245306,-0.03522893786430359,0.973756730556488,1.0327037572860718,-3.7305679321289062,2.367743968963623,2.16176176071167,3.920114278793335,0.30584943294525146,0.09312532097101212,0.08392614126205444,0.5867463946342468
419,24799,24797,-0.014977218583226204,-0.015341270714998245,1.0225393772125244,3.3408467769622803,-4.204775333404541,2.1989948749542236,2.1619608402252197,3.920793294906616,0.30271032452583313,0.26618412137031555,0.04175550118088722,0.6044293642044067
420,24809,24807,-0.058680228888988495,0.13849450647830963,1.0022120475769043,1.9946224689483643,-1.851402759552002,1.8835080862045288,2.1644511222839355,3.922166109085083,0.3029744327068329,0.1337522715330124,0.11768244206905365,0.7113102078437805
421,24819,24817,0.0014421233208850026,0.011773167178034782,0.9775487184524536,1.8631576299667358,0.6001721024513245,1.4412330389022827,2.163828134536743,3.9220385551452637,0.30357152223587036,0.26399028301239014,0.15177735686302185,0.7243391275405884
422,24829,24827,-0.0014521959237754345,0.12126791477203369,0.9770862460136414,2.0393896102905273,0.7457615733146667,0.46167483925819397,2.166226387023926,3.925079822540283,0.30870509147644043,0.25978127121925354,0.19285236299037933,0.8920697569847107
423,24839,24837,-0.01176285371184349,0.09597529470920563,0.9835242033004761,0.5721732378005981,2.074995279312134,-0.5373806953430176,2.1686654090881348,3.926943778991699,0.30933812260627747,0.17760184407234192,0.21544049680233002,0.9755370020866394
424,24849,24847,-0.014665648341178894,0.007213357370346785,0.9824790358543396,-0.6272854804992676,5.302565574645996,-1.3955450057983398,2.169299840927124,3.929611921310425,0.3099610507488251,0.17767071723937988,0.07081691920757294,1.0430618524551392
425,24859,24857,-0.04074542224407196,0.04545854404568672,1.027514100074768,-1.008876085281372,3.2268693447113037,-1.5738368034362793,2.1703710556030273,3.928955554962158,0.3106370270252228,0.18046078085899353,0.15463949739933014,1.0271750688552856
426,24869,24867,-0.05341125279664993,-0.010168216191232204,1.0212408304214478,-0.1943797767162323,-0.21940340101718903,-1.124196171760559,2.1707777976989746,3.9287211894989014,0.31177425384521484,0.23278750479221344,0.16235898435115814,1.0196017026901245
427,24879,24877,0.018062863498926163,-0.03232492133975029,0.9510857462882996,-0.3849242925643921,-0.41854166984558105,-1.1341345310211182,2.1721410751342773,3.928945779800415,0.31242045760154724,0.18789727985858917,0.16810910403728485,1.0017788410186768
428,24889,24887,-0.03851494938135147,0.025483088567852974,0.9639456868171692,-0.4214682877063751,-0.45262420177459717,-0.900128185749054,2.172107458114624,3.9292895793914795,0.3124293386936188,0.19676156342029572,0.17808982729911804,1.0228794813156128
429,24899,24897,0.004921160638332367,0.020012518391013145,0.9655471444129944,-0.8630982041358948,0.5591542720794678,-0.5207388401031494,2.172015428543091,3.92999267578125,0.314094603061676,0.3011767864227295,0.17424601316452026,1.0576825141906738
430,24909,24907,-0.08093710988759995,0.10366497188806534,0.9937105178833008,-1.2914376258850098,-1.572214126586914,-1.4569294452667236,2.1735823154449463,3.9307169914245605,0.3147581219673157,0.24694529175758362,0.08479826152324677,1.051323413848877
431,24919,24917,-0.04239179193973541,0.19823065400123596,0.9900906085968018,-1.1292507648468018,1.2539395093917847,-0.8721871972084045,2.1735036373138428,3.9308981895446777,0.31541740894317627,0.2889934778213501,0.08028865605592728,1.0533427000045776
432,24929,24927,0.022290166467428207,0.11488323658704758,0.9603644609451294,-0.46810033917427063,2.3318395614624023,-0.6245202422142029,2.174283742904663,3.9318325519561768,0.3159959018230438,0.2852516770362854,0.08219459652900696,1.0971565246582031
433,24939,24937,0.02979126200079918,0.04546700790524483,0.9288188219070435,0.05218002200126648,2.9578380584716797,-1.0375747680664062,2.174370765686035,3.9316160678863525,0.3166053593158722,0.34117835760116577,0.09404578804969788,1.1157619953155518
434,24949,24947,0.008537444286048412,-0.02492554299533367,0.939225435256958,-0.06990160793066025,3.841756820678711,-0.8349158763885498,2.1758339405059814,3.9334280490875244,0.3171488642692566,0.28927892446517944,0.10612648725509644,1.159885287284851
435,24959,24957,-0.02530013956129551,-0.02227073162794113,0.9407819509506226,0.25895535945892334,4.474759578704834,-1.4979119300842285,2.1781272888183594,3.9347105026245117,0.31761449575424194,0.14874376356601715,0.11814019083976746,1.2637827396392822
436,24969,24967,-0.0019803782925009727,0.015700753778219223,0.9537319540977478,0.8916693925857544,5.638889789581299,-1.9892386198043823,2.1788289546966553,3.9345240592956543,0.3172960579395294,0.09248290210962296,0.21580740809440613,1.2205076217651367
437,24979,24977,-0.05606480687856674,0.06335630267858505,0.9833075404167175,0.11472123116254807,2.741751194000244,-1.8986365795135498,2.1793007850646973,3.9351308345794678,0.3176717758178711,0.12055516988039017,0.14812412858009338,1.2010624408721924
438,24989,24987,-0.0208851657807827,0.01028086245059967,0.9527440667152405,-0.7363205552101135,1.6749451160430908,-1.7820701599121094,2.180408239364624,3.9357569217681885,0.3179154694080353,0.0223045963793993,0.07375416159629822,1.184486985206604
439,24999,24997,-0.00828227773308754,0.01370968110859394,0.9533810615539551,-1.5548776388168335,0.18009166419506073,-1.660631775856018,2.1813769340515137,3.936537981033325,0.3174256682395935,0.028445374220609665,0.06693411618471146,1.2060000896453857
440,25009,25007,0.0011614381801337004,0.01092109177261591,0.9405773282051086,-1.41562819480896,-0.6036041975021362,-1.705495834350586,2.1816844940185547,3.9365549087524414,0.3176191449165344,0.05258013308048248,0.05428988113999367,1.2406071424484253
441,25019,25017,0.01898542232811451,0.03943989425897598,0.9073797464370728,-1.17128586769104,-0.5725330710411072,-2.40561580657959,2.181659460067749,3.937941551208496,0.31780099868774414,0.16346894204616547,0.04324381425976753,1.2413051128387451
442,25029,25027,0.03605986014008522,-0.0026673132088035345,0.9024229049682617,0.460862398147583,-1.8810383081436157,-2.0684096813201904,2.183319091796875,3.938278913497925,0.31852465867996216,0.1261722296476364,-0.03059622459113598,1.1908925771713257
443,25039,25037,0.024434678256511688,-0.015475672669708729,0.9497514367103577,2.1906111240386963,-1.2428661584854126,-1.5778080224990845,2.1838998794555664,3.9378647804260254,0.3185650408267975,0.16717249155044556,0.010793212801218033,1.1646156311035156
444,25049,25047,0.030199818313121796,0.059153005480766296,0.9603679776191711,3.6862103939056396,0.33212777972221375,-1.5214182138442993,2.1846320629119873,3.936436653137207,0.3185521066188812,0.16988927125930786,0.1531831920146942,1.1005563735961914
445,25059,25057,0.0009827418252825737,0.03468889370560646,0.9789110422134399,4.079445838928223,2.592681646347046,-0.948665201663971,2.1847803592681885,3.9366137981414795,0.31738224625587463,0.23857954144477844,0.14988331496715546,1.0753452777862549
446,25069,25067,0.012324211187660694,-0.024040304124355316,0.9371235370635986,3.2727720737457275,2.86554217338562,-0.5763915777206421,2.187018632888794,3.9363222122192383,0.3170943558216095,0.03243233636021614,0.22282542288303375,1.0853855609893799
447,25079,25077,-0.00301235425285995,0.0275539793074131,0.973327100276947,1.1967413425445557,5.1520891189575195,-0.40022996068000793,2.187185049057007,3.9373271465301514,0.3168870508670807,0.06457657366991043,0.2704060673713684,1.1295228004455566
448,25089,25087,-0.03897925466299057,0.05534772574901581,0.9655914902687073,-1.5500973463058472,4.953425407409668,-0.8984864354133606,2.187354803085327,3.937990427017212,0.31665414571762085,0.08335807174444199,0.204096719622612,1.1169579029083252
449,25099,25097,-0.04109110310673714,0.05971066653728485,0.9239555597305298,-3.526304006576538,3.889162063598633,-0.890622079372406,2.188978910446167,3.9397897720336914,0.31485965847969055,0.02208920195698738,0.16959594190120697,1.1740847826004028
450,25109,25107,-0.032251495867967606,0.1044364646077156,0.9600871205329895,-4.164636611938477,2.9136602878570557,-1.4430869817733765,2.189568281173706,3.940196990966797,0.31442031264305115,-0.03894916549324989,0.10630577057600021,1.1848022937774658
451,25119,25117,-0.036468733102083206,0.03331939876079559,0.9800758957862854,-4.803740978240967,1.9756120443344116,-1.6756200790405273,2.1900947093963623,3.9402999877929688,0.3140144348144531,0.00944665726274252,0.03409320488572121,1.1781961917877197
452,25129,25127,0.010073374025523663,0.05822582542896271,0.9247223138809204,-3.401477575302124,2.765066146850586,-1.948810338973999,2.1907193660736084,3.942138433456421,0.31001508235931396,-0.021918458864092827,-0.018160896375775337,1.2342281341552734
453,25139,25137,0.0267238337546587,0.019800512120127678,0.9526770114898682,-0.7261759042739868,2.103734016418457,-2.1204113960266113,2.1910548210144043,3.9409096240997314,0.30930882692337036,-0.04420953243970871,0.12333530932664871,1.224670171737671
454,25149,25147,-0.033750202506780624,0.06782906502485275,1.0339198112487793,1.3026682138442993,1.6310292482376099,-2.012263298034668,2.1909613609313965,3.9423491954803467,0.3085450530052185,0.013127337209880352,0.05074585974216461,1.2472187280654907
455,25159,25157,0.028092466294765472,-0.10331328958272934,0.9872423410415649,1.5241464376449585,2.4528160095214844,-1.945746660232544,2.1923418045043945,3.943593740463257,0.30397123098373413,0.0028991589788347483,0.08529689162969589,1.3470674753189087
456,25169,25167,0.016373051330447197,-0.0224987231194973,1.0446721315383911,0.8593194484710693,3.4368512630462646,-2.4359114170074463,2.1931610107421875,3.944498300552368,0.30289408564567566,-0.052893977612257004,0.10961545258760452,1.325661301612854
457,25179,25177,0.0072914110496640205,-0.022810425609350204,0.9916759729385376,0.11088673770427704,4.2721357345581055,-2.4092984199523926,2.1946516036987305,3.9443490505218506,0.301831990480423,-0.1991485208272934,0.11913543194532394,1.2904249429702759
458,25189,25187,-0.0033168429508805275,-0.017844203859567642,1.029667854309082,-1.955714464187622,5.193711280822754,-2.424363374710083,2.1949448585510254,3.944366693496704,0.3008590042591095,-0.19483517110347748,0.11239314824342728,1.2655580043792725
459,25199,25197,0.021651944145560265,-0.0005172601086087525,1.0331692695617676,-1.4654781818389893,4.447402477264404,-2.0545949935913086,2.19592547416687,3.9448306560516357,0.29953062534332275,-0.26657944917678833,0.16522419452667236,1.295470952987671
460,25209,25207,0.027782192453742027,-0.07185118645429611,1.037758231163025,-2.645505666732788,3.0034120082855225,-2.2160592079162598,2.195850133895874,3.945186138153076,0.2985917627811432,-0.2549288868904114,0.11270017921924591,1.2706211805343628
461,25219,25217,0.01888721063733101,0.0011191372759640217,1.068017601966858,-3.02485990524292,1.2070287466049194,-2.0702264308929443,2.1961984634399414,3.945742130279541,0.2975856065750122,-0.28339630365371704,0.06743335723876953,1.299243450164795
462,25229,25227,-0.006869746372103691,0.013114514760673046,1.0437837839126587,-1.5223807096481323,-0.555247962474823,-2.2223329544067383,2.1945748329162598,3.946913003921509,0.2945054769515991,-0.1913043111562729,-0.04794345796108246,1.316909909248352
463,25239,25237,-0.04841935634613037,0.13588206470012665,1.0731449127197266,-1.216504693031311,-0.4785791337490082,-2.6400105953216553,2.1960318088531494,3.9470126628875732,0.2935023009777069,-0.2756370007991791,-0.05130600556731224,1.2929574251174927
464,25249,25247,-0.006184312980622053,-0.013950595632195473,1.03612220287323,0.003327491693198681,1.4033143520355225,-2.5245041847229004,2.1966798305511475,3.947873115539551,0.29256513714790344,-0.26550590991973877,-0.051651496440172195,1.3141611814498901
465,25259,25257,0.0635221004486084,-0.08239379525184631,1.0693308115005493,0.9017077684402466,2.262662887573242,-2.7414443492889404,2.196625232696533,3.948259115219116,0.2915128171443939,-0.27027663588523865,-0.04649953544139862,1.3052648305892944
466,25269,25267,0.005840624216943979,-0.09435942769050598,1.1540683507919312,3.0268447399139404,2.1980748176574707,-2.9535512924194336,2.197242498397827,3.9486896991729736,0.290662944316864,-0.2770219147205353,-0.00796455517411232,1.3288073539733887
467,25279,25277,0.011754353530704975,-0.07327065616846085,1.035968542098999,3.0915021896362305,3.5772852897644043,-2.8169877529144287,2.199230670928955,3.9503183364868164,0.28986212611198425,-0.399457186460495,-0.021483130753040314,1.34514582157135
468,25289,25287,0.019933896139264107,0.04152935743331909,0.9938573241233826,3.178619384765625,3.1417336463928223,-2.4518377780914307,2.1995086669921875,3.9499669075012207,0.28928717970848083,-0.40594884753227234,0.05246749892830849,1.3322290182113647
469,25299,25297,-0.017029115930199623,0.0838845744729042,1.1122684478759766,1.5893816947937012,1.649027705192566,-2.773801565170288,2.2001073360443115,3.950752019882202,0.2869894504547119,-0.42061248421669006,0.07773427665233612,1.3674453496932983
470,25309,25307,0.026092952117323875,0.016158927232027054,1.0945371389389038,0.7080407738685608,-0.6929160952568054,-3.159409523010254,2.201258420944214,3.9511024951934814,0.2862580716609955,-0.5159376859664917,0.11365148425102234,1.3612090349197388
471,25319,25317,0.011735628359019756,-0.05983000621199608,1.0338521003723145,1.0788300037384033,-3.262993574142456,-3.5504825115203857,2.2022626399993896,3.952031373977661,0.28557223081588745,-0.5342246890068054,0.13773345947265625,1.3913763761520386
472,25329,25327,0.008410956710577011,0.0039669484831392765,1.0994389057159424,-0.1959170550107956,-4.082428932189941,-3.9012253284454346,2.202157735824585,3.9531335830688477,0.28753867745399475,-0.3707640469074249,0.15591208636760712,1.4227759838104248
473,25339,25337,0.00733461556956172,-0.026115920394659042,1.0675653219223022,-2.224522352218628,-3.5448639392852783,-3.997591495513916,2.204772710800171,3.9532580375671387,0.2871149480342865,-0.5213091969490051,0.15209761261940002,1.3850804567337036
474,25349,25347,0.017392225563526154,-0.021937869489192963,1.0935243368148804,-1.235310673713684,-4.141965866088867,-3.4735958576202393,2.204900026321411,3.9538233280181885,0.28708595037460327,-0.3475741446018219,0.043422482907772064,1.3199913501739502
475,25359,25357,0.03158828988671303,-0.011688245460391045,1.1293056011199951,-1.7970000505447388,-1.041420817375183,-3.038015604019165,2.2058792114257812,3.9541454315185547,0.28826984763145447,-0.3335912525653839,0.03368527069687843,1.3031197786331177
476,25369,25367,-0.003456104313954711,-0.054057516157627106,1.0085734128952026,2.021808624267578,-3.6126983165740967,-3.702181100845337,2.207014560699463,3.9550247192382812,0.2882990837097168,-0.3354739844799042,0.03365713730454445,1.3135050535202026
477,25379,25377,0.011402455158531666,-0.023376939818263054,1.0441147089004517,3.913846015930176,-2.254688262939453,-3.454210042953491,2.207827091217041,3.954542398452759,0.2883770763874054,-0.3446952998638153,0.057101424783468246,1.3001993894577026
