,timestamp_start,timestamp_end,acc.x,acc.y,acc.z,gyro.x,gyro.y,gyro.z,stateEstimate.x,stateEstimate.y,stateEstimate.z,stabilizer.pitch,stabilizer.roll,stabilizer.yaw
0,27371,27370,0.016283540055155754,-0.03409992903470993,0.9833595156669617,6.586825847625732,13.0548677444458,-0.2403370887041092,1.8458552360534668,4.025460243225098,0.166368767619133,0.4202635586261749,0.642412006855011,1.9662331342697144
1,27381,27380,0.06024479866027832,-0.03913085535168648,0.9742823839187622,5.724726676940918,12.32690143585205,-0.7206623554229736,1.8469226360321045,4.026094913482666,0.16654691100120544,0.06468890607357025,0.739178478717804,1.9370301961898804
2,27391,27390,0.027683718129992485,-0.04552746191620827,0.9981405735015869,4.780361652374268,7.873769760131836,-0.21840226650238037,1.8459223508834839,4.027150630950928,0.1683918535709381,0.07949899882078171,0.8238347768783569,1.9458104372024536
3,27401,27400,0.04448145255446434,-0.02922889217734337,1.0480128526687622,2.7224631309509277,4.0813374519348145,-0.10726991295814514,1.8441016674041748,4.0254130363464355,0.17041301727294922,-0.15879665315151215,0.878896951675415,1.9238859415054321
4,27411,27410,-0.06565381586551666,-0.02566785179078579,1.0589735507965088,-0.36088627576828003,4.849630832672119,-0.28686705231666565,1.8433223962783813,4.02498722076416,0.17284426093101501,-0.24545320868492126,0.9701475501060486,1.9263697862625122
5,27421,27420,0.043791014701128006,0.05878004804253578,1.0207042694091797,-2.1401748657226562,3.981703996658325,0.3371591567993164,1.8423317670822144,4.0263543128967285,0.17482773959636688,-0.398776113986969,1.0062626600265503,1.9080253839492798
6,27431,27430,0.015520761720836163,0.03662676364183426,0.9615437984466553,-4.621275901794434,2.913679599761963,0.2988986670970917,1.8394179344177246,4.027470588684082,0.1768149435520172,-0.4555014371871948,0.9948626756668091,1.9090543985366821
7,27441,27440,0.01830861158668995,0.04266463965177536,1.0502971410751343,-4.772747039794922,1.2088829278945923,0.3252236247062683,1.839522123336792,4.0272345542907715,0.1785026341676712,-0.5584399700164795,1.0241963863372803,1.9073827266693115
8,27451,27450,0.007730701006948948,-0.049355946481227875,1.0062813758850098,-5.086452960968018,-0.4485348165035248,0.13336974382400513,1.8370592594146729,4.028023719787598,0.18036328256130219,-0.6231990456581116,1.1011056900024414,1.930649757385254
9,27461,27460,0.00352893746457994,-0.001349779893644154,1.037755012512207,-5.150740146636963,-1.9225555658340454,-0.379006952047348,1.8360278606414795,4.029860973358154,0.18243543803691864,-0.6535468101501465,1.0815790891647339,1.931990146636963
10,27471,27470,-0.016876546666026115,0.006572697311639786,1.0059940814971924,-6.587797164916992,-3.9086337089538574,0.018518928438425064,1.8362185955047607,4.031760215759277,0.1840142160654068,-0.6459063291549683,1.0479785203933716,1.931591510772705
11,27481,27480,-0.017325235530734062,-0.00047608569730073214,1.0307111740112305,-7.86624813079834,-5.4899983406066895,0.14070186018943787,1.8374321460723877,4.0371994972229,0.18669913709163666,-0.6057385206222534,0.40229541063308716,1.8393141031265259
12,27491,27490,0.04527846723794937,0.04012153297662735,1.014620065689087,-8.469561576843262,-6.5368218421936035,0.3284413814544678,1.8375493288040161,4.037998676300049,0.18878623843193054,-0.6094631552696228,0.3302276134490967,1.8304433822631836
13,27501,27500,-0.023883629590272903,-0.06779152899980545,1.0290762186050415,-4.942245960235596,-5.778057098388672,0.03155611827969551,1.8417720794677734,4.040313720703125,0.1906493455171585,-0.9540287256240845,0.17653033137321472,1.755306363105774
14,27511,27510,0.011121172457933426,-0.07209184020757675,0.9780663251876831,0.6128212213516235,-6.536679744720459,0.9592432975769043,1.84489107131958,4.040804862976074,0.1939154863357544,-1.0959645509719849,0.16332176327705383,1.7344105243682861
15,27521,27520,0.005978173576295376,0.027535289525985718,1.0440239906311035,6.197045803070068,-8.771774291992188,1.1898243427276611,1.8502284288406372,4.045079708099365,0.19331206381320953,-1.7761125564575195,-0.42686036229133606,1.5244256258010864
16,27531,27530,0.029558591544628143,0.03642287477850914,1.0078110694885254,12.097271919250488,-14.576383590698242,1.9551725387573242,1.8496092557907104,4.045840263366699,0.19731658697128296,-1.428507924079895,-0.3233550190925598,1.5805296897888184
17,27541,27540,0.017267417162656784,0.05037427321076393,1.0450383424758911,17.56759262084961,-22.785390853881836,1.8590378761291504,1.8494936227798462,4.04550838470459,0.20161834359169006,-1.1040575504302979,-0.06605173647403717,1.6554795503616333
18,27551,27550,0.01779036968946457,-0.05450861528515816,0.9651509523391724,21.490713119506836,-29.831825256347656,1.7698092460632324,1.846916913986206,4.0473222732543945,0.2049875408411026,-0.6030071973800659,0.32589036226272583,1.7697596549987793
19,27561,27560,-0.0007491577998735011,0.015770453959703445,1.043640375137329,21.918222427368164,-32.8041877746582,0.8716580867767334,1.8465369939804077,4.047165870666504,0.20742923021316528,-0.32742103934288025,0.5282869338989258,1.7853212356567383
20,27571,27570,0.021008173003792763,-0.020582405850291252,0.9886276125907898,15.858746528625488,-28.142139434814453,0.5172669887542725,1.8464590311050415,4.046287536621094,0.2099292129278183,0.0672343373298645,0.9455882906913757,1.8402634859085083
21,27581,27580,0.0331697091460228,-0.0591648705303669,0.9735793471336365,8.339546203613281,-20.5704345703125,-0.037353914231061935,1.8481605052947998,4.045231342315674,0.21229615807533264,0.2293509840965271,1.2440621852874756,1.8509546518325806
22,27591,27590,0.04174648970365524,-0.08530204743146896,0.923507571220398,-2.7251129150390625,-12.453853607177734,0.2589443624019623,1.847928762435913,4.044201850891113,0.21466967463493347,0.5093458294868469,1.3938255310058594,1.8580759763717651
23,27601,27600,-0.06577398627996445,0.11186814308166504,0.9551075100898743,-11.024560928344727,-6.742220878601074,0.20994852483272552,1.848608136177063,4.044211387634277,0.2172102928161621,0.6765636801719666,1.4448696374893188,1.8616101741790771
24,27611,27610,-0.013886767439544201,-0.11737559735774994,0.9602044224739075,-18.36776351928711,-0.5978145599365234,-0.31983035802841187,1.8485944271087646,4.044102668762207,0.21968749165534973,0.8696588277816772,1.3396828174591064,1.8723244667053223
25,27621,27620,0.029248591512441635,-0.05530508607625961,0.9629765748977661,-20.801881790161133,2.4261434078216553,-0.40222233533859253,1.8482495546340942,4.043729782104492,0.22195160388946533,1.0232468843460083,1.1166309118270874,1.8876264095306396
26,27631,27630,0.005468680988997221,0.009322545491158962,0.995098888874054,-19.674774169921875,3.277008295059204,-0.740165650844574,1.8485324382781982,4.0435380935668945,0.22415712475776672,1.0360456705093384,0.9359189867973328,1.8888641595840454
27,27641,27640,0.013066815212368965,0.08329293131828308,0.9595832824707031,-14.779841423034668,2.3035926818847656,-0.7995045185089111,1.8488719463348389,4.043611526489258,0.22556355595588684,1.0132085084915161,0.7047212719917297,1.884320855140686
28,27651,27650,0.013167881406843662,-0.04082862660288811,0.9525926113128662,-7.950460910797119,2.4166300296783447,-0.6219143271446228,1.8466382026672363,4.041099548339844,0.22751739621162415,1.286340594291687,0.8385656476020813,1.9205929040908813
29,27661,27660,0.038326554000377655,-0.04169418662786484,0.935086190700531,-1.1765896081924438,2.213303804397583,-0.9966875910758972,1.8477240800857544,4.04130220413208,0.2299729734659195,1.0958096981048584,0.6833546161651611,1.8902662992477417
30,27671,27670,0.012015772983431816,0.006424551829695702,0.9829422235488892,1.7903339862823486,2.980698585510254,-0.5461407899856567,1.8474689722061157,4.037791728973389,0.23180730640888214,1.072454810142517,0.994054913520813,1.8677839040756226
31,27681,27680,0.04217420145869255,0.06063639372587204,0.967430055141449,0.9409513473510742,3.2403526306152344,-0.5990030169487,1.8480963706970215,4.03810977935791,0.233832448720932,1.0260473489761353,1.0156100988388062,1.860425591468811
32,27691,27690,0.026808355003595352,0.0012002274161204696,0.9444319605827332,-3.3173575401306152,2.6117825508117676,-0.6183342933654785,1.847257375717163,4.0366926193237305,0.2358463555574417,0.9765084385871887,1.0180268287658691,1.8530502319335938
33,27701,27700,0.00965545978397131,0.026402682065963745,0.9644743800163269,-9.719738006591797,3.0173373222351074,-0.6111152768135071,1.84345543384552,4.036520004272461,0.23785383999347687,1.102895975112915,0.8875615000724792,1.8849016427993774
34,27711,27710,-0.04523541405797005,0.001248461427167058,0.9671118259429932,-14.920760154724121,2.3859455585479736,-0.6323109865188599,1.8425742387771606,4.035121917724609,0.23837602138519287,1.0446122884750366,0.8776147365570068,1.8675217628479004
35,27721,27720,-0.04047996923327446,-0.08075450360774994,0.9480242133140564,-21.291851043701172,7.4300642013549805,-0.09784048050642014,1.8417938947677612,4.033495903015137,0.2401798665523529,1.0963202714920044,0.680101752281189,1.8737841844558716
36,27731,27730,0.042391903698444366,-0.1791301816701889,0.931491494178772,-22.44761848449707,7.626333236694336,0.3919942378997803,1.843187689781189,4.031152725219727,0.24190141260623932,0.9551485180854797,0.6217730641365051,1.8651278018951416
37,27741,27740,0.02733660489320755,-0.16843801736831665,0.9723085165023804,-21.126367568969727,7.151792049407959,0.3673131465911865,1.8424592018127441,4.036067962646484,0.24318459630012512,0.7415439486503601,0.31296929717063904,1.8654967546463013
38,27751,27750,-0.05125020816922188,0.1337077021598816,0.9989154934883118,-18.265810012817383,7.006929397583008,1.294092059135437,1.8430163860321045,4.036815166473389,0.24483206868171692,0.6286429166793823,0.03449822589755058,1.871047019958496
39,27761,27760,-0.034461963921785355,-0.018878662958741188,0.9927380681037903,-14.24498176574707,5.779083251953125,0.8254457116127014,1.8416954278945923,4.036739826202393,0.2465105950832367,0.7428658604621887,-0.11303728818893433,1.8956446647644043
40,27771,27770,-0.0032364458311349154,-0.08427263051271439,0.9557151794433594,-8.817752838134766,3.5728206634521484,0.7887424230575562,1.8429253101348877,4.036064147949219,0.2494361251592636,0.6398088932037354,-0.2613659203052521,1.8999420404434204
41,27781,27780,0.009012163616716862,-0.013473967090249062,0.9459952712059021,-4.431399345397949,4.34443998336792,0.926528811454773,1.842267632484436,4.036369800567627,0.25116658210754395,0.564645528793335,-0.4012845456600189,1.90749990940094
42,27791,27790,-0.014724857173860073,0.03255832567811012,1.0000253915786743,-0.7430936098098755,3.0520713329315186,1.39578115940094,1.8408734798431396,4.035114765167236,0.2528594434261322,0.5608490109443665,-0.3993944525718689,1.9117960929870605
43,27801,27800,0.011664340272545815,-0.006853122729808092,0.9471467137336731,-0.2805393934249878,3.3325252532958984,1.5659068822860718,1.8420615196228027,4.036251068115234,0.25466716289520264,0.5580891966819763,-0.3540470004081726,1.927310824394226
44,27811,27810,0.03233755752444267,0.06215410679578781,0.9248298406600952,-0.5828278064727783,2.204397678375244,1.4393718242645264,1.8426750898361206,4.036075115203857,0.2574335038661957,0.481265664100647,-0.37079891562461853,1.9411592483520508
45,27821,27820,0.033032916486263275,-0.027907200157642365,0.9225404858589172,-3.6637327671051025,3.2228147983551025,0.8745267987251282,1.8427075147628784,4.035830020904541,0.2590446174144745,0.41693127155303955,-0.39898157119750977,1.9562221765518188
46,27831,27830,-0.00792780239135027,-0.016998913139104843,0.9636759161949158,-6.568462371826172,3.1130456924438477,0.6756814122200012,1.8427709341049194,4.036012172698975,0.2606334388256073,0.3505565822124481,-0.5414537787437439,1.97185480594635
47,27841,27840,-0.004907635971903801,0.005568655673414469,0.9780905246734619,-9.140536308288574,5.1989216804504395,0.7418210506439209,1.8402198553085327,4.035778522491455,0.2602550685405731,0.5668500065803528,-0.6433148980140686,1.974590539932251
48,27851,27850,0.008513372391462326,0.014593360014259815,0.990067720413208,-10.065528869628906,5.331686019897461,0.5230352282524109,1.8418277502059937,4.037922382354736,0.26169276237487793,0.4431605637073517,-0.7784174084663391,1.9885172843933105
49,27861,27860,-0.008994895033538342,-0.004999671597033739,0.9679508805274963,-8.781606674194336,5.310545921325684,1.0655323266983032,1.841335654258728,4.035998344421387,0.2630542516708374,0.3878314793109894,-0.7725025415420532,1.9889198541641235
50,27871,27870,0.021284395828843117,-0.0063987295143306255,0.9604105949401855,-5.45188045501709,6.5433502197265625,1.163236379623413,1.8408758640289307,4.035641670227051,0.26079511642456055,0.32452327013015747,-0.8946819305419922,1.997787356376648
51,27881,27880,0.0038482695817947388,0.0022764778696000576,0.9777977466583252,-2.383249282836914,7.740104675292969,1.2351930141448975,1.8399817943572998,4.036251068115234,0.26184704899787903,0.31907251477241516,-1.0292998552322388,2.005159378051758
52,27891,27890,-0.04992048814892769,0.056063130497932434,0.9960097670555115,1.6559849977493286,7.4678053855896,1.2191767692565918,1.839967966079712,4.035515308380127,0.26296621561050415,0.2246037721633911,-1.0251542329788208,2.0178070068359375
53,27901,27900,0.0013460837071761489,-0.0268979724496603,0.9464131593704224,2.96868634223938,6.667306900024414,1.3011010885238647,1.840760588645935,4.034653663635254,0.265350341796875,0.13280901312828064,-0.9655461311340332,2.0295794010162354
54,27911,27910,-0.0027237171307206154,0.007112695835530758,0.9460231065750122,4.075361251831055,5.590461730957031,1.04868483543396,1.8405622243881226,4.034985065460205,0.2664361298084259,0.05638550966978073,-0.960230827331543,2.041825771331787
55,27921,27920,0.000791648868471384,0.0400698259472847,1.005338191986084,4.2861328125,5.270115852355957,1.2054930925369263,1.8409556150436401,4.035174369812012,0.2674795389175415,-0.07709149271249771,-0.938896656036377,2.0600314140319824
56,27931,27930,0.002069977344945073,-0.011033548973500729,0.9958799481391907,3.306403160095215,4.843703269958496,0.9753428101539612,1.8402857780456543,4.035575866699219,0.2685118615627289,-0.043191857635974884,-0.9071473479270935,2.059296131134033
57,27941,27940,0.010500887408852577,0.017637236043810844,0.9952390789985657,2.329479932785034,3.576932430267334,0.09168543666601181,1.838562250137329,4.035804748535156,0.271067351102829,-0.01266306173056364,-0.8870387077331543,2.0576775074005127
58,27951,27950,-0.0025201814714819193,0.03397881239652634,0.9753488898277283,0.35859414935112,2.328496217727661,0.22183649241924286,1.836491346359253,4.035735130310059,0.27207520604133606,0.17485256493091583,-0.8101505637168884,2.030256509780884
59,27961,27960,-0.007557952310889959,0.0026838777121156454,0.9898048639297485,-0.5818948745727539,4.431302547454834,-0.03752285987138748,1.8367198705673218,4.035099983215332,0.27325913310050964,0.05541849136352539,-0.76396244764328,2.0442488193511963
60,27971,27970,-0.0601273849606514,0.1288793981075287,0.9773682355880737,-1.4457404613494873,6.256282806396484,-0.8651031255722046,1.8366661071777344,4.035211086273193,0.2728339433670044,-0.009712147526443005,-0.813795268535614,2.045304298400879
61,27981,27980,-0.027400266379117966,0.09113288670778275,0.9263176321983337,-1.9835193157196045,9.351521492004395,-0.8620765209197998,1.8357138633728027,4.035763740539551,0.27378103137016296,-0.03671422228217125,-0.8690267205238342,2.030693292617798
62,27991,27990,-0.025069328024983406,0.06080884113907814,0.9613192677497864,-1.1869763135910034,9.378630638122559,-0.6168932914733887,1.8362451791763306,4.037433624267578,0.274732381105423,-0.17756518721580505,-0.8500115275382996,2.030651092529297
63,28001,28000,-0.010582270100712776,0.021863790228962898,0.9963912963867188,0.8032081723213196,9.767162322998047,-0.6810951828956604,1.8376930952072144,4.037248611450195,0.27371516823768616,-0.25483864545822144,-0.8983206152915955,2.0180294513702393
64,28011,28010,-0.03142647445201874,-0.031195899471640587,0.9798499345779419,2.5229012966156006,8.963005065917969,-1.1713446378707886,1.8371447324752808,4.035524368286133,0.2744916081428528,-0.47028160095214844,-0.8308941125869751,2.027369499206543
65,28021,28020,-0.05831609293818474,-0.040152087807655334,0.9844897389411926,3.6205673217773438,9.026786804199219,-0.6392645239830017,1.835898995399475,4.036696434020996,0.2752509117126465,-0.6502938270568848,-0.8120913505554199,2.0278992652893066
66,28031,28030,-0.013204574584960938,0.044559355825185776,0.9757445454597473,3.3987367153167725,5.545175075531006,-0.6196710467338562,1.8361679315567017,4.03717565536499,0.2759571969509125,-0.8163663148880005,-0.8532518148422241,2.0231354236602783
67,28041,28040,0.000843966321554035,0.0579347126185894,1.0067901611328125,3.1663010120391846,1.0616240501403809,-0.5275105237960815,1.8339571952819824,4.036242961883545,0.27776676416397095,-0.701468288898468,-0.8147649765014648,1.9940992593765259
68,28051,28050,0.006656787823885679,0.0752449482679367,0.9642983078956604,2.792339563369751,-2.4272704124450684,0.0690465122461319,1.8328814506530762,4.0355916023254395,0.27853521704673767,-0.606972336769104,-0.7784819006919861,1.9739083051681519
69,28061,28060,0.051139913499355316,0.07459933310747147,0.9712874889373779,3.608886957168579,-4.604990005493164,0.41655150055885315,1.8323447704315186,4.03652811050415,0.27925926446914673,-0.544623613357544,-0.7422775626182556,1.9698975086212158
70,28071,28070,0.0626261979341507,0.016180433332920074,0.9754576086997986,4.135411262512207,-4.65638542175293,0.3845125436782837,1.8320993185043335,4.038074970245361,0.27892088890075684,-0.5358607172966003,-0.8438072800636292,1.9626997709274292
71,28081,28080,0.018800094723701477,-0.0714673176407814,0.953603982925415,4.567317485809326,-1.5508711338043213,0.769241213798523,1.8333920240402222,4.038398265838623,0.2796247601509094,-0.5982514023780823,-0.767232358455658,1.9856131076812744
72,28091,28090,0.004289336036890745,0.14790600538253784,1.0009746551513672,4.396864891052246,1.2852498292922974,0.7075902223587036,1.8338266611099243,4.039345741271973,0.2802720069885254,-0.6245943307876587,-0.6915730834007263,2.0032503604888916
73,28101,28100,-0.0037796904798597097,-0.043465856462717056,0.9725219011306763,5.55386209487915,2.5499267578125,0.945902943611145,1.8334665298461914,4.039102554321289,0.2819119393825531,-0.6155067682266235,-0.6129271984100342,2.0114352703094482
74,28111,28110,-0.01224400382488966,-0.12872475385665894,0.9651119112968445,5.152074813842773,4.9669189453125,0.465135782957077,1.8317368030548096,4.03938102722168,0.28253448009490967,-0.4824514091014862,-0.529690682888031,2.0045106410980225
75,28121,28120,-0.055928777903318405,-0.045895300805568695,0.9983649253845215,3.7206976413726807,4.417414665222168,0.14462484419345856,1.8318203687667847,4.039348602294922,0.2831590175628662,-0.6010177135467529,-0.4479382336139679,2.0219128131866455
76,28131,28130,0.02628438174724579,-0.05138595402240753,0.9987791776657104,1.9885519742965698,5.185390949249268,0.20691533386707306,1.8311231136322021,4.038549423217773,0.28371626138687134,-0.6293962001800537,-0.3906269371509552,2.0249764919281006
77,28141,28140,0.043391622602939606,-0.044110942631959915,1.013669729232788,0.5696805119514465,2.224242925643921,-0.1118907704949379,1.8317166566848755,4.038517951965332,0.28195130825042725,-0.7347890734672546,-0.3643907606601715,2.0356698036193848
78,28151,28150,0.007399925030767918,0.004253050312399864,1.0058300495147705,-0.6631205081939697,1.5563849210739136,-0.04304242134094238,1.8316196203231812,4.038858413696289,0.2824007570743561,-0.8059977889060974,-0.3639042377471924,2.038639545440674
79,28161,28160,0.03750127553939819,-0.050426606088876724,0.961733877658844,-0.8024162650108337,-0.16510009765625,-0.16603858768939972,1.8301879167556763,4.039647102355957,0.2828746438026428,-0.7013326287269592,-0.45371657609939575,2.016784429550171
80,28171,28170,-0.03336314484477043,0.008218902163207531,1.0282816886901855,0.5289480090141296,-2.466564416885376,-0.4307749569416046,1.8302700519561768,4.039344310760498,0.28356030583381653,-0.7269526720046997,-0.4573753774166107,2.017745018005371
81,28181,28180,0.022986609488725662,-0.04641805589199066,0.973298966884613,3.6438724994659424,-2.440077304840088,-0.14359615743160248,1.8288475275039673,4.037961959838867,0.2840377390384674,-0.7317864894866943,-0.43658730387687683,2.0179483890533447
82,28191,28190,0.012347521260380745,0.019986404106020927,1.0320320129394531,5.766916275024414,-1.616197109222412,-0.20179392397403717,1.827422022819519,4.0393500328063965,0.2844890356063843,-0.73298180103302,-0.36837923526763916,2.0223915576934814
83,28201,28200,0.01834365911781788,0.014866696670651436,1.0423667430877686,7.014065265655518,-1.5434064865112305,-0.40145576000213623,1.8275636434555054,4.039628028869629,0.28461700677871704,-0.7290551066398621,-0.3442728817462921,2.0169284343719482
84,28211,28210,-0.017271339893341064,-0.03470887616276741,0.9967620968818665,6.384242534637451,-1.253998875617981,-0.4581488072872162,1.828041911125183,4.039054870605469,0.28512606024742126,-0.8129287958145142,-0.2278198003768921,2.027003288269043
85,28221,28220,-0.05859842151403427,0.04899346083402634,0.9973174333572388,4.914097785949707,-0.8404005169868469,-0.6965222358703613,1.826581358909607,4.038203239440918,0.2856522798538208,-0.6541945934295654,-0.12429896742105484,2.0202064514160156
86,28231,28230,-0.01849222742021084,0.11279846727848053,0.9712895154953003,2.483689308166504,0.2267969250679016,-0.17076432704925537,1.8274860382080078,4.039878845214844,0.2862117886543274,-0.8200423121452332,-0.20235523581504822,1.9999802112579346
87,28241,28240,0.02835717238485813,-0.011493314988911152,1.0101016759872437,0.34260931611061096,-0.6477087736129761,-0.0965024009346962,1.827787160873413,4.039798259735107,0.2867051661014557,-0.8298002481460571,-0.15866930782794952,1.9997142553329468
88,28251,28250,0.01656128466129303,-0.02462710626423359,0.984950840473175,-0.38318875432014465,-2.0437161922454834,-0.2878651022911072,1.8274255990982056,4.039662837982178,0.2871544361114502,-0.8143277168273926,-0.14845368266105652,1.9986217021942139
89,28261,28260,0.019353633746504784,-0.1473618447780609,0.9876564741134644,0.17911303043365479,-0.08217775076627731,-0.47720861434936523,1.8276575803756714,4.040568828582764,0.2876616418361664,-0.7916222214698792,-0.1451166570186615,1.9968534708023071
90,28271,28270,-0.04393241927027702,-0.13895240426063538,1.0619539022445679,1.6413490772247314,4.3427510261535645,-0.8744502663612366,1.8281325101852417,4.041290283203125,0.28582441806793213,-0.8057762980461121,-0.12856489419937134,1.9957365989685059
91,28281,28280,0.00588722201064229,-0.18504779040813446,0.9774163365364075,2.3755578994750977,10.387537002563477,-0.9787200093269348,1.8278602361679077,4.040868759155273,0.2862128019332886,-0.8220055103302002,-0.08760235458612442,1.9893383979797363
92,28291,28290,-0.01945958100259304,-0.02965897135436535,1.0185139179229736,2.5537538528442383,15.56776237487793,-1.2742185592651367,1.8296233415603638,4.042963981628418,0.2865873873233795,-1.0164930820465088,-0.11458424478769302,1.9734376668930054
93,28301,28300,0.10957469791173935,0.006316705606877804,0.9627698659896851,2.9947996139526367,15.91440486907959,-1.318301796913147,1.8308032751083374,4.0439910888671875,0.28907454013824463,-1.2012934684753418,-0.05827696621417999,1.9662593603134155
94,28311,28310,-0.06327982991933823,-0.024455741047859192,1.068947196006775,1.8770018815994263,14.935891151428223,-0.7960584759712219,1.830838918685913,4.045550346374512,0.2895108759403229,-1.4412211179733276,-0.008321145549416542,1.9574253559112549
95,28321,28320,0.01539656426757574,-0.12093862146139145,1.0111103057861328,0.758507251739502,9.594724655151367,-0.9555546641349792,1.8314857482910156,4.046407699584961,0.2900596857070923,-1.5679148435592651,0.02436749078333378,1.951035499572754
96,28331,28330,0.023592408746480942,-0.06769472360610962,1.0001548528671265,0.39797359704971313,2.729431390762329,-0.748530387878418,1.8319718837738037,4.046990394592285,0.2913801372051239,-1.6755621433258057,0.042001351714134216,1.9431548118591309
97,28341,28340,-0.004942768253386021,-0.01576436124742031,0.9999074935913086,-0.6725940108299255,-3.0723164081573486,-0.9634994864463806,1.831963300704956,4.046715259552002,0.29202699661254883,-1.661658763885498,0.04341671243309975,1.9362989664077759
98,28351,28350,-0.010799788869917393,0.03709475323557854,1.006874918937683,-0.03496019169688225,-7.9369425773620605,-0.5453479290008545,1.8314766883850098,4.046817302703857,0.2927010655403137,-1.5550249814987183,0.03663325309753418,1.9284436702728271
99,28361,28360,-0.03811737522482872,0.07280964404344559,1.0357794761657715,0.4008074104785919,-8.295878410339355,-0.8021597266197205,1.8306533098220825,4.047101974487305,0.29338300228118896,-1.39004385471344,0.040495820343494415,1.924831748008728
100,28371,28370,-0.0286385640501976,-0.024323921650648117,0.9979003071784973,0.21117793023586273,-6.6830735206604,-1.3407701253890991,1.8308745622634888,4.0476579666137695,0.29316139221191406,-1.2936433553695679,-0.022889122366905212,1.9032102823257446
101,28381,28380,-0.0032933957409113646,0.012869199737906456,1.0284358263015747,0.1001489982008934,-2.400200366973877,-0.9554369449615479,1.8304164409637451,4.046902179718018,0.29378411173820496,-1.1787643432617188,-0.004814079962670803,1.8943129777908325
102,28391,28390,0.012036631815135479,0.010912253521382809,1.0035899877548218,0.8902345299720764,2.577512741088867,-1.3373463153839111,1.8312183618545532,4.047216415405273,0.2943960726261139,-1.2269132137298584,0.008414873853325844,1.8837400674819946
103,28401,28400,-0.008129614405333996,0.024764077737927437,0.9782461524009705,-0.2079298496246338,6.672924995422363,-1.1160484552383423,1.8325729370117188,4.045977592468262,0.2959118187427521,-1.3423992395401,0.09728369116783142,1.8849835395812988
104,28411,28410,0.041991058737039566,-0.08131902664899826,0.9508669376373291,-0.13036561012268066,8.47938060760498,-1.2010984420776367,1.833876371383667,4.0460004806518555,0.29659199714660645,-1.43096923828125,0.09272611886262894,1.8732306957244873
105,28421,28420,-0.024587290361523628,0.003996008541435003,1.0184768438339233,-1.0786381959915161,6.469642639160156,-1.708030104637146,1.834399700164795,4.046710014343262,0.29721522331237793,-1.5252209901809692,0.08394302427768707,1.8589560985565186
106,28431,28430,0.025418728590011597,-0.028110936284065247,0.9718030095100403,-1.567408561706543,4.269227981567383,-1.860058069229126,1.8348021507263184,4.046722888946533,0.2975105345249176,-1.5798914432525635,0.0625048577785492,1.8403226137161255
107,28441,28440,0.01273258961737156,-0.13033825159072876,1.0209670066833496,-1.6144154071807861,0.3716716170310974,-2.208320379257202,1.8354346752166748,4.046273231506348,0.29817020893096924,-1.5643314123153687,0.03701134771108627,1.8221746683120728
108,28451,28450,0.008800873532891273,-0.15383395552635193,0.99741530418396,-1.6482644081115723,-2.5796473026275635,-2.903712749481201,1.8366960287094116,4.045996189117432,0.29868724942207336,-1.6437692642211914,0.011946616694331169,1.7951310873031616
109,28461,28460,0.01876228302717209,-0.03379615768790245,0.9993119239807129,-0.2310875654220581,-3.9102425575256348,-3.2519052028656006,1.8370167016983032,4.04642391204834,0.29950255155563354,-1.6045348644256592,-0.0018508690409362316,1.7694697380065918
110,28471,28470,-0.015291363000869751,0.034595590084791183,1.023382306098938,0.6175264120101929,-6.249994277954102,-2.9445130825042725,1.8362928628921509,4.046377658843994,0.3002825081348419,-1.3852946758270264,0.000501857663039118,1.7464386224746704
111,28481,28480,0.08647418022155762,0.017706895247101784,0.9203351140022278,1.692171573638916,-5.422913074493408,-2.861245632171631,1.837271809577942,4.046088218688965,0.30088508129119873,-1.4159871339797974,0.015666155144572258,1.7149461507797241
112,28491,28490,-0.010487795807421207,0.009558464400470257,1.0085859298706055,1.7089180946350098,-3.96329665184021,-3.0450403690338135,1.8393607139587402,4.0467305183410645,0.3013625144958496,-1.508489727973938,0.0456746369600296,1.683117151260376
113,28501,28500,-0.03227844834327698,0.019419778138399124,1.019997477531433,2.273871421813965,-4.02382230758667,-2.735847234725952,1.8393474817276,4.047531604766846,0.30192264914512634,-1.3619552850723267,0.07579425722360611,1.6586252450942993
114,28511,28510,0.005965187679976225,-0.06064971163868904,0.9836091995239258,0.29147690534591675,-2.8956611156463623,-2.7824411392211914,1.8407351970672607,4.047947406768799,0.30242884159088135,-1.414817214012146,0.09422434866428375,1.6288148164749146
115,28521,28520,-0.025405459105968475,-0.0869455635547638,1.0049768686294556,-0.6405181884765625,-2.7857205867767334,-2.380213499069214,1.8421010971069336,4.0487494468688965,0.3030516803264618,-1.3684083223342896,0.0958927795290947,1.6058522462844849
116,28531,28530,-0.04395236819982529,-0.008130445145070553,1.0206358432769775,-1.6596016883850098,-3.8095650672912598,-2.1752982139587402,1.8424519300460815,4.048555374145508,0.3033751845359802,-1.3821382522583008,0.08556743711233139,1.5766607522964478
117,28541,28540,-0.07290811091661453,0.0031325737945735455,1.0025594234466553,-1.8738672733306885,-5.015693187713623,-2.111109495162964,1.841769814491272,4.050406455993652,0.30395638942718506,-1.3097652196884155,0.0604919008910656,1.552643060684204
118,28551,28550,-0.016785936430096626,-0.06067328527569771,0.9594707489013672,-1.5428466796875,-5.4875168800354,-1.523247480392456,1.841083288192749,4.049022674560547,0.3045623302459717,-1.2203642129898071,0.03051891177892685,1.529395580291748
119,28561,28560,0.05436132103204727,-0.11283013224601746,0.9572040438652039,-1.0426523685455322,-6.455288410186768,-1.9985706806182861,1.8443468809127808,4.049172878265381,0.30396726727485657,-1.3475466966629028,0.009330482222139835,1.5038726329803467
120,28571,28570,-0.012988835573196411,0.055025290697813034,1.00711989402771,0.032590895891189575,-6.636373043060303,-1.6172516345977783,1.8456107378005981,4.050315856933594,0.30444228649139404,-1.275261402130127,0.0019899026956409216,1.4875849485397339
121,28581,28580,-0.010926870629191399,0.008349339477717876,0.9956157207489014,0.7084364295005798,-8.531232833862305,-1.7856426239013672,1.8457368612289429,4.050446033477783,0.304991751909256,-1.1189900636672974,0.009201068431138992,1.4764660596847534
122,28591,28590,0.017962409183382988,-0.04041527211666107,0.9618954062461853,1.6052595376968384,-9.479063034057617,-2.034252643585205,1.8483797311782837,4.050386428833008,0.30559009313583374,-0.9527096152305603,0.10076585412025452,1.4751814603805542
123,28601,28600,0.0005552489310503006,-0.00372183951549232,1.0148214101791382,2.3724381923675537,-9.816946983337402,-2.315561532974243,1.8507030010223389,4.0508317947387695,0.30747851729393005,-0.992967963218689,0.13107779622077942,1.4506826400756836
124,28611,28610,0.005808447487652302,0.010921861976385117,1.015861988067627,1.3356016874313354,-8.122010231018066,-2.17919921875,1.8513942956924438,4.053578853607178,0.30821651220321655,-0.7221715450286865,0.08821602910757065,1.429636836051941
125,28621,28620,0.014658800326287746,-0.021234523504972458,0.9761157631874084,-0.03390771895647049,-6.255418300628662,-2.90966796875,1.8535798788070679,4.0545854568481445,0.3087314963340759,-0.728508710861206,0.10495355725288391,1.4048385620117188
126,28631,28630,0.0357537567615509,-0.08256247639656067,0.9701974987983704,-2.521350622177124,-3.2968926429748535,-2.2867648601531982,1.8541337251663208,4.054529190063477,0.3095148503780365,-0.7044663429260254,0.08115695416927338,1.3723746538162231
127,28641,28640,0.00028818316059187055,-0.049670733511447906,0.9632531404495239,-1.8866673707962036,-3.2616677284240723,-2.73684024810791,1.8565834760665894,4.05723762512207,0.310058057308197,-0.6995160579681396,0.0358802005648613,1.3548909425735474
128,28651,28650,-0.002825698582455516,0.00035191065398976207,0.9845771193504333,-1.6662389039993286,-3.1775434017181396,-2.7573115825653076,1.8574146032333374,4.0550217628479,0.3104653060436249,-0.7599385976791382,0.08460166305303574,1.333046793937683
129,28661,28660,0.006279474589973688,0.012364109046757221,0.9857334494590759,-0.7323402166366577,-4.080483913421631,-2.253840446472168,1.8574432134628296,4.055741786956787,0.3100893497467041,-0.5805612206459045,0.05770867317914963,1.3109780550003052
130,28671,28670,-0.008099136874079704,-0.013386309146881104,0.9967624545097351,-0.5471015572547913,-5.768090724945068,-2.4815499782562256,1.8583341836929321,4.05813455581665,0.31067490577697754,-0.3904683589935303,0.04020475596189499,1.300560712814331
131,28681,28680,0.010626976378262043,-0.17640212178230286,1.0063047409057617,0.6997445821762085,-6.4133992195129395,-2.599353313446045,1.8599451780319214,4.058535099029541,0.3110826015472412,-0.4338143765926361,0.03330511599779129,1.2740179300308228
132,28691,28690,-0.00965973362326622,-0.0023275280836969614,1.0154727697372437,-0.7754210829734802,-5.176275253295898,-2.2256762981414795,1.861846685409546,4.059487342834473,0.31151333451271057,-0.38519760966300964,0.03436485677957535,1.2552558183670044
133,28701,28700,-0.011516827158629894,-0.09932847321033478,0.9999041557312012,0.4208608865737915,-5.33002233505249,-2.4583921432495117,1.8644311428070068,4.060270309448242,0.30959352850914,-0.5628735423088074,0.025036655366420746,1.2286392450332642
134,28711,28710,0.011900153011083603,-0.1331215351819992,0.9386847019195557,0.4276803135871887,-4.021627426147461,-2.251094341278076,1.867464542388916,4.06137752532959,0.3098021149635315,-0.5908478498458862,0.03194058686494827,1.2093818187713623
135,28721,28720,-0.002984949853271246,-0.053486134856939316,0.9734984040260315,0.5491941571235657,-5.781064033508301,-2.506509304046631,1.8663969039916992,4.060882568359375,0.3104638457298279,-0.29551634192466736,0.11060040444135666,1.1973903179168701
136,28731,28730,0.0020873593166470528,-0.008341031149029732,0.9714382290840149,1.1456204652786255,-7.11331844329834,-2.467257022857666,1.8687479496002197,4.060700416564941,0.30919593572616577,-0.30023565888404846,0.11344176530838013,1.1691391468048096
137,28741,28740,0.006955674383789301,-0.03191271796822548,0.9719333052635193,0.9113247990608215,-6.900890827178955,-2.102827787399292,1.8681529760360718,4.060976505279541,0.3094858229160309,-0.0587710402905941,0.12376336753368378,1.1484055519104004
138,28751,28750,-0.0044942996464669704,0.00138564791996032,1.0050122737884521,-0.6319259405136108,-6.81995153427124,-2.3223512172698975,1.8691295385360718,4.061769962310791,0.3096448481082916,0.010590548627078533,0.12172438204288483,1.1345746517181396
139,28761,28760,0.020687375217676163,-0.014228537678718567,0.9780700206756592,-2.339050054550171,-5.2118940353393555,-2.3757998943328857,1.8721163272857666,4.0626091957092285,0.3080558180809021,-0.08198748528957367,0.09488832950592041,1.1069785356521606
140,28771,28770,0.009182206355035305,-0.034380726516246796,0.9837038516998291,-3.398608922958374,-2.8775393962860107,-1.9328352212905884,1.872779369354248,4.063126087188721,0.3081033527851105,0.03579717129468918,0.044317472726106644,1.0884952545166016
141,28781,28780,-0.00012443495506886393,-0.020961878821253777,0.9930070638656616,-3.7546935081481934,-1.5660369396209717,-2.0319809913635254,1.8737369775772095,4.0629048347473145,0.30816638469696045,0.11281730979681015,0.05465569347143173,1.069850206375122
142,28791,28790,-0.030730506405234337,-0.015534713864326477,0.9793978333473206,-3.6584908962249756,-0.9941021800041199,-2.2179388999938965,1.8772410154342651,4.06190824508667,0.30735859274864197,-0.05362207815051079,0.060031671077013016,1.042682409286499
143,28801,28800,0.0063946424052119255,0.0017650643130764365,0.9944627285003662,-2.4361319541931152,0.6471160650253296,-1.8578205108642578,1.877507209777832,4.0632429122924805,0.3074278235435486,0.07623231410980225,-0.009520730935037136,1.0370882749557495
144,28811,28810,0.01494616735726595,-0.04689129441976547,0.9796571731567383,-1.5826385021209717,-0.0032971547916531563,-1.7829651832580566,1.880818247795105,4.062727451324463,0.3072409927845001,-0.04377862066030502,-0.055362164974212646,1.0049628019332886
145,28821,28820,-0.022888315841555595,0.1309787780046463,1.0249073505401611,-0.9239016771316528,-0.4759272634983063,-1.6466795206069946,1.8802579641342163,4.062655925750732,0.3073309063911438,0.0709652453660965,-0.08730439096689224,0.9878072738647461
146,28831,28830,0.02365422435104847,0.005433260928839445,0.9953231811523438,0.4560699164867401,-2.822577476501465,-1.647857666015625,1.8817453384399414,4.062525272369385,0.3071935176849365,0.12351685762405396,-0.10081654042005539,0.971170961856842
147,28841,28840,-0.008442645892500877,0.045644573867321014,1.0033527612686157,1.2825599908828735,-3.5677876472473145,-1.14667809009552,1.8836957216262817,4.062577724456787,0.3070192039012909,0.044779032468795776,-0.09595437347888947,0.9531509280204773
148,28851,28850,0.015048859640955925,0.1332159787416458,0.9745141863822937,1.862992286682129,-4.097102165222168,-1.3362314701080322,1.88320791721344,4.061103343963623,0.30707868933677673,0.20681212842464447,-0.0012025623582303524,0.936246931552887
149,28861,28860,-0.015070464462041855,0.05918032303452492,1.052040934562683,2.286309003829956,-3.161604404449463,-0.348859578371048,1.884196162223816,4.062022686004639,0.3101663291454315,0.2983550727367401,0.02304583229124546,0.9310275316238403
150,28871,28870,0.02673112042248249,-0.00038214930100366473,0.9739605784416199,0.8225089311599731,-1.2449673414230347,-0.2534272372722626,1.886854648590088,4.062259674072266,0.31018969416618347,0.06387417763471603,-0.03320813551545143,0.9300318956375122
151,28881,28880,0.004890932235866785,-0.049200475215911865,1.0406776666641235,-0.45314955711364746,-0.38891175389289856,-0.6932488083839417,1.8869391679763794,4.062861442565918,0.3105241358280182,0.22050175070762634,-0.09931786358356476,0.9362570643424988
152,28891,28890,-0.0032533700577914715,-0.040015190839767456,1.0050945281982422,-1.5913530588150024,1.6535815000534058,-0.13266080617904663,1.889163851737976,4.063807487487793,0.3114355802536011,0.17488659918308258,-0.11364728212356567,0.9376692175865173
153,28901,28900,0.017530320212244987,-0.03565153107047081,1.000922679901123,-1.4415029287338257,1.0162739753723145,0.06384239345788956,1.8882098197937012,4.06577205657959,0.311694860458374,0.11517821997404099,-0.059509746730327606,0.9634154438972473
154,28911,28910,-0.003727804636582732,0.0183306485414505,1.0377322435379028,0.19805318117141724,-0.1324952244758606,0.40819522738456726,1.888685703277588,4.065834045410156,0.3120725750923157,0.21187342703342438,-0.08137137442827225,0.9657059907913208
155,28921,28920,0.009355979971587658,-0.031667567789554596,0.9938047528266907,0.26932862401008606,-1.0862696170806885,0.2120439112186432,1.889198660850525,4.065393924713135,0.31235674023628235,0.2471834123134613,-0.08163908123970032,0.9695271849632263
156,28931,28930,0.0025612404569983482,-0.014117934741079807,1.010701298713684,1.0472745895385742,-1.5569043159484863,0.5115852355957031,1.8909612894058228,4.066184043884277,0.31209102272987366,0.14785610139369965,-0.07501491904258728,0.983187198638916
157,28941,28940,0.00995248556137085,-0.0015653660520911217,1.0179468393325806,1.2537821531295776,-2.785277843475342,0.2818310856819153,1.8913933038711548,4.066252708435059,0.3123936057090759,0.21834498643875122,-0.05888902023434639,0.9880374073982239
158,28951,28950,-0.005050065461546183,-0.02230929583311081,0.9974695444107056,1.102512240409851,-3.3167734146118164,0.18975497782230377,1.8904354572296143,4.066334247589111,0.3128909170627594,0.37667933106422424,0.029632531106472015,0.9956437945365906
159,28961,28960,-0.018079848960042,-0.009892882779240608,1.0099996328353882,0.19340956211090088,-3.1412014961242676,0.5733699798583984,1.89308762550354,4.065784931182861,0.31077513098716736,0.29904860258102417,0.03389289975166321,0.9894558191299438
160,28971,28970,0.045659229159355164,-0.022779496386647224,0.9762060642242432,-1.1707868576049805,-1.3776142597198486,0.43621984124183655,1.8945428133010864,4.065812587738037,0.3108847737312317,0.2821369469165802,0.02342398092150688,0.9931660294532776
161,28981,28980,-0.05860069394111633,0.04764383286237717,1.012439489364624,-2.4851150512695312,0.4467596113681793,0.3204871416091919,1.8966132402420044,4.0654520988464355,0.31102174520492554,0.2602579891681671,-0.0094872135668993,0.9917998909950256
162,28991,28990,0.02795986458659172,-0.0074874600395560265,0.971143364906311,-2.789973735809326,3.597050666809082,-0.23584476113319397,1.8974038362503052,4.06544828414917,0.3100445568561554,0.21354787051677704,-0.05724651366472244,0.998821496963501
163,29001,29000,0.05446610599756241,-0.01390762161463499,0.9732855558395386,-2.126847505569458,1.0214885473251343,0.1385914534330368,1.899371862411499,4.0664191246032715,0.31016603112220764,0.22514431178569794,-0.10041070729494095,1.0139776468276978
164,29011,29010,-0.017290083691477776,-0.010358684696257114,1.0037142038345337,-0.38452237844467163,-0.6924229860305786,-0.38324037194252014,1.9006903171539307,4.066265106201172,0.31024616956710815,0.25221163034439087,-0.1322607547044754,1.0168559551239014
165,29021,29020,0.009419037029147148,-0.03356817364692688,0.9929379224777222,1.4964479207992554,-0.6059206128120422,-0.6033744215965271,1.900012493133545,4.066126823425293,0.31049808859825134,0.3657197952270508,-0.051591191440820694,1.0209999084472656
166,29031,29030,0.038839757442474365,0.004973937291651964,0.98134446144104,3.6870133876800537,-1.364591121673584,-0.48908206820487976,1.8999863862991333,4.066618919372559,0.3115033507347107,0.4793792963027954,-0.0900816097855568,1.0223424434661865
167,29041,29040,0.02731984481215477,-0.048894260078668594,1.011346697807312,4.050806999206543,-1.477245569229126,-0.35746628046035767,1.9025214910507202,4.0667266845703125,0.3115733563899994,0.34802114963531494,-0.029651237651705742,1.0146427154541016
168,29051,29050,-0.020971303805708885,-0.020622659474611282,1.0216492414474487,3.1748335361480713,-0.3671201467514038,-0.17555248737335205,1.9020806550979614,4.066951274871826,0.3118075132369995,0.45961183309555054,0.03169700503349304,1.0197272300720215
169,29061,29060,0.07179002463817596,-0.09435854852199554,0.995537281036377,1.6675081253051758,2.945143938064575,-0.261405348777771,1.9020088911056519,4.068387985229492,0.31057602167129517,0.44177502393722534,0.06805407255887985,1.0398478507995605
170,29071,29070,0.005230954848229885,-0.05237331613898277,1.0288013219833374,0.369000107049942,2.1036288738250732,-0.35325250029563904,1.9029232263565063,4.068949222564697,0.3106473684310913,0.41414010524749756,0.08397555351257324,1.0508251190185547
171,29081,29080,0.08439525961875916,-0.11125656217336655,0.9962356090545654,-1.2052656412124634,3.2505850791931152,-0.5318542718887329,1.9042654037475586,4.069964408874512,0.31079211831092834,0.4384414851665497,0.07075943052768707,1.055067539215088
172,29091,29090,0.02240770310163498,-0.18667103350162506,0.9979667663574219,-2.446866989135742,4.289013862609863,-0.553855836391449,1.9061925411224365,4.069765567779541,0.31088513135910034,0.2979642152786255,0.033987462520599365,1.0520648956298828
173,29101,29100,0.036861248314380646,-0.06411270797252655,0.9928335547447205,-2.943089246749878,5.180398464202881,-0.7877711653709412,1.9073656797409058,4.069739818572998,0.31093958020210266,0.2374018132686615,0.058446165174245834,1.0455119609832764
174,29111,29110,-0.014775484800338745,-0.023796191439032555,0.9968708753585815,-2.633070468902588,4.107354164123535,-0.923660397529602,1.9093378782272339,4.069143772125244,0.311021625995636,0.17560657858848572,0.0010671463096514344,1.0240976810455322
175,29121,29120,0.011383946053683758,-0.016145974397659302,1.0039528608322144,-1.3890420198440552,3.2411811351776123,-0.47690489888191223,1.9098072052001953,4.070137977600098,0.31119677424430847,0.20179161429405212,-0.039828017354011536,1.033725619316101
176,29131,29130,-0.00442762766033411,0.00928966049104929,1.027637004852295,-0.4052852988243103,1.931569218635559,-0.3865322768688202,1.911167025566101,4.070566177368164,0.3118587136268616,0.08293907344341278,-0.06511470675468445,1.036749243736267
177,29141,29140,0.02487999014556408,0.0325845442712307,1.0317213535308838,0.4515586495399475,0.14252245426177979,-0.7453004121780396,1.9111385345458984,4.072208404541016,0.31219854950904846,0.15265512466430664,-0.07145120948553085,1.0642962455749512
178,29151,29150,-0.002134280279278755,-0.02078177034854889,1.0039620399475098,0.7405520081520081,-0.9080427885055542,-1.0277155637741089,1.911686897277832,4.070695877075195,0.31234633922576904,0.17045877873897552,0.013427005149424076,1.0340932607650757
179,29161,29160,0.0370200090110302,-0.06511154025793076,1.0509347915649414,1.1802970170974731,-1.3737695217132568,-1.2098642587661743,1.912968397140503,4.070938587188721,0.312799334526062,0.20103341341018677,0.015385368838906288,1.0371078252792358
180,29171,29170,0.03625334054231644,-0.05768940970301628,0.9967339038848877,1.2333897352218628,-0.6937539577484131,-1.2522051334381104,1.912867546081543,4.070174694061279,0.3130507171154022,0.227911576628685,0.02763882651925087,1.019219160079956
181,29181,29180,-0.0001749169605318457,-0.023346329107880592,1.0048770904541016,0.7631219625473022,1.2865002155303955,-1.135359525680542,1.9136136770248413,4.070268630981445,0.3133164048194885,0.2309165894985199,0.03420415148139,1.01106595993042
182,29191,29190,-0.002767968224361539,0.007168362848460674,1.0138089656829834,-0.46963557600975037,3.682819366455078,-1.0373564958572388,1.9130501747131348,4.069822788238525,0.31353995203971863,0.2751357853412628,0.028309591114521027,1.0006563663482666
183,29201,29200,0.02707459218800068,-0.03297654539346695,0.9900155663490295,-1.689058542251587,5.700259208679199,-1.2137733697891235,1.9134511947631836,4.070014953613281,0.3138265013694763,0.26607614755630493,0.0062891580164432526,0.9896795153617859
184,29211,29210,-0.008210704661905766,0.011328710243105888,1.0113377571105957,-1.9329793453216553,7.221755027770996,-1.2019857168197632,1.914344072341919,4.069828510284424,0.314171701669693,0.22745126485824585,-0.03091663308441639,0.9792801141738892
185,29221,29220,0.019633490592241287,-0.04830503463745117,0.9634285569190979,-1.3865940570831299,7.604211330413818,-1.4856764078140259,1.9163776636123657,4.070276737213135,0.31494438648223877,0.019753433763980865,-0.06428716331720352,0.9641720652580261
186,29231,29230,-0.01788719743490219,0.009485006332397461,1.0215504169464111,-0.3679182827472687,9.381710052490234,-1.323691725730896,1.916351079940796,4.069171905517578,0.31531259417533875,0.03511999920010567,-0.007103997282683849,0.9443944096565247
187,29241,29240,0.03541339188814163,-0.013120568357408047,0.980783998966217,0.7919279336929321,5.4699625968933105,-1.1680271625518799,1.917742133140564,4.069774627685547,0.3155806362628937,-0.11056133359670639,-0.01915748231112957,0.9424968957901001
188,29251,29250,0.033880919218063354,0.016760017722845078,1.0091569423675537,0.023570837453007698,3.09852933883667,-1.014710783958435,1.9179905652999878,4.069324493408203,0.315982848405838,-0.11866778135299683,-0.019295651465654373,0.918013334274292
189,29261,29260,-0.013390048407018185,-0.010924370028078556,0.9988527297973633,-0.43409404158592224,0.8528159260749817,-0.3410355746746063,1.9194785356521606,4.0688066482543945,0.31509894132614136,-0.2342010885477066,-0.02599727362394333,0.9242820739746094
190,29271,29270,0.07006748020648956,-0.11364195495843887,0.9741272330284119,-0.8860039710998535,0.7085508108139038,-0.2854333519935608,1.9184716939926147,4.069303035736084,0.31538084149360657,-0.1865813285112381,-0.04394260421395302,0.9207105040550232
191,29281,29280,0.06247281655669212,-0.0369802750647068,0.9814578890800476,-1.0779259204864502,-2.135300636291504,-0.4891681969165802,1.919622540473938,4.069723129272461,0.31553253531455994,-0.24410273134708405,-0.06636408716440201,0.9310035109519958
192,29291,29290,-0.028090164065361023,-0.0017306985100731254,1.008357048034668,-1.387834072113037,-2.308788537979126,-0.38360705971717834,1.9194780588150024,4.069797992706299,0.31630584597587585,-0.12243029475212097,-0.0851714164018631,0.9289069771766663
193,29301,29300,0.002658491488546133,-0.05965784564614296,0.9502791166305542,-0.8319882154464722,-2.2498161792755127,-0.5353922247886658,1.9229944944381714,4.069517612457275,0.31638526916503906,-0.32093197107315063,-0.10836336761713028,0.9119755625724792
194,29311,29310,0.02750435471534729,-0.03679085150361061,0.9825817346572876,-1.7456361055374146,0.5241310596466064,-0.35719728469848633,1.9228323698043823,4.069488525390625,0.3166751265525818,-0.2684199810028076,-0.12599191069602966,0.9102861285209656
195,29321,29320,0.010744217783212662,0.012239521369338036,1.023807406425476,0.8114191293716431,-1.0664349794387817,-0.20222052931785583,1.922733187675476,4.068743705749512,0.3173840045928955,-0.164515882730484,-0.04973350465297699,0.9043256640434265
196,29331,29330,0.04268195480108261,-0.05253902077674866,0.9596862196922302,1.0615222454071045,-0.5341982841491699,0.16933350265026093,1.9257090091705322,4.069530963897705,0.3174772560596466,-0.2898876965045929,-0.04183507710695267,0.9176194071769714
197,29341,29340,0.025136327371001244,-0.049163930118083954,0.9709922075271606,1.3166499137878418,-0.483483225107193,0.449893593788147,1.9251731634140015,4.068801403045654,0.3177436590194702,-0.17643408477306366,-0.022274479269981384,0.9213197827339172
198,29351,29350,0.002226326148957014,-0.041646625846624374,0.9742451310157776,-0.0535992793738842,-1.2045621871948242,-0.27422818541526794,1.9258347749710083,4.069431781768799,0.31791186332702637,-0.155339777469635,-0.02462671510875225,0.9325053095817566
199,29361,29360,6.990999827394262e-05,-0.07927104830741882,0.9624767303466797,-0.7163146138191223,-1.5110883712768555,-0.1856357902288437,1.9271827936172485,4.070014476776123,0.3147781193256378,-0.1301070749759674,0.03348159044981003,0.9514374136924744
200,29371,29370,-0.010781829245388508,0.0744377076625824,0.9613238573074341,-0.9720829725265503,-1.605682134628296,-0.7597918510437012,1.9257042407989502,4.0696611404418945,0.31475138664245605,-0.028336472809314728,0.0021770258899778128,0.9435474872589111
201,29381,29380,-0.004358966834843159,0.01645299419760704,1.0104475021362305,-2.328000783920288,-0.43297266960144043,-1.0840178728103638,1.9288926124572754,4.069923400878906,0.3145076334476471,-0.23967447876930237,-0.0317726694047451,0.9342566728591919
202,29391,29390,-0.008704494684934616,-0.024829154834151268,0.98227858543396,-3.965365409851074,1.8118780851364136,-0.8820415139198303,1.9297902584075928,4.069994926452637,0.3142309784889221,-0.23050646483898163,-0.10189314931631088,0.9273147583007812
203,29401,29400,0.012578334659337997,-0.03605133667588234,0.9866328835487366,-3.123748779296875,2.2797954082489014,-0.23522214591503143,1.9299118518829346,4.0703887939453125,0.31414908170700073,-0.15934184193611145,-0.16586832702159882,0.9222711324691772
204,29411,29410,-0.004042790271341801,0.04075805842876434,1.0422687530517578,-2.369980573654175,1.806130290031433,-0.42920777201652527,1.930655837059021,4.0702738761901855,0.31398096680641174,-0.17862658202648163,-0.21857498586177826,0.9152997136116028
205,29421,29420,0.04795268923044205,-0.014277994632720947,0.9993519186973572,-0.008867060765624046,0.3203703761100769,-0.1230238601565361,1.931736707687378,4.069448947906494,0.3138536214828491,-0.2127830535173416,-0.16586017608642578,0.9127471446990967
206,29431,29430,-0.035371776670217514,-0.006067286245524883,1.023328185081482,1.9171582460403442,-1.8851276636123657,0.038181331008672714,1.9313985109329224,4.068567276000977,0.313907653093338,0.001089634606614709,-0.07068322598934174,0.9101860523223877
207,29441,29440,0.015288039110600948,-0.01597548834979534,0.9865802526473999,1.7340854406356812,-1.2631925344467163,0.764542818069458,1.9335005283355713,4.069143772125244,0.3137768805027008,-0.13549548387527466,-0.13581714034080505,0.912095308303833
208,29451,29450,-0.01898910477757454,-0.02033030055463314,1.0270426273345947,0.8776119947433472,-0.357150137424469,0.835290253162384,1.9339513778686523,4.069879055023193,0.31662797927856445,-0.03887047618627548,-0.12334311008453369,0.9379287958145142
209,29461,29460,-0.015135623514652252,-0.037284936755895615,1.0275548696517944,0.05172513425350189,0.20871295034885406,0.6010727286338806,1.9349701404571533,4.0687336921691895,0.3166622519493103,-0.10885301232337952,-0.11836223304271698,0.9187345504760742
210,29471,29470,-0.03484707698225975,-0.043478839099407196,1.0129317045211792,-0.9357861876487732,1.1848816871643066,1.0456925630569458,1.9350581169128418,4.068431854248047,0.31680238246917725,-0.1101774126291275,-0.13585469126701355,0.9233222007751465
211,29481,29480,0.020522668957710266,0.007256781682372093,1.01723051071167,-1.7081794738769531,1.164803385734558,1.2603679895401,1.9351189136505127,4.068272113800049,0.31699883937835693,-0.04760068282485008,-0.15846601128578186,0.9345356822013855
212,29491,29490,-0.008340807631611824,-0.03136186674237251,0.993317186832428,-1.8658185005187988,0.9422773718833923,1.053340196609497,1.9353525638580322,4.068506717681885,0.3161139488220215,-0.06320628523826599,-0.19659414887428284,0.952120840549469
213,29501,29500,0.010594641789793968,-0.02043623849749565,1.0015937089920044,-1.1218808889389038,0.9591876268386841,0.8262388706207275,1.9370492696762085,4.068487167358398,0.31624194979667664,-0.08217185735702515,-0.145152747631073,0.9804377555847168
214,29511,29510,-0.008200502954423428,-0.003907251637428999,1.0207613706588745,-0.4425051808357239,1.3815090656280518,0.9858517646789551,1.9384273290634155,4.068805694580078,0.31636714935302734,-0.09963832795619965,-0.16152483224868774,0.9881730675697327
215,29521,29520,0.01725100167095661,-0.005489490460604429,1.0074632167816162,0.07141871005296707,1.3973125219345093,0.8947557806968689,1.9386333227157593,4.069318771362305,0.3167443573474884,-0.04092448577284813,-0.16288727521896362,1.0072203874588013
216,29531,29530,0.011503724381327629,-0.03127163276076317,0.9905340075492859,-0.12619730830192566,1.0428391695022583,1.0962330102920532,1.9363759756088257,4.071109294891357,0.3168818950653076,0.020638518035411835,-0.16515471041202545,1.0703717470169067
217,29541,29540,0.006864440161734819,-0.009770423173904419,1.030329942703247,-0.37746480107307434,4.290726184844971,0.20952849090099335,1.9369698762893677,4.071207523345947,0.3170195519924164,-0.02084636501967907,-0.17607472836971283,1.079422116279602
218,29551,29550,0.01970347948372364,-0.0031028687953948975,1.0030667781829834,0.3484254479408264,3.7217226028442383,0.5907236933708191,1.9376863241195679,4.071050643920898,0.3178582489490509,-0.014999672770500183,-0.17880719900131226,1.0700247287750244
219,29561,29560,0.04119899496436119,-0.1036875769495964,1.002868413925171,0.6113467812538147,4.320991516113281,-0.013906443491578102,1.939975380897522,4.069952487945557,0.3179793059825897,-0.23538309335708618,-0.16856707632541656,1.0611037015914917
220,29571,29570,-0.0028427999932318926,-0.025476204231381416,1.0390855073928833,-0.5852970480918884,5.99320125579834,0.32134151458740234,1.9400250911712646,4.069611072540283,0.3182750642299652,-0.24541155993938446,-0.17984867095947266,1.061000943183899
221,29581,29580,0.021804381161928177,-0.05994921922683716,0.954817533493042,0.06205252185463905,5.216807842254639,-0.027020595967769623,1.9409878253936768,4.069480895996094,0.31845441460609436,-0.33593302965164185,-0.18394295871257782,1.0560297966003418
222,29591,29590,-0.013944576494395733,-0.009253299795091152,0.9959653615951538,0.04642392694950104,4.084578990936279,0.039625491946935654,1.9411900043487549,4.069565773010254,0.31746983528137207,-0.329067200422287,-0.18590965867042542,1.054880142211914
223,29601,29600,0.008962105959653854,-0.02551373653113842,0.987440824508667,-0.19155173003673553,2.470069408416748,0.6140562295913696,1.9416273832321167,4.069417953491211,0.3176698088645935,-0.3013432025909424,-0.1866481751203537,1.0557739734649658
224,29611,29610,0.00987166166305542,0.0027583707123994827,1.009830355644226,-0.8150808215141296,1.6359342336654663,0.6278420686721802,1.9439724683761597,4.069404602050781,0.31766068935394287,-0.4989534616470337,-0.19911828637123108,1.0659353733062744
225,29621,29620,0.07285325229167938,-0.1398988664150238,0.9917926788330078,0.9679097533226013,-0.7043843269348145,-0.09240701049566269,1.9438652992248535,4.06970739364624,0.31625157594680786,-0.43337416648864746,-0.20875711739063263,1.0833766460418701
226,29631,29630,-0.014065084047615528,-0.033539824187755585,1.0260146856307983,1.3236507177352905,-2.511725664138794,0.32650113105773926,1.944050669670105,4.069458961486816,0.31638115644454956,-0.31722283363342285,-0.18413744866847992,1.0830327272415161
227,29641,29640,0.004747959319502115,-0.052167732268571854,0.9531183242797852,2.167307138442993,-3.3173484802246094,0.39894285798072815,1.9442367553710938,4.069294452667236,0.31646767258644104,-0.26663100719451904,-0.15749935805797577,1.0846680402755737
228,29651,29650,0.022186052054166794,-0.026298345997929573,0.9896881580352783,3.104637384414673,-2.689476490020752,0.11091356724500656,1.9451520442962646,4.068915367126465,0.3187263607978821,-0.21470005810260773,-0.09763836115598679,1.0875877141952515
229,29661,29660,0.012128192000091076,0.1567324548959732,1.0127280950546265,2.3129429817199707,0.6312584280967712,0.2454092651605606,1.946700096130371,4.069249153137207,0.3188215494155884,-0.3070683777332306,-0.13693416118621826,1.0819951295852661
230,29671,29670,0.054780445992946625,-0.007068886421620846,0.9405946731567383,2.1405773162841797,1.40748929977417,0.32965946197509766,1.9475244283676147,4.068493843078613,0.31900715827941895,-0.24158695340156555,-0.09112077206373215,1.039581537246704
231,29681,29680,-0.005381591152399778,-0.027873283252120018,0.9953367710113525,0.91124427318573,2.5586018562316895,0.47308239340782166,1.948706865310669,4.067368984222412,0.3191123902797699,-0.2819792628288269,-0.06368803232908249,1.0298066139221191
232,29691,29690,-0.04032045975327492,-0.03075571358203888,1.0056772232055664,-0.26312926411628723,3.0049493312835693,0.3521755635738373,1.9489330053329468,4.067115306854248,0.3203100860118866,-0.26218825578689575,-0.05980246514081955,1.024130940437317
233,29701,29700,0.022722667083144188,-0.018207330256700516,0.9731169939041138,-2.2618794441223145,2.7899508476257324,0.5797974467277527,1.951083779335022,4.067243576049805,0.3204260468482971,-0.3953680098056793,-0.0775710865855217,1.0294159650802612
234,29711,29710,0.004078192170709372,-0.011382833123207092,0.9923157095909119,-2.859525680541992,2.367155075073242,1.3044744729995728,1.950918436050415,4.067013263702393,0.3206880986690521,-0.3623991310596466,-0.043774206191301346,1.0478590726852417
235,29721,29720,-0.024991845712065697,-0.018497347831726074,0.9999771118164062,-2.216174364089966,0.7755638957023621,1.286888837814331,1.9521592855453491,4.067348957061768,0.32025596499443054,-0.3947826325893402,-0.09090949594974518,1.039802074432373
236,29731,29730,-0.00017631734954193234,-0.038577884435653687,0.9572285413742065,-1.410251498222351,-0.42272666096687317,0.7960959672927856,1.9529117345809937,4.0676069259643555,0.3204226791858673,-0.3407008647918701,-0.1366921067237854,1.0677436590194702
237,29741,29740,0.00622149184346199,0.0031320343259721994,1.0040040016174316,0.4442848265171051,-0.7927479147911072,0.9638848304748535,1.9522933959960938,4.069330215454102,0.32063326239585876,-0.2623901963233948,-0.1476164609193802,1.1234512329101562
238,29751,29750,0.005841935519129038,0.007654797285795212,1.0126416683197021,2.0213563442230225,-0.9831064939498901,0.5229276418685913,1.9542999267578125,4.069056987762451,0.32050207257270813,-0.3294597566127777,-0.13011044263839722,1.1314738988876343
239,29761,29760,0.01658124104142189,-0.0012224449310451746,0.9934295415878296,3.1402292251586914,0.33497121930122375,0.7985944747924805,1.9558051824569702,4.068798542022705,0.32052263617515564,-0.40081027150154114,-0.08390204608440399,1.1401797533035278
240,29771,29770,0.014165387488901615,-0.008705774322152138,0.9877899885177612,2.786360025405884,0.968820333480835,0.2817740738391876,1.9563292264938354,4.069151878356934,0.32058343291282654,-0.41221505403518677,-0.03404051437973976,1.165661096572876
241,29781,29780,0.012156384997069836,-0.024791564792394638,0.9943891763687134,2.1306300163269043,2.4922211170196533,0.0620545968413353,1.9561786651611328,4.069533824920654,0.3205857574939728,-0.43011441826820374,-0.06922692805528641,1.1586440801620483
242,29791,29790,-0.05074915662407875,0.14537276327610016,1.018187165260315,0.47769126296043396,1.4831457138061523,0.039773765951395035,1.9569423198699951,4.069635391235352,0.31872642040252686,-0.4298801124095917,-0.059148628264665604,1.1718785762786865
243,29801,29800,0.06442134082317352,-0.0637880340218544,0.986357569694519,-0.23994912207126617,-0.1748262345790863,-0.24446287751197815,1.9583624601364136,4.0692830085754395,0.31876006722450256,-0.37354400753974915,-0.04070894420146942,1.1490658521652222
244,29811,29810,0.01539652794599533,-0.025603240355849266,1.0123330354690552,-0.736710786819458,-0.49909400939941406,-0.4299638569355011,1.9592258930206299,4.069260597229004,0.3186757564544678,-0.4488376975059509,-0.04332748427987099,1.14943528175354
245,29821,29820,0.006543181836605072,-0.0014912321930751204,1.0060406923294067,-0.41996198892593384,0.0015420634299516678,-0.3959941267967224,1.9592039585113525,4.069079399108887,0.3198022246360779,-0.3681538701057434,0.017839333042502403,1.1619654893875122
246,29831,29830,-0.037499748170375824,0.002388299908488989,1.0516018867492676,-0.5535791516304016,0.1423090398311615,-0.8094175457954407,1.959179162979126,4.069595813751221,0.31988808512687683,-0.28059959411621094,0.006658631376922131,1.1696761846542358
247,29841,29840,0.0011630291119217873,-0.020577475428581238,0.9941786527633667,-0.6226611137390137,0.44310230016708374,-0.7053678631782532,1.962146282196045,4.0692667961120605,0.31980228424072266,-0.5093094110488892,-0.07832584530115128,1.1236231327056885
248,29851,29850,0.04263188689947128,-0.13232176005840302,1.0157376527786255,-0.8153657913208008,0.6630276441574097,-0.1665770709514618,1.9622023105621338,4.069266319274902,0.32124391198158264,-0.44097158312797546,-0.09395001083612442,1.1121282577514648
249,29861,29860,-0.002831856021657586,-0.08391798287630081,0.983430802822113,-0.1430141180753708,-0.4671878218650818,-0.008298811502754688,1.96213960647583,4.069893836975098,0.32143253087997437,-0.4277852475643158,-0.16711942851543427,1.1052169799804688
250,29871,29870,0.02385667711496353,-0.06119753047823906,0.9555233120918274,0.858026921749115,-0.6701796054840088,-0.19758455455303192,1.962844967842102,4.070340633392334,0.32160913944244385,-0.4111327826976776,-0.15182851254940033,1.123063325881958
251,29881,29880,-0.020084742456674576,0.04227985814213753,1.0456889867782593,2.1578242778778076,-1.338598608970642,-0.7967025637626648,1.9643851518630981,4.071115493774414,0.32086801528930664,-0.45794761180877686,-0.12590663135051727,1.1489042043685913
252,29891,29890,0.008954905904829502,-0.0319601334631443,0.9582726955413818,4.1349592208862305,-2.0095717906951904,-0.7063344717025757,1.9644644260406494,4.070502281188965,0.32102569937705994,-0.41869306564331055,-0.07681441307067871,1.1590410470962524
253,29901,29900,0.09726324677467346,0.022869063541293144,0.9297003746032715,4.33454704284668,-1.67601478099823,-0.9795831441879272,1.9640707969665527,4.07090950012207,0.32108017802238464,-0.390296995639801,-0.010465672239661217,1.1584391593933105
254,29911,29910,-0.06397143751382828,-0.004021873231977224,1.0152169466018677,4.3816375732421875,-2.743142604827881,-1.1025632619857788,1.9653552770614624,4.070376396179199,0.3210836350917816,-0.4308021664619446,0.0634206160902977,1.1435376405715942
255,29921,29920,-0.047163743525743484,-0.04326357692480087,0.9835163950920105,1.3627257347106934,-2.4133553504943848,-1.0534157752990723,1.9655017852783203,4.069767951965332,0.3184281885623932,-0.30704814195632935,0.12045937031507492,1.1183613538742065
256,29931,29930,-0.010655295103788376,-0.04649367183446884,0.9695770740509033,-1.4380639791488647,-2.5818517208099365,-0.16908065974712372,1.9675840139389038,4.0699543952941895,0.31824421882629395,-0.4107629060745239,0.13386787474155426,1.1054450273513794
257,29941,29940,0.019655829295516014,-0.002832550322636962,0.9896068572998047,-4.4359130859375,-1.434435486793518,-0.4520714282989502,1.9678466320037842,4.069558620452881,0.3181234896183014,-0.35667118430137634,0.09990699589252472,1.0787324905395508
258,29951,29950,0.015444078482687473,-0.04060975834727287,0.9988965392112732,-5.519923210144043,-1.337891936302185,-0.6473595499992371,1.9677871465682983,4.069843292236328,0.31572380661964417,-0.24064692854881287,0.03241933509707451,1.073347568511963
259,29961,29960,0.009182107634842396,-0.07056676596403122,0.9604032039642334,-4.624735355377197,-1.5392271280288696,-0.6890032291412354,1.970801591873169,4.070718765258789,0.3153016269207001,-0.43071243166923523,-0.050738345831632614,1.0840401649475098
260,29971,29970,-0.001855378272011876,-0.013551491312682629,1.0002237558364868,-3.0993709564208984,-0.2669585645198822,-0.24025896191596985,1.9707351922988892,4.070762634277344,0.31508877873420715,-0.31212353706359863,-0.12087219953536987,1.0705078840255737
261,29981,29980,0.04195297136902809,-0.012459597550332546,1.0039827823638916,0.6842506527900696,-0.7221759557723999,-0.25029000639915466,1.9717024564743042,4.070114612579346,0.3158702552318573,-0.2915872633457184,-0.08723324537277222,1.0549635887145996
262,29991,29990,0.03158516436815262,-0.0018054100219160318,1.013223648071289,3.276926040649414,-2.175095558166504,-0.08209280669689178,1.972114086151123,4.069430351257324,0.3156360387802124,-0.26062583923339844,-0.08140521496534348,1.0409791469573975
263,30001,30000,0.01858263462781906,-0.061532873660326004,0.9943384528160095,4.035306453704834,-3.855018377304077,0.5010872483253479,1.9738103151321411,4.069440841674805,0.31536757946014404,-0.283405601978302,-0.032282207161188126,1.047896385192871
264,30011,30010,-0.021965542808175087,-0.04302021116018295,1.031184196472168,2.3424203395843506,-1.1121890544891357,0.11749974638223648,1.9737399816513062,4.069058418273926,0.31521478295326233,-0.15614397823810577,0.021269869059324265,1.0432120561599731
265,30021,30020,-0.014067121781408787,-0.019624359905719757,1.02505624294281,1.9161858558654785,-1.1971688270568848,-0.3267759680747986,1.974526047706604,4.068761825561523,0.3118654191493988,-0.1152758076786995,0.06069895997643471,1.0374191999435425
266,30031,30030,0.01169618871062994,-0.04791826382279396,1.0076029300689697,0.5046707987785339,0.12372609972953796,-0.32566049695014954,1.975224256515503,4.069422721862793,0.3115004301071167,-0.1670505255460739,0.08086929470300674,1.0705198049545288
267,30041,30040,-0.0236049797385931,0.0034926016815006733,1.034161925315857,-1.9992802143096924,2.6977381706237793,-0.024577248841524124,1.9777940511703491,4.070262432098389,0.311015248298645,-0.3108709156513214,0.003050430677831173,1.0622386932373047
268,30051,30050,0.008024574257433414,-0.04103672131896019,0.9998296499252319,-4.2306389808654785,3.304884195327759,-0.9439705014228821,1.9780356884002686,4.070425033569336,0.3135310113430023,-0.24816322326660156,-0.027400357648730278,1.0611978769302368
269,30061,30060,-0.04639478400349617,0.017387118190526962,1.038255214691162,-4.798011779785156,2.256526470184326,-0.9221746921539307,1.9781862497329712,4.071334362030029,0.3134353756904602,-0.2639545798301697,-0.0826975554227829,1.0814604759216309
270,30071,30070,-0.051795393228530884,0.08449599891901016,1.0233688354492188,-4.013146877288818,0.8984489440917969,-0.8541781306266785,1.9799796342849731,4.071081161499023,0.31325241923332214,-0.3300933241844177,-0.0712580606341362,1.0730684995651245
271,30081,30080,-0.019800275564193726,0.011791994795203209,1.0293318033218384,-0.28746622800827026,-1.120187520980835,-0.8133427500724792,1.97966468334198,4.069948196411133,0.3131197690963745,-0.30130231380462646,-0.11629495769739151,1.028868556022644
272,30091,30090,-0.02652130089700222,-0.0038030294235795736,1.038093090057373,1.6335413455963135,-1.4180474281311035,-0.20810408890247345,1.980065107345581,4.069568157196045,0.3131445646286011,-0.19287270307540894,-0.11920517683029175,1.0093871355056763
273,30101,30100,0.021094704046845436,-0.01962447725236416,1.012254238128662,3.358062267303467,-2.6454689502716064,-0.3046434819698334,1.9803167581558228,4.069151401519775,0.3131169080734253,-0.15042701363563538,-0.08890426158905029,0.9974900484085083
274,30111,30110,-0.013422654010355473,0.01803790219128132,1.037197232246399,3.5249550342559814,-1.8842893838882446,-0.6030040383338928,1.9800734519958496,4.068414211273193,0.31148868799209595,-0.09961921721696854,-0.03834915906190872,0.983760416507721
275,30121,30120,0.005855641793459654,-0.15372970700263977,1.0190671682357788,3.0895578861236572,-2.8194587230682373,-0.5629574656486511,1.981855034828186,4.06874418258667,0.3113993704319,-0.10846009105443954,0.017724432051181793,0.9941795468330383
276,30131,30130,-0.016267361119389534,-0.02649862878024578,1.069120168685913,1.328820824623108,1.8956161737442017,-0.5639902353286743,1.9833241701126099,4.068641185760498,0.31128111481666565,-0.1437840312719345,0.054542165249586105,0.988345742225647
277,30141,30140,0.02769443579018116,-0.014727460220456123,0.9950681924819946,-0.9363533854484558,2.647972345352173,-0.519355297088623,1.9839308261871338,4.068325042724609,0.3112388849258423,-0.14278990030288696,0.06618717312812805,0.9727113842964172
278,30151,30150,0.09104897081851959,0.008643382228910923,1.007598638534546,-3.0433194637298584,2.9705564975738525,-1.1399158239364624,1.9858524799346924,4.069201946258545,0.3139001131057739,-0.26263466477394104,0.038923561573028564,0.9869804382324219
279,30161,30160,0.010360420681536198,-0.06466741859912872,0.9821843504905701,-4.547755718231201,0.6838213205337524,-0.9678929448127747,1.9857584238052368,4.069009304046631,0.31415069103240967,-0.22463519871234894,-0.021912498399615288,0.9634434580802917
280,30171,30170,0.015426906757056713,0.10615532845258713,1.0141137838363647,-4.709229946136475,-1.2174447774887085,-0.6133887767791748,1.9874353408813477,4.069562911987305,0.3142731487751007,-0.29004108905792236,-0.09323835372924805,0.9530771970748901
281,30181,30180,0.04275846108794212,0.04525139927864075,0.9804787635803223,-2.865974187850952,-3.5675766468048096,-0.6958972811698914,1.9886373281478882,4.069021224975586,0.31360048055648804,-0.3146039545536041,-0.16054099798202515,0.911853015422821
282,30191,30190,-0.041221924126148224,0.008930394425988197,1.0292465686798096,-0.11466627568006516,-5.298355579376221,-0.5468643307685852,1.9894605875015259,4.069343090057373,0.3137866258621216,-0.22278791666030884,-0.1943807154893875,0.9166136980056763
283,30201,30200,0.009365021251142025,0.007507646922022104,0.9997341632843018,2.1441729068756104,-5.70062255859375,0.022147592157125473,1.9905036687850952,4.068768501281738,0.31388992071151733,-0.1798391193151474,-0.18430237472057343,0.8772355914115906
284,30211,30210,0.01827619969844818,-0.042572684586048126,0.9781561493873596,3.115007162094116,-4.828205108642578,-0.15768840909004211,1.9923503398895264,4.068784713745117,0.3145902156829834,-0.21384131908416748,-0.2226434051990509,0.8634974956512451
285,30221,30220,-0.04672800749540329,-0.07122959196567535,1.0109281539916992,4.738240718841553,-5.303522109985352,-0.5944727659225464,1.9921238422393799,4.0684075355529785,0.31489744782447815,-0.019389811903238297,-0.15454472601413727,0.8643081784248352
286,30231,30230,0.007266714237630367,-0.031472619622945786,0.9874677658081055,4.5835795402526855,-3.63716459274292,-1.1036509275436401,1.9934005737304688,4.068399429321289,0.3150584399700165,-0.0024374823551625013,-0.1482720971107483,0.8447168469429016
287,30241,30240,-0.08398274332284927,-0.05513124167919159,0.9845177531242371,3.6813182830810547,-5.6078267097473145,-1.5709611177444458,1.994861364364624,4.068432331085205,0.3151973783969879,0.0046392763033509254,-0.06331772357225418,0.8404815793037415
288,30251,30250,0.012412774376571178,-0.016062233597040176,1.0104154348373413,0.3346661627292633,1.8410358428955078,-1.0234450101852417,1.9941308498382568,4.068589210510254,0.3164065480232239,0.148630291223526,-0.003957977052778006,0.8447535634040833
289,30261,30260,0.05638806149363518,-0.013868902809917927,0.9941705465316772,-1.0701382160186768,1.7943493127822876,-2.1980433464050293,1.995782732963562,4.06851863861084,0.31659138202667236,0.08049691468477249,0.013840490020811558,0.824390172958374
290,30271,30270,-0.00052199064521119,0.008878539316356182,0.9784449338912964,-1.7312754392623901,0.7666453719139099,-1.6432913541793823,1.9973273277282715,4.068404674530029,0.3167549967765808,0.002957091201096773,0.0033908234909176826,0.7943736910820007
291,30281,30280,0.02013026550412178,-0.0038159138057380915,1.0132941007614136,-1.9172272682189941,4.091856002807617,-2.426590919494629,1.9972573518753052,4.0681586265563965,0.31533482670783997,0.07232528179883957,-0.019760070368647575,0.7592544555664062
292,30291,30290,0.006769541185349226,-0.03824569657444954,1.0190098285675049,-1.4907881021499634,0.9895359873771667,-2.001882791519165,1.9987428188323975,4.067883491516113,0.31547001004219055,0.050947029143571854,-0.04796706885099411,0.7145383954048157
293,30301,30300,0.015304360538721085,-0.09449060261249542,0.9556924700737,-2.025998592376709,0.76030033826828,-3.0749268531799316,2.0004796981811523,4.067938804626465,0.31549736857414246,-0.10082656890153885,-0.06869015842676163,0.6950136423110962
294,30311,30310,0.0203518345952034,-0.06376894563436508,0.971625804901123,-0.6249916553497314,-0.7087620496749878,-1.919291377067566,2.0000007152557373,4.067502975463867,0.31417086720466614,0.0036857922095805407,-0.08232338726520538,0.6543926000595093
295,30321,30320,-0.01312196534126997,-0.04877626150846481,0.9950225353240967,0.4643608033657074,-1.8570722341537476,-2.3467016220092773,2.000617504119873,4.067237854003906,0.3141873776912689,0.036425188183784485,-0.08523385226726532,0.6188715100288391
296,30331,30330,-0.036009129136800766,-0.002586168935522437,1.0083640813827515,2.037749767303467,-2.0028700828552246,-1.8715406656265259,2.002157211303711,4.066687107086182,0.3140886127948761,-0.060661349445581436,-0.06264140456914902,0.5792744755744934
297,30341,30340,0.009043045341968536,-0.018108822405338287,0.9777607321739197,3.3379790782928467,-1.6157426834106445,-1.3443477153778076,2.0021190643310547,4.0662994384765625,0.3141619861125946,0.08129942417144775,-0.01729241944849491,0.5569183826446533
298,30351,30350,-0.03485310450196266,-0.007465985603630543,0.9676634073257446,3.1819987297058105,-2.222404956817627,-1.478649616241455,2.003028392791748,4.066758632659912,0.31512877345085144,0.05812203139066696,-0.034548569470644,0.5431150197982788
299,30361,30360,-0.012437207624316216,-0.029919125139713287,0.9840186238288879,1.7568727731704712,-1.383307695388794,-1.9756989479064941,2.0038814544677734,4.066251277923584,0.31517744064331055,0.11716840416193008,0.024520695209503174,0.5124347805976868
300,30371,30370,0.030466925352811813,-0.04135299101471901,1.0361502170562744,0.6137624382972717,0.48670345544815063,-2.091804265975952,2.004406213760376,4.067038536071777,0.3151788115501404,0.15071026980876923,-0.014538747258484364,0.5009075403213501
301,30381,30380,0.05920328199863434,-0.09684296697378159,1.020763635635376,-1.683031439781189,2.60136079788208,-2.2235734462738037,2.0049664974212646,4.067677021026611,0.315461128950119,0.1491842269897461,-0.07481192797422409,0.4837888777256012
302,30391,30390,0.05962752550840378,-0.17087961733341217,0.9850556254386902,-2.09264874458313,3.4289958477020264,-2.2123007774353027,2.007065534591675,4.067895412445068,0.3154536485671997,0.05948903039097786,-0.07489180564880371,0.461344450712204
303,30401,30400,0.049126047641038895,-0.1499926745891571,0.9935335516929626,0.04389554262161255,4.912885665893555,-1.5474374294281006,2.006896495819092,4.067063331604004,0.31554585695266724,0.1191767230629921,-0.07406992465257645,0.41486862301826477
304,30411,30410,0.01736178994178772,-0.12016984820365906,1.016523838043213,1.2078843116760254,4.605813026428223,-1.772605299949646,2.0068438053131104,4.066594123840332,0.3137820363044739,0.16076157987117767,-0.050471775233745575,0.37374791502952576
305,30421,30420,0.045996926724910736,-0.10038942843675613,0.9904517531394958,2.9101920127868652,1.5675311088562012,-1.7850844860076904,2.0075156688690186,4.065899848937988,0.3137075901031494,0.12667693197727203,-0.007064404431730509,0.32194629311561584
306,30431,30430,0.10035267472267151,-0.09892911463975906,0.9786136746406555,4.157899379730225,3.705373525619507,-1.1213524341583252,2.0081090927124023,4.064519882202148,0.3136328458786011,0.07546037435531616,0.049279190599918365,0.27621030807495117
307,30441,30440,0.06150041148066521,-0.0170422550290823,0.9985846877098083,4.534093856811523,2.642592191696167,-0.5812910199165344,2.0103530883789062,4.064043045043945,0.31497418880462646,-0.06493129581212997,0.12020058184862137,0.24917803704738617
308,30451,30450,0.08614186942577362,-0.05488048493862152,0.9317041039466858,3.2386176586151123,2.9420111179351807,-0.7889801263809204,2.010786294937134,4.064821720123291,0.3150424063205719,-0.04068572074174881,0.10998550802469254,0.2560281455516815
309,30461,30460,0.12382202595472336,-0.08271888643503189,0.8948335647583008,1.8191921710968018,-0.6427297592163086,-0.1295630782842636,2.0112383365631104,4.06430721282959,0.31506896018981934,-0.015230624005198479,0.16348113119602203,0.22874797880649567
310,30471,30470,-0.030138103291392326,-0.022075731307268143,1.0190913677215576,0.9004481434822083,-4.881197452545166,0.07502905279397964,2.0127687454223633,4.06494140625,0.31492552161216736,-0.09950040280818939,0.1179097592830658,0.22058658301830292
311,30481,30480,-0.05382373183965683,-0.0827135443687439,1.0358307361602783,-0.4261721074581146,-3.1509363651275635,0.2158348113298416,2.0137648582458496,4.066099166870117,0.3158905506134033,-0.12131242454051971,0.13781219720840454,0.27374663949012756
312,30491,30490,-0.04071668162941933,-0.06830296665430069,1.0504894256591797,-1.6704540252685547,-1.823691964149475,-0.09210947155952454,2.0138955116271973,4.065948963165283,0.31592079997062683,0.00807774905115366,0.13448083400726318,0.2615469694137573
313,30501,30500,-0.006944070570170879,-0.04881522059440613,0.9871830344200134,-1.2603578567504883,-0.9605014324188232,0.29900479316711426,2.015148878097534,4.066179275512695,0.31586503982543945,-0.03204922750592232,0.12594009935855865,0.2718513607978821
314,30511,30510,-0.048719774931669235,0.06472229212522507,1.0355790853500366,-0.5657434463500977,1.0059387683868408,0.3198956251144409,2.0158889293670654,4.066900253295898,0.3152317702770233,-6.382386345649138e-05,0.044777270406484604,0.26386815309524536
315,30521,30520,-0.003935652319341898,-0.14989280700683594,1.0290414094924927,1.3228574991226196,1.309633731842041,0.3407320976257324,2.0165016651153564,4.065088272094727,0.3152160942554474,0.010500987991690636,0.13768243789672852,0.2243545800447464
316,30531,30530,0.007394884712994099,-0.12609010934829712,0.9664038419723511,2.169110059738159,2.812554359436035,1.1451668739318848,2.0161666870117188,4.065674304962158,0.31515687704086304,-0.08407586067914963,0.16570338606834412,0.27908051013946533
317,30541,30540,0.00640875892713666,-0.09952721744775772,1.0240843296051025,2.9913597106933594,2.8466835021972656,1.171707034111023,2.0159623622894287,4.067650318145752,0.31444621086120605,-0.10290779173374176,0.1346060186624527,0.3726590871810913
318,30551,30550,-0.05378393456339836,-0.16682815551757812,1.0459873676300049,1.6976553201675415,2.0058608055114746,-0.28374141454696655,2.017178773880005,4.06701135635376,0.3143523633480072,-0.19702668488025665,0.1923774629831314,0.3621923625469208
319,30561,30560,0.006937169469892979,-0.11491017043590546,0.9504144787788391,1.250382661819458,1.981217622756958,0.3871994912624359,2.018737554550171,4.066227912902832,0.3144208788871765,-0.13679239153862,0.2297355681657791,0.30537933111190796
320,30571,30570,0.007758113089948893,-0.04059712588787079,0.9819294810295105,1.1586962938308716,-0.22315125167369843,0.4284171462059021,2.0179731845855713,4.0648298263549805,0.31436455249786377,-0.15089400112628937,0.2548229992389679,0.2621719539165497
321,30581,30580,-0.04168090969324112,0.027502423152327538,1.0421189069747925,-0.8320068120956421,-0.5105927586555481,0.9042141437530518,2.0180373191833496,4.064476013183594,0.31568726897239685,-0.06137384846806526,0.26688340306282043,0.2623749375343323
322,30591,30590,0.03198894113302231,-0.011201921850442886,0.975278913974762,-2.2123119831085205,-1.3120994567871094,0.9130951762199402,2.0190510749816895,4.064603805541992,0.31576886773109436,-0.042604830116033554,0.2584681212902069,0.25932076573371887
323,30601,30600,-0.013821195811033249,-0.02092963084578514,1.008426308631897,-3.012162208557129,-2.1838738918304443,0.4710941016674042,2.0211005210876465,4.065335750579834,0.315723180770874,-0.1648363620042801,0.1493636518716812,0.2651444673538208
324,30611,30610,0.012361107394099236,-0.048177268356084824,1.0037720203399658,-3.5403428077697754,0.41607731580734253,0.8886324167251587,2.0215423107147217,4.0653791427612305,0.3125542402267456,-0.05134877562522888,0.10714858770370483,0.2628587484359741
325,30621,30620,0.05369596555829048,0.003138465341180563,0.9892526865005493,-2.36185884475708,-0.6241204142570496,1.0623650550842285,2.024134635925293,4.065544128417969,0.312307208776474,-0.19209744036197662,0.06744721531867981,0.26109033823013306
326,30631,30630,0.03265116736292839,0.021916190162301064,1.002200722694397,0.05905262008309364,0.5594673156738281,0.8905597925186157,2.023604154586792,4.065375328063965,0.31227409839630127,-0.08668144792318344,0.048373475670814514,0.27578991651535034
327,30641,30640,-0.00048645949573256075,-0.045483533293008804,0.9787037968635559,1.35786771774292,1.6278040409088135,1.359639048576355,2.025480270385742,4.063703536987305,0.3117428123950958,-0.1663544625043869,0.21498054265975952,0.26784011721611023
328,30651,30650,0.025468870997428894,-0.03384891897439957,0.9755967259407043,3.72624135017395,0.631606936454773,1.0113071203231812,2.0263113975524902,4.064192295074463,0.31156158447265625,-0.16215743124485016,0.15885743498802185,0.2788026034832001
329,30661,30660,-0.023786276578903198,-0.12022000551223755,0.994317352771759,2.0359139442443848,2.570568799972534,1.3472933769226074,2.0268356800079346,4.063671112060547,0.31145742535591125,-0.07528375834226608,0.20872977375984192,0.2717185914516449
330,30671,30670,0.014576119370758533,-0.0007850404363125563,0.9976747035980225,0.902378261089325,3.164734125137329,1.1405408382415771,2.028643846511841,4.06361198425293,0.31113120913505554,-0.23529061675071716,0.17034566402435303,0.24684001505374908
331,30681,30680,0.03937608003616333,0.08070216327905655,1.015539526939392,-1.4079563617706299,2.7030346393585205,1.6740796566009521,2.029125213623047,4.063359260559082,0.31001517176628113,-0.14669197797775269,0.19104938209056854,0.27788951992988586
332,30691,30690,0.013778320513665676,0.007427352014929056,0.9934176802635193,-3.2270517349243164,-1.700681447982788,1.0251258611679077,2.0300168991088867,4.063923358917236,0.30976828932762146,-0.13134898245334625,0.17179758846759796,0.28355279564857483
333,30701,30700,0.011536020785570145,-0.01843990571796894,1.0039080381393433,-3.5720608234405518,-3.5826008319854736,1.0016798973083496,2.0309011936187744,4.065305709838867,0.3095584213733673,-0.07688171416521072,0.05172138661146164,0.3265714943408966
334,30711,30710,-0.02071329578757286,0.0014714644057676196,1.0087677240371704,-4.210168361663818,-2.3518269062042236,0.2197299301624298,2.032020330429077,4.065705299377441,0.31224843859672546,-0.01652519218623638,0.08164431154727936,0.36456987261772156
335,30721,30720,-0.028297610580921173,0.0786014050245285,1.0332635641098022,-2.263392210006714,-0.843764066696167,0.8798511028289795,2.0339150428771973,4.065608024597168,0.31209972500801086,-0.12610940635204315,0.029887618497014046,0.3600490689277649
336,30731,30730,0.03112129122018814,-0.12431609630584717,1.0117367506027222,-0.22908735275268555,0.7099042534828186,0.538878321647644,2.0348281860351562,4.064387798309326,0.31201601028442383,-0.1745079904794693,0.1615409404039383,0.3734937608242035
337,30741,30740,0.03070615418255329,-0.05620911344885826,1.0025765895843506,1.2862380743026733,0.5897704362869263,0.464505672454834,2.035079002380371,4.0644073486328125,0.31010398268699646,-0.0868898555636406,0.15172839164733887,0.38088086247444153
338,30751,30750,0.0014950833283364773,-0.07142104208469391,0.9916124939918518,1.7482633590698242,0.311112642288208,0.004978286102414131,2.0362915992736816,4.0634660720825195,0.30988314747810364,-0.16483117640018463,0.16237443685531616,0.34415510296821594
339,30761,30760,0.019533881917595863,-0.06435555219650269,0.9406507611274719,-0.44225770235061646,-0.3903195858001709,0.8198915123939514,2.0381720066070557,4.063758373260498,0.309699147939682,-0.21896222233772278,0.17245939373970032,0.35852867364883423
340,30771,30770,0.02612217143177986,0.0037537135649472475,0.9888216853141785,-0.5326164960861206,-1.4601866006851196,0.6740464568138123,2.038292169570923,4.06401252746582,0.3110738694667816,-0.09803711622953415,0.1600075215101242,0.3891335129737854
341,30781,30780,0.005328809842467308,0.008539126254618168,1.0189504623413086,-1.9893805980682373,-2.4592418670654297,-0.06038951128721237,2.0409090518951416,4.064479351043701,0.3108392655849457,-0.29009759426116943,0.0520891435444355,0.3729898929595947
342,30791,30790,0.019148344174027443,0.019595898687839508,1.047058343887329,-3.5082716941833496,-3.09867525100708,0.4015227258205414,2.0421488285064697,4.065084457397461,0.31080394983291626,-0.21537388861179352,0.013374537229537964,0.3894795775413513
343,30801,30800,0.009656617417931557,-0.04961340129375458,0.9993990063667297,-3.723785400390625,-6.033170223236084,0.7186337113380432,2.042562961578369,4.065069675445557,0.3107786774635315,-0.1266930103302002,-0.03963332995772362,0.3841131031513214
344,30811,30810,-0.010373368859291077,0.040184054523706436,1.0174376964569092,-2.089252233505249,-5.166189670562744,0.21500788629055023,2.0440237522125244,4.064360618591309,0.31046992540359497,-0.097420834004879,-0.010809454135596752,0.37238389253616333
345,30821,30820,-0.04574862867593765,0.11641110479831696,0.9825164675712585,-0.9027532339096069,-3.9085514545440674,0.3485548794269562,2.0443382263183594,4.064013957977295,0.31043586134910583,0.000256438332144171,-0.04779259115457535,0.3518812954425812
346,30831,30830,-0.04233777895569801,0.11013609915971756,0.9744650721549988,0.14501060545444489,-3.023402690887451,0.1667177677154541,2.0449581146240234,4.0638275146484375,0.3104242980480194,0.08525611460208893,-0.064593106508255,0.3426184058189392
347,30841,30840,-0.08046816289424896,0.1113414391875267,1.0325356721878052,0.9337723851203918,-1.0778104066848755,-0.6636961102485657,2.0470123291015625,4.063814640045166,0.31284287571907043,-0.0010294938692823052,-0.06901177763938904,0.34486597776412964
348,30851,30850,-0.06211375072598457,0.03188338875770569,1.0146788358688354,1.4849885702133179,1.2516415119171143,-0.06789010763168335,2.047443389892578,4.063416481018066,0.31295672059059143,0.05866611748933792,-0.04879073053598404,0.32897835969924927
349,30861,30860,0.018314674496650696,-0.012278633192181587,1.002180814743042,1.1685153245925903,3.051949977874756,-0.44393351674079895,2.0487897396087646,4.062869548797607,0.31307587027549744,0.06379882991313934,0.050038859248161316,0.32818520069122314
350,30871,30870,0.019372403621673584,-0.059524111449718475,0.9889647960662842,1.5288331508636475,2.4499499797821045,-0.6443929076194763,2.051199436187744,4.063236713409424,0.3107660710811615,-0.10708700120449066,0.137952521443367,0.38187241554260254
351,30881,30880,0.05870453640818596,-0.10254097729921341,0.9389218688011169,0.2642839550971985,1.2707690000534058,-0.7542831301689148,2.05094313621521,4.065074443817139,0.3108248710632324,-0.0348685123026371,0.13901571929454803,0.4738095700740814
352,30891,30890,-0.018504900857806206,0.0017079971730709076,0.9440403580665588,-1.256661295890808,-1.5625239610671997,-1.5688351392745972,2.0506343841552734,4.0640668869018555,0.31083768606185913,0.056651439517736435,0.12556417286396027,0.4203267991542816
353,30901,30900,-0.019321296364068985,0.024622566998004913,0.9336095452308655,-2.992727518081665,-2.838881254196167,-1.7373937368392944,2.0508549213409424,4.064205169677734,0.31081750988960266,0.10285817086696625,0.0876074731349945,0.409213125705719
354,30911,30910,-0.03753884881734848,0.12243831157684326,1.0098775625228882,-5.388165473937988,-2.0984981060028076,-1.7054654359817505,2.0503530502319336,4.064748764038086,0.3107678294181824,0.23708871006965637,0.020925847813487053,0.4194032847881317
355,30921,30920,-0.01676226034760475,-0.06748586893081665,0.9966103434562683,-5.667761325836182,-1.1972954273223877,-1.3439061641693115,2.051790475845337,4.065690040588379,0.3106025457382202,0.13446493446826935,-0.07251681387424469,0.43784835934638977
356,30931,30930,0.011836963705718517,-0.062112778425216675,0.9842542409896851,-4.8154706954956055,0.32224106788635254,-1.8583534955978394,2.0527915954589844,4.06525182723999,0.31044381856918335,0.17084208130836487,-0.08874141424894333,0.41825389862060547
357,30941,30940,-0.02009812742471695,-0.1354931890964508,1.029768705368042,-3.330127000808716,4.67320442199707,-2.7027578353881836,2.0539824962615967,4.065698623657227,0.3112349808216095,0.1855098456144333,-0.16313506662845612,0.3897571563720703
358,30951,30950,0.0077808513306081295,-0.05880451947450638,0.9982804656028748,-0.4644148051738739,5.867736339569092,-3.0369622707366943,2.056454658508301,4.064952373504639,0.311024934053421,-0.012571380473673344,-0.1297837346792221,0.3809073269367218
359,30961,30960,0.040306903421878815,-0.01749063841998577,0.9689147472381592,1.0175695419311523,6.431000232696533,-2.7055411338806152,2.056378126144409,4.065690994262695,0.310973197221756,-0.020561475306749344,-0.14831165969371796,0.3972797393798828
360,30971,30970,-0.000628786045126617,0.05617077276110649,1.0174146890640259,1.7006007432937622,3.7645750045776367,-3.1440930366516113,2.0571296215057373,4.0664472579956055,0.3109523057937622,-0.03965294361114502,-0.1445915699005127,0.41604384779930115
361,30981,30980,0.06012033671140671,-0.01392474863678217,0.9500467777252197,3.0453243255615234,-0.253338098526001,-3.3543498516082764,2.0594544410705566,4.066909313201904,0.31078779697418213,-0.16457204520702362,-0.12165412306785583,0.4056195914745331
362,30991,30990,0.011315944604575634,-0.0344172827899456,0.980414628982544,2.7972357273101807,-3.2599174976348877,-2.8673229217529297,2.0591769218444824,4.065803050994873,0.31075090169906616,-0.06377370655536652,-0.08256009221076965,0.33626222610473633
363,31001,31000,0.002793226158246398,0.01653582975268364,0.9789113402366638,1.6248958110809326,-4.998495101928711,-2.605604887008667,2.059866189956665,4.065939426422119,0.3106342852115631,0.013272571377456188,-0.04881010577082634,0.3217456340789795
364,31011,31010,0.028527911752462387,0.022174086421728134,1.0051437616348267,-0.6618731021881104,-4.745604991912842,-2.230306386947632,2.0611629486083984,4.065771579742432,0.3104964792728424,-0.039882030338048935,-0.03884643688797951,0.2960263192653656
365,31021,31020,-0.023687640205025673,-0.017424417659640312,1.0519078969955444,-2.64559268951416,-2.319218635559082,-2.3783743381500244,2.0618343353271484,4.066381454467773,0.3103727698326111,0.06034174934029579,-0.06287520378828049,0.3005470633506775
366,31031,31030,-0.04028362035751343,0.033124808222055435,1.0473920106887817,-3.230146646499634,-0.9048728346824646,-2.4352686405181885,2.0564424991607666,4.065001487731934,0.31006401777267456,0.19789719581604004,-0.10992113500833511,0.2507634460926056
367,31041,31040,-0.1226133480668068,0.3397941589355469,1.0606355667114258,-2.7317161560058594,2.7981646060943604,-2.517763376235962,2.0565454959869385,4.063803672790527,0.3109472393989563,0.20299701392650604,-0.16430452466011047,0.16379404067993164
368,31051,31050,-0.044416144490242004,0.11883211880922318,1.0583548545837402,-2.3473379611968994,6.0459513664245605,-1.914016842842102,2.0584681034088135,4.063961505889893,0.31090739369392395,0.06968335062265396,-0.2066929042339325,0.17256058752536774
369,31061,31060,-0.007764201611280441,0.09316609054803848,0.9869554042816162,-1.586565375328064,8.355196952819824,-2.537395715713501,2.0599145889282227,4.064969539642334,0.3109647333621979,-0.04343802109360695,-0.24085690081119537,0.17087547481060028
370,31071,31070,-0.03808152675628662,0.11298047751188278,0.9542290568351746,0.7011368274688721,6.600459098815918,-2.885197162628174,2.06042742729187,4.064513206481934,0.31210508942604065,-0.08916300535202026,-0.2584284543991089,0.12060782313346863
371,31081,31080,-0.008735843002796173,0.041321348398923874,0.9991590976715088,2.4561476707458496,7.157958984375,-2.870183229446411,2.0618703365325928,4.064562797546387,0.3121922016143799,-0.173146054148674,-0.22916588187217712,0.10340088605880737
372,31091,31090,0.028475290164351463,-0.011502863839268684,0.9920440316200256,4.836248874664307,0.7980018258094788,-2.8207719326019287,2.0618691444396973,4.06471061706543,0.31239017844200134,-0.13397102057933807,-0.16533662378787994,0.1095271036028862
373,31101,31100,0.01872120052576065,-0.04038865119218826,1.0149874687194824,5.783699989318848,-2.3806166648864746,-2.8931853771209717,2.0636301040649414,4.064236164093018,0.3098618686199188,-0.21878176927566528,-0.08016045391559601,0.06896176934242249
374,31111,31110,-0.026855934411287308,-0.20463985204696655,1.0352866649627686,4.29761266708374,-4.581787586212158,-2.539302349090576,2.063431739807129,4.0637383460998535,0.30989736318588257,-0.037419624626636505,0.00886654481291771,0.01887734793126583
375,31121,31120,0.0015552876284345984,-0.22175294160842896,0.997117817401886,2.30094838142395,-2.8568966388702393,-2.536911964416504,2.062950611114502,4.063712120056152,0.30993014574050903,0.12666937708854675,-0.009578133933246136,-0.034171558916568756
376,31131,31130,-0.01647942326962948,-0.02629929967224598,1.0261943340301514,0.1497063785791397,-2.404762029647827,-1.5320420265197754,2.067296266555786,4.064658164978027,0.30981773138046265,-0.17545753717422485,0.005290945526212454,-0.010056001134216785
377,31141,31140,-0.009521251544356346,0.0058767059817910194,1.0103123188018799,-1.913352131843567,0.8343219757080078,-1.9292511940002441,2.067366361618042,4.064980506896973,0.31171104311943054,-0.09205463528633118,-0.08783141523599625,-0.051989227533340454
378,31151,31150,0.06575127691030502,0.014265966601669788,0.9521387815475464,-4.162841796875,7.077830791473389,-1.694921851158142,2.070002555847168,4.064993381500244,0.31163710355758667,-0.31846481561660767,-0.13174933195114136,-0.09609944373369217
379,31161,31160,0.11913423240184784,-0.0074098678305745125,0.9375627040863037,-3.097551107406616,7.700196743011475,-1.7549455165863037,2.071133613586426,4.064337253570557,0.3117929697036743,-0.3487682640552521,-0.11463242024183273,-0.11250031739473343
380,31171,31170,0.16394954919815063,-0.1265706866979599,0.924683690071106,-1.1530275344848633,3.9414455890655518,-1.6416401863098145,2.0705173015594482,4.0647149085998535,0.314016193151474,-0.3818526566028595,-0.15901225805282593,-0.10442228615283966
381,31181,31180,0.13508544862270355,-0.16688725352287292,0.9208913445472717,1.8196741342544556,-2.0043861865997314,-1.1114698648452759,2.0690643787384033,4.065804481506348,0.31415051221847534,-0.33506670594215393,-0.15686637163162231,-0.03797266259789467
382,31191,31190,-0.021045275032520294,0.00146300601772964,1.0359816551208496,5.078611850738525,-10.210739135742188,-1.3214737176895142,2.0689210891723633,4.064793586730957,0.31422340869903564,-0.25294530391693115,-0.10639599710702896,-0.0748235285282135
383,31201,31200,-0.04294609650969505,0.05248664692044258,1.0478283166885376,4.296850204467773,-8.31358814239502,-1.2475674152374268,2.069371461868286,4.064643859863281,0.3138319253921509,-0.17223700881004333,-0.023221299052238464,-0.08749182522296906
384,31211,31210,-0.07126124948263168,-0.01864474266767502,1.044761061668396,4.1947102546691895,-6.81364107131958,-1.1601176261901855,2.070380687713623,4.064733505249023,0.3138423562049866,-0.08669963479042053,-0.018502088263630867,-0.12215977907180786
385,31221,31220,-0.07606393098831177,0.016632985323667526,1.0418552160263062,2.3469083309173584,-4.171206474304199,-0.3893280625343323,2.07141375541687,4.065072536468506,0.31387144327163696,-0.030541863292455673,-0.02699768915772438,-0.1426360011100769
386,31231,31230,-0.09363017976284027,0.0973038449883461,1.0393401384353638,0.7866483926773071,-0.10033982992172241,-0.37690070271492004,2.0723681449890137,4.064942359924316,0.314013808965683,0.043699704110622406,0.012736200354993343,-0.1541304588317871
387,31241,31240,-0.05673930421471596,0.18379230797290802,1.0219098329544067,-0.24501733481884003,3.3045029640197754,-0.6047155261039734,2.0745606422424316,4.0649333000183105,0.3129657506942749,-0.10158870369195938,0.024937568232417107,-0.14960455894470215
388,31251,31250,-0.0269992146641016,0.19289086759090424,0.9765833616256714,-1.5400081872940063,6.1244282722473145,-1.2434693574905396,2.075690269470215,4.064825057983398,0.31303107738494873,-0.1478063017129898,0.019837044179439545,-0.16765500605106354
389,31261,31260,0.008496696129441261,0.03023541532456875,0.983117938041687,-1.4773859977722168,6.134869575500488,-1.3034162521362305,2.076270341873169,4.064342021942139,0.3130628168582916,-0.22649605572223663,-0.00037575094029307365,-0.2193584442138672
390,31271,31270,-0.001723847584798932,0.034580036997795105,1.025862455368042,-1.17234206199646,3.337528944015503,-1.0837870836257935,2.076781988143921,4.064998149871826,0.3132081627845764,-0.20270013809204102,-0.01371284481137991,-0.19074714183807373
391,31281,31280,-0.030950386077165604,-0.17147023975849152,1.0019294023513794,-0.042644694447517395,-0.5632439851760864,-0.8857706785202026,2.078209400177002,4.064241409301758,0.3132072687149048,-0.28429725766181946,-0.01373711135238409,-0.23988455533981323
392,31291,31290,0.031847983598709106,-0.05163196101784706,0.9213524460792542,1.8944034576416016,0.18807648122310638,-0.8654704689979553,2.0782532691955566,4.064465522766113,0.3134053945541382,-0.17800432443618774,-0.00019265666196588427,-0.22424259781837463
393,31301,31300,0.0017756441375240684,-0.1370508223772049,0.8903357982635498,3.045748233795166,-5.00923490524292,-1.2578394412994385,2.079193115234375,4.064162731170654,0.31116530299186707,-0.2043992578983307,0.045777227729558945,-0.23188866674900055
394,31311,31310,-0.05205767601728439,-0.13529419898986816,0.9759944081306458,4.507518768310547,-6.810371398925781,-0.6088767051696777,2.078740358352661,4.062810897827148,0.31106701493263245,-0.009319242089986801,0.11674385517835617,-0.29907771944999695
395,31321,31320,-0.0748656839132309,-0.15171517431735992,1.0110654830932617,2.167830467224121,-5.560791969299316,-0.18964360654354095,2.0809006690979004,4.062936305999756,0.31078243255615234,-0.11348284035921097,0.17991748452186584,-0.2774965763092041
396,31331,31330,-0.04088873788714409,-0.15378864109516144,0.992911696434021,-1.8446675539016724,-1.3000401258468628,-0.9471781253814697,2.0813636779785156,4.063146114349365,0.3106037676334381,0.007263997569680214,0.12834109365940094,-0.30605143308639526
397,31341,31340,0.001967915566638112,-0.12045101076364517,0.9920634627342224,-1.9534670114517212,-1.6908882856369019,-0.870721697807312,2.0826518535614014,4.0640106201171875,0.30939000844955444,0.014700615778565407,0.10453462600708008,-0.2684173882007599
398,31351,31350,-0.06973198056221008,-0.1183503270149231,0.9892861843109131,-4.467984676361084,3.3976633548736572,-1.7222967147827148,2.084336519241333,4.0640363693237305,0.3090578317642212,-0.0016957883490249515,0.059785835444927216,-0.29877206683158875
399,31361,31360,-0.05699467658996582,-0.020299049094319344,1.0073977708816528,-4.237713813781738,7.58329963684082,-1.1974854469299316,2.084226369857788,4.063726902008057,0.30880558490753174,0.048927608877420425,-0.015536573715507984,-0.3559856116771698
400,31371,31370,0.03677939996123314,0.025849156081676483,0.9761806130409241,-3.518373727798462,7.965973377227783,-0.48780351877212524,2.08520770072937,4.063634395599365,0.30675381422042847,-0.0468045212328434,-0.07985708862543106,-0.3770016133785248
401,31381,31380,0.02442128397524357,-0.02745525725185871,0.9857478737831116,-1.029636025428772,7.0702900886535645,-0.5749760866165161,2.085573196411133,4.063278675079346,0.30634069442749023,-0.07515692710876465,-0.1100936084985733,-0.4089396595954895
402,31391,31390,0.1168307438492775,-0.0019326622132211924,0.9880220890045166,1.814845085144043,5.070158958435059,-0.7823109030723572,2.0874152183532715,4.063009262084961,0.3057807683944702,-0.2652207314968109,-0.10013464093208313,-0.42253753542900085
403,31401,31400,0.11471203714609146,-0.07056425511837006,0.9889314770698547,4.974878787994385,0.4909513294696808,-0.6864513158798218,2.0881690979003906,4.062729358673096,0.3034026622772217,-0.32385003566741943,-0.04246547445654869,-0.44409990310668945
404,31411,31410,0.10586517304182053,-0.07383356243371964,0.9991061091423035,6.9809489250183105,-1.7168259620666504,-0.9131348133087158,2.0883491039276123,4.061724662780762,0.3028227984905243,-0.31583553552627563,0.06078054755926132,-0.47124654054641724
405,31421,31420,-0.047583773732185364,-0.03236302733421326,1.0160071849822998,7.084985733032227,-5.106412410736084,-0.3661321997642517,2.088778495788574,4.060579299926758,0.3023117780685425,-0.2070010006427765,0.18893428146839142,-0.5201850533485413
406,31431,31430,0.0017983848229050636,-0.007593537215143442,1.0084810256958008,3.965254783630371,-8.602123260498047,0.3719688355922699,2.0898962020874023,4.060216426849365,0.3004676103591919,-0.13451950252056122,0.2875854969024658,-0.5230079293251038
407,31441,31440,-0.05677716061472893,0.05826549232006073,0.9958412051200867,-0.23833365738391876,-5.425778388977051,-0.39725708961486816,2.0913164615631104,4.060044765472412,0.2997700273990631,-0.12821093201637268,0.32268181443214417,-0.5394373536109924
408,31451,31450,-0.04908199980854988,0.11771568655967712,1.037674069404602,-4.243987083435059,-3.7870900630950928,0.2594606578350067,2.0902979373931885,4.060390472412109,0.2992607057094574,0.059951454401016235,0.2124461680650711,-0.5474876165390015
409,31461,31460,0.0020452546887099743,0.0077216848731040955,1.024214744567871,-7.3339409828186035,-1.0943841934204102,-0.2268715649843216,2.0920252799987793,4.060538291931152,0.298568457365036,-0.024518566206097603,0.11543607711791992,-0.5900364518165588
410,31471,31470,-0.035473715513944626,-0.04196314513683319,1.076545238494873,-7.268877983093262,3.7520124912261963,-0.5725232362747192,2.0935957431793213,4.060079097747803,0.2958296537399292,-0.15499939024448395,-0.01285770907998085,-0.6083307862281799
411,31481,31480,0.043153177946805954,-0.1544235795736313,1.0348514318466187,-5.002931594848633,4.422187328338623,0.2769242227077484,2.093585968017578,4.059319972991943,0.2952820360660553,-0.1026734709739685,-0.031453683972358704,-0.6298863291740417
412,31491,31490,0.0042044539004564285,-0.05828545242547989,1.052543044090271,-1.2305305004119873,2.894174575805664,0.08885165303945541,2.093127489089966,4.059441089630127,0.29473429918289185,-0.05516650527715683,-0.07549531012773514,-0.6177536249160767
413,31501,31500,-0.006454264745116234,0.01104324497282505,0.9848552942276001,3.0912625789642334,1.4533052444458008,0.16820967197418213,2.094156265258789,4.059367656707764,0.2948480248451233,-0.24937081336975098,0.0192665234208107,-0.5608915090560913
414,31511,31510,0.008296765387058258,0.025869743898510933,1.0508551597595215,4.668455600738525,-1.1933634281158447,-0.10584264248609543,2.0934982299804688,4.059205532073975,0.29453563690185547,-0.12776534259319305,0.08611989766359329,-0.5451752543449402
415,31521,31520,-0.010373671539127827,0.043843306601047516,1.0769320726394653,5.949150085449219,-4.11650276184082,0.20436729490756989,2.0946176052093506,4.059185981750488,0.2940680682659149,-0.11459729075431824,0.09741750359535217,-0.5574645400047302
416,31531,31530,-0.007076169829815626,-0.0033881075214594603,1.0820963382720947,4.663186073303223,-3.69857120513916,0.05149195343255997,2.0962846279144287,4.0594635009765625,0.2937264144420624,-0.17436347901821136,0.11486895382404327,-0.5640285015106201
417,31541,31540,-0.0007725387113168836,-0.09425127506256104,1.0162677764892578,1.8081426620483398,-3.201798915863037,0.11730843782424927,2.0966978073120117,4.059568405151367,0.2935052812099457,-0.04762876033782959,0.18096314370632172,-0.5334450006484985
418,31551,31550,-0.008288221433758736,0.013595039956271648,1.088330864906311,-1.3817435503005981,-0.5195824503898621,0.059570979326963425,2.0978925228118896,4.058898448944092,0.29320967197418213,-0.056560806930065155,0.18723954260349274,-0.578063428401947
419,31561,31560,0.03857026994228363,-0.057003993541002274,0.9891592860221863,-3.417933940887451,0.8361577391624451,0.7073611617088318,2.098729372024536,4.058426856994629,0.29299396276474,-0.04359128326177597,0.14036348462104797,-0.6143813729286194
420,31571,31570,0.019617557525634766,0.015871569514274597,1.055148720741272,-4.083097457885742,-0.07449432462453842,0.8409995436668396,2.098914384841919,4.058577537536621,0.29572948813438416,-0.004410339053720236,0.07638635486364365,-0.6067317128181458
421,31581,31580,-0.01043285895138979,-0.0385022908449173,1.0274561643600464,-3.64050555229187,0.5123403668403625,0.521034300327301,2.1015079021453857,4.058182716369629,0.29556941986083984,-0.20026472210884094,0.015579301863908768,-0.6398676037788391
422,31591,31590,0.07700466364622116,-0.05031349137425423,0.9911286234855652,-2.3689322471618652,1.3663586378097534,0.937004804611206,2.0993587970733643,4.05921745300293,0.2959083616733551,-0.03800298646092415,0.0427982360124588,-0.5157266855239868
423,31601,31600,-0.005434168968349695,0.01876668445765972,1.0363198518753052,0.812221348285675,-2.9314074516296387,0.6518501043319702,2.0998480319976807,4.058841228485107,0.29534730315208435,0.05332858860492706,0.043030668050050735,-0.5284756422042847
424,31611,31610,-0.031386762857437134,-0.023245401680469513,1.0175496339797974,1.5945862531661987,-2.6244096755981445,0.5434680581092834,2.101794481277466,4.059563159942627,0.2953431308269501,-0.031814124435186386,0.06416070461273193,-0.4749166965484619
425,31621,31620,0.07120107859373093,0.0015976036665961146,1.0293711423873901,1.4871207475662231,-0.49133849143981934,0.7290651798248291,2.1019673347473145,4.058452606201172,0.29541096091270447,0.008133551105856895,0.08490654081106186,-0.5391905903816223
426,31631,31630,-0.006283529102802277,-0.06938208639621735,0.9955471158027649,1.0094225406646729,0.7512558698654175,1.2054557800292969,2.1040172576904297,4.058268070220947,0.2949244976043701,-0.10980779677629471,0.10371702164411545,-0.531764030456543
427,31641,31640,0.013663320802152157,-0.0948026031255722,1.0444186925888062,0.19311046600341797,1.5641367435455322,0.9502384662628174,2.104674816131592,4.0576887130737305,0.29503849148750305,-0.08868242800235748,0.10695881396532059,-0.5538730621337891
428,31651,31650,-0.03325943276286125,-0.08061046898365021,1.052141547203064,-1.3752250671386719,0.40353086590766907,0.9682796597480774,2.1062545776367188,4.057631492614746,0.2951112985610962,-0.13138678669929504,0.09267385303974152,-0.555667519569397
429,31661,31660,-0.002625207882374525,-0.020510358735919,1.0151745080947876,-1.390322208404541,-0.26364967226982117,1.5821504592895508,2.1060986518859863,4.057501792907715,0.2954477369785309,-0.009838083758950233,0.07214561104774475,-0.5530725121498108
430,31671,31670,0.013792676851153374,0.057012930512428284,1.01716947555542,-2.0976879596710205,-1.3991116285324097,1.6319937705993652,2.1069276332855225,4.057733535766602,0.29754117131233215,-0.11999034136533737,-0.03723696991801262,-0.5586612224578857
431,31681,31680,0.05205569416284561,0.06663274765014648,1.0008529424667358,-1.8183841705322266,-2.5372426509857178,1.784088373184204,2.1066203117370605,4.056154727935791,0.29801201820373535,0.03646878898143768,0.09331405907869339,-0.5849446654319763
432,31691,31690,0.023141678422689438,0.08575350046157837,1.006051778793335,-2.2261476516723633,-2.2483408451080322,1.6113996505737305,2.1072990894317627,4.0564446449279785,0.29830408096313477,0.034780386835336685,0.053570706397295,-0.5253463387489319
433,31701,31700,0.06476794928312302,0.059287019073963165,1.0034761428833008,-3.4250667095184326,-1.923751711845398,0.858144223690033,2.108426570892334,4.056666851043701,0.29531389474868774,0.02679835818707943,-0.006293255370110273,-0.5110654234886169
434,31711,31710,-0.012087114155292511,-0.08185520023107529,0.9994435906410217,-3.188525438308716,-1.027660846710205,0.9674899578094482,2.1097052097320557,4.056325912475586,0.29543399810791016,0.0048751975409686565,-0.06959531456232071,-0.5309656858444214
435,31721,31720,0.038867443799972534,0.012243550270795822,0.9952061772346497,-2.9616246223449707,-1.2329397201538086,1.6391280889511108,2.108808994293213,4.05553674697876,0.29557541012763977,0.14249296486377716,-0.04216187819838524,-0.5387843251228333
436,31731,31730,0.0023517196532338858,0.08838056027889252,1.0125706195831299,-2.0488414764404297,-0.8403352499008179,1.3787487745285034,2.111421823501587,4.055899143218994,0.2986814081668854,-0.04905756935477257,-0.09116002917289734,-0.5244709253311157
437,31741,31740,0.004526401869952679,0.12814398109912872,1.013010025024414,-0.7571847438812256,0.18696095049381256,1.6829373836517334,2.1115424633026123,4.055109977722168,0.29911303520202637,0.09002979099750519,-0.11338460445404053,-0.5495964884757996
438,31751,31750,0.0077597168274223804,-0.0044743954204022884,0.9718402624130249,0.09075142443180084,-0.3768303096294403,1.7453300952911377,2.112870931625366,4.054601192474365,0.29940265417099,0.04386473074555397,-0.1215844452381134,-0.5063751935958862
439,31761,31760,0.014190124347805977,0.03840848430991173,0.983019232749939,0.5754023790359497,-0.6544166207313538,1.743047833442688,2.113093614578247,4.055204391479492,0.3014196455478668,0.013716030865907669,-0.11866049468517303,-0.5186482071876526
440,31771,31770,0.001113176578655839,0.11484905332326889,1.0120974779129028,1.7641340494155884,-1.0128707885742188,1.9627326726913452,2.1133875846862793,4.054621696472168,0.3019634187221527,0.14457638561725616,-0.10224193334579468,-0.5026417374610901
441,31781,31780,-0.000591752293985337,0.07912241667509079,1.0000545978546143,1.3169662952423096,-1.2719587087631226,2.131988048553467,2.1159677505493164,4.055047035217285,0.3022623360157013,-0.039678920060396194,-0.07267982512712479,-0.44187405705451965
442,31791,31790,-0.01772383600473404,0.06708047538995743,1.0252504348754883,1.6989835500717163,-2.804717540740967,1.7226884365081787,2.1161766052246094,4.054676532745361,0.30288368463516235,0.1197359710931778,-0.04664335772395134,-0.4894300401210785
443,31801,31800,-0.03520282730460167,0.056865792721509933,1.040411114692688,1.315047025680542,-4.018387794494629,1.9953292608261108,2.1158995628356934,4.054014682769775,0.3034432828426361,0.13140526413917542,-0.03406423330307007,-0.4455621838569641
444,31811,31810,-0.03993071988224983,0.040110308676958084,1.0141067504882812,-0.6152204275131226,-2.7431492805480957,2.1127474308013916,2.1184439659118652,4.055212020874023,0.3044265806674957,0.155364990234375,-0.028240056708455086,-0.3679858148097992
445,31821,31820,0.0180283822119236,-0.044912468641996384,0.9657744765281677,-2.9464001655578613,-0.6687638163566589,1.3292405605316162,2.1182174682617188,4.05620813369751,0.3043786585330963,0.13201753795146942,-0.07192964851856232,-0.2508600950241089
446,31831,31830,0.004333712626248598,-0.0005471231415867805,0.9391939640045166,-1.8555638790130615,-1.3742657899856567,0.32457369565963745,2.1194140911102295,4.05665922164917,0.30490994453430176,0.12268493324518204,-0.11336704343557358,-0.21952998638153076
447,31841,31840,-0.0020018003415316343,0.03978807106614113,0.9216380715370178,-2.153890609741211,0.10011162608861923,0.4853154122829437,2.119598150253296,4.057112216949463,0.3053739070892334,0.09808506816625595,-0.07247404009103775,-0.1740151196718216
448,31851,31850,-0.017126133665442467,0.023363878950476646,0.9406958222389221,-1.269188404083252,-0.6598495841026306,1.0896706581115723,2.120920181274414,4.056341171264648,0.3057263493537903,0.06463619321584702,-0.10701920837163925,-0.24737559258937836
449,31861,31860,-0.01817680522799492,0.0011574025265872478,0.9876686334609985,0.5506490468978882,-0.9144670367240906,0.2733587920665741,2.1215708255767822,4.055259704589844,0.3058522641658783,0.20332656800746918,-0.11408348381519318,-0.2529936134815216
450,31871,31870,-0.004503151867538691,0.05543027073144913,0.9969038367271423,-0.2747857868671417,-1.0887302160263062,0.9259623289108276,2.123490810394287,4.054266452789307,0.3061333894729614,0.17757514119148254,-0.041151076555252075,-0.28058531880378723
451,31881,31880,0.0032944174017757177,-0.15102218091487885,0.9735609889030457,-0.24798640608787537,-1.6036579608917236,0.9942075610160828,2.1240603923797607,4.053386688232422,0.30640271306037903,0.2541036605834961,-0.050665128976106644,-0.31985560059547424
452,31891,31890,-0.0037071460392326117,-0.06410517543554306,0.9903730154037476,-0.8426342606544495,0.12629561126232147,1.3057539463043213,2.125493049621582,4.053079128265381,0.30668702721595764,0.21174272894859314,-0.07176319509744644,-0.3447619378566742
453,31901,31900,0.01624545454978943,0.04192790389060974,0.9840437173843384,-1.767183542251587,2.255112886428833,1.0501703023910522,2.126244306564331,4.052493572235107,0.3041727542877197,0.21767425537109375,-0.1033838540315628,-0.36220455169677734
454,31911,31910,0.007283682469278574,0.0007505750982090831,0.9577395915985107,-1.772660255432129,2.3376216888427734,1.5161174535751343,2.1269896030426025,4.054903030395508,0.30422431230545044,0.12895742058753967,-0.14696472883224487,-0.16386869549751282
455,31921,31920,0.018217144533991814,-0.04351981356739998,0.9622610211372375,-2.6856160163879395,3.11366868019104,-0.23352228105068207,2.1271238327026367,4.055027484893799,0.30425992608070374,0.11830838024616241,-0.19115664064884186,-0.1605597585439682
456,31931,31930,0.0040855673141777515,-0.002113377209752798,1.0106791257858276,-1.7480745315551758,3.1893601417541504,0.21114952862262726,2.129948377609253,4.055234909057617,0.3044533133506775,0.03028484433889389,-0.23116229474544525,-0.15469147264957428
457,31941,31940,-0.006204310338944197,0.017322013154625893,1.0122462511062622,-1.0640778541564941,2.7037932872772217,-0.10598405450582504,2.1285526752471924,4.0551557540893555,0.3045937418937683,0.10591015219688416,-0.25792524218559265,-0.1558261662721634
458,31951,31950,0.013569054193794727,-0.044440045952796936,0.951472282409668,0.5515474081039429,1.5903542041778564,0.011454707011580467,2.1292190551757812,4.054441452026367,0.3045751750469208,0.11011550575494766,-0.2625236511230469,-0.20612815022468567
459,31961,31960,-0.00799993984401226,-0.04022371396422386,0.9893134236335754,1.9046149253845215,-0.9693876504898071,0.34471243619918823,2.129051446914673,4.054928779602051,0.3043135106563568,0.05660869926214218,-0.24951763451099396,-0.14558124542236328
460,31971,31970,0.015816884115338326,0.021035151556134224,1.000190258026123,2.887847661972046,0.6115594506263733,0.23213914036750793,2.1302459239959717,4.053992748260498,0.30418968200683594,0.0075421081855893135,-0.2186104655265808,-0.19787372648715973
461,31981,31980,0.029102586209774017,-0.00319720059633255,0.9766321182250977,3.068347930908203,0.9000036716461182,0.6094801425933838,2.1305108070373535,4.054299831390381,0.3042509853839874,0.11459551751613617,-0.17531847953796387,-0.16781744360923767
462,31991,31990,0.0249805748462677,-0.052904702723026276,0.9919126629829407,1.4922817945480347,1.6640712022781372,0.5756064653396606,2.1318142414093018,4.054140567779541,0.30416324734687805,0.10123299062252045,-0.13294844329357147,-0.18186388909816742
463,32001,32000,-0.032365672290325165,-0.06519664078950882,1.029133915901184,0.04155830293893814,0.5668824911117554,0.603524923324585,2.1332900524139404,4.0536651611328125,0.30532315373420715,0.00864019151777029,-0.10697896778583527,-0.20399954915046692
464,32011,32010,-0.016948096454143524,-0.020823029801249504,1.0037500858306885,-1.3849804401397705,0.3807030916213989,0.5991703271865845,2.13482666015625,4.053783893585205,0.3052573502063751,-0.05832935869693756,-0.10920022428035736,-0.17268602550029755
465,32021,32020,-0.08245624601840973,-0.013221361674368382,1.0192543268203735,-2.281776189804077,0.11429078131914139,0.3584795594215393,2.135100841522217,4.053414821624756,0.30542242527008057,0.06360168755054474,-0.12697897851467133,-0.19661805033683777
466,32031,32030,-0.04421130567789078,-0.018446914851665497,1.0411940813064575,-4.01922082901001,0.04716942459344864,0.9813159704208374,2.135110855102539,4.0527729988098145,0.30429667234420776,0.1710781455039978,-0.16851165890693665,-0.2854558229446411
467,32041,32040,-0.05835574120283127,0.09869343787431717,1.005517840385437,-3.376685619354248,-0.5700043439865112,1.5377503633499146,2.137570381164551,4.052270412445068,0.3041507601737976,-0.019574126228690147,-0.2267763763666153,-0.2956759035587311
468,32051,32050,-0.048127181828022,-0.0109665272757411,0.985798716545105,-2.0886478424072266,2.1474831104278564,1.7644859552383423,2.1380577087402344,4.052569389343262,0.3041992485523224,0.017409244552254677,-0.2770449221134186,-0.2767414152622223
469,32061,32060,0.05489072948694229,0.05033625289797783,0.9915896058082581,0.36006152629852295,2.390568494796753,1.8872928619384766,2.1387219429016113,4.051572799682617,0.3062642812728882,0.09326951950788498,-0.22498495876789093,-0.2878270447254181
470,32071,32070,0.10227083414793015,-0.007790982723236084,0.9848494529724121,2.0511155128479004,1.8787575960159302,1.9952019453048706,2.1395609378814697,4.050845146179199,0.30637118220329285,0.0758240669965744,-0.2283715009689331,-0.3203977942466736
471,32081,32080,0.0037521282210946083,-0.04886310175061226,0.9879910349845886,3.006027936935425,1.230780005455017,1.8723938465118408,2.1399452686309814,4.051826000213623,0.3065406382083893,0.06513489782810211,-0.27451568841934204,-0.2693875730037689
472,32091,32090,0.045154307037591934,-0.1429954320192337,0.9834958910942078,2.899137258529663,1.1130237579345703,1.4465821981430054,2.14194655418396,4.051301956176758,0.306719034910202,-0.021798137575387955,-0.2188078910112381,-0.2629436254501343
473,32101,32100,0.028337687253952026,-0.18094784021377563,0.9899261593818665,1.7498735189437866,0.6784132719039917,1.50413179397583,2.1421027183532715,4.050070285797119,0.3068142831325531,-0.022684525698423386,-0.1674371361732483,-0.3181650936603546
474,32111,32110,-0.021339038386940956,-0.1401892751455307,0.9875445365905762,1.078486442565918,-0.20199517905712128,2.3991763591766357,2.142387866973877,4.050424575805664,0.307010680437088,0.059323012828826904,-0.1349629908800125,-0.2765614092350006
475,32121,32120,-0.02227056585252285,-0.054316580295562744,0.9714617133140564,-0.4941641390323639,-0.735221266746521,1.5723023414611816,2.14396071434021,4.050026893615723,0.30704399943351746,-0.0037816751282662153,-0.12052768468856812,-0.2864871621131897
476,32131,32130,-9.87175153568387e-05,0.054196808487176895,0.9943544864654541,-1.2254542112350464,-1.1484410762786865,2.073880434036255,2.1445627212524414,4.0498199462890625,0.3074289560317993,0.032287634909152985,-0.12682828307151794,-0.2839386463165283
