,timestamp_start,timestamp_end,acc.x,acc.y,acc.z,gyro.x,gyro.y,gyro.z,stateEstimate.x,stateEstimate.y,stateEstimate.z,stabilizer.pitch,stabilizer.roll,stabilizer.yaw
0,19940,19937,-0.024289945140480995,0.02458629012107849,1.0243924856185913,-38.572322845458984,8.137550354003906,0.915873646736145,1.9511994123458862,3.996206760406494,0.17486783862113953,0.5559827089309692,-0.2273944914340973,1.9428173303604126
1,19950,19947,-0.0079642990604043,0.007059995085000992,0.9804314970970154,-36.73590087890625,3.461094617843628,1.4168485403060913,1.950933575630188,3.9976751804351807,0.17750132083892822,0.4197791516780853,-0.8259605169296265,1.9795715808868408
2,19960,19957,0.01458120346069336,-0.006052839104086161,0.9784513711929321,-27.66695785522461,-0.3229632079601288,1.2527190446853638,1.9508299827575684,3.9981024265289307,0.17844676971435547,0.41916579008102417,-1.4106570482254028,2.0225541591644287
3,19970,19967,-0.025596659630537033,0.01255663763731718,1.033332347869873,-15.111273765563965,-1.805733323097229,1.479587435722351,1.9503568410873413,3.9973416328430176,0.180685356259346,0.4809446930885315,-1.6537150144577026,2.0350401401519775
4,19980,19977,0.03140821307897568,-0.023135947063565254,0.979189932346344,0.5265271663665771,-2.5348927974700928,1.806443214416504,1.9507927894592285,3.9963808059692383,0.18284669518470764,0.48772308230400085,-1.8044826984405518,2.0564088821411133
5,19990,19987,-0.012158757075667381,0.015686634927988052,1.044729232788086,12.118438720703125,-1.9325393438339233,2.2547624111175537,1.9510811567306519,3.998255491256714,0.1851758062839508,0.49782806634902954,-1.8563789129257202,2.0869812965393066
6,20000,19997,0.0024866624735295773,0.009701946750283241,1.0075129270553589,19.634166717529297,0.8005535006523132,2.428596019744873,1.9506456851959229,3.9996819496154785,0.18553075194358826,0.5766114592552185,-1.70103120803833,2.1016247272491455
7,20010,20007,-0.0014243153855204582,-0.03500434011220932,1.0041491985321045,22.060684204101562,1.7264660596847534,2.4685018062591553,1.949785828590393,3.9994356632232666,0.18772876262664795,0.6123213171958923,-1.4268648624420166,2.1160311698913574
8,20020,20017,-0.03851628303527832,0.00852210447192192,1.0663758516311646,17.535470962524414,5.602451324462891,1.9613150358200073,1.949501395225525,4.000295162200928,0.18983463943004608,0.6084622740745544,-1.373367190361023,2.1499695777893066
9,20030,20027,0.020588751882314682,-0.025768332183361053,0.9861482381820679,10.157275199890137,8.061413764953613,1.6756930351257324,1.949851632118225,4.000589370727539,0.1910214126110077,0.522845983505249,-1.244983196258545,2.171233892440796
10,20040,20037,0.0001915503671625629,-0.0069350250996649265,0.9832539558410645,2.3588016033172607,9.23734188079834,0.7339709401130676,1.9505189657211304,4.00408935546875,0.19314421713352203,0.3343832790851593,-1.3645750284194946,2.2197914123535156
11,20050,20047,0.0017155023524537683,0.002993736183270812,0.987361490726471,-2.1544315814971924,7.949948787689209,0.5286165475845337,1.9455372095108032,4.002142906188965,0.1950683891773224,0.7729322910308838,-1.4390649795532227,2.123680830001831
12,20060,20057,0.04203193634748459,0.04497307911515236,0.9347645044326782,-2.40413761138916,8.78217601776123,1.1508400440216064,1.9459543228149414,4.00320291519165,0.19551607966423035,0.5922077298164368,-1.5425395965576172,2.155460834503174
13,20070,20067,0.043490536510944366,0.040931858122348785,0.9662413001060486,2.143853187561035,8.619926452636719,1.0658036470413208,1.9450136423110962,4.001978874206543,0.19757570326328278,0.42247119545936584,-1.6046998500823975,2.1862080097198486
14,20080,20077,-0.019620921462774277,-0.13238759338855743,1.048156976699829,9.159565925598145,10.315164566040039,0.8014994263648987,1.9444537162780762,4.002030849456787,0.19949810206890106,0.33868250250816345,-1.57288658618927,2.1948766708374023
15,20090,20087,0.021684585139155388,-0.09176325798034668,0.9445932507514954,15.270744323730469,11.207575798034668,0.6132397055625916,1.94364333152771,4.003508567810059,0.20203682780265808,0.12692758440971375,-1.3384008407592773,2.210801124572754
16,20100,20097,0.026536183431744576,0.13250848650932312,0.9780334234237671,19.885953903198242,9.65423583984375,0.8267618417739868,1.9445054531097412,4.002520561218262,0.20067104697227478,-0.1851542890071869,-1.1552042961120605,2.2508277893066406
17,20110,20107,0.028433188796043396,0.08557498455047607,0.9533068537712097,21.519580841064453,7.908642768859863,0.8878039717674255,1.9434486627578735,4.0028395652771,0.20264562964439392,-0.39317360520362854,-1.0692740678787231,2.2862420082092285
18,20120,20117,0.007555644027888775,-0.039192017167806625,0.967603862285614,21.200332641601562,3.9840354919433594,1.1302306652069092,1.9436339139938354,4.002811908721924,0.2045392245054245,-0.46172967553138733,-0.7964345216751099,2.2964470386505127
19,20130,20127,-0.041794728487730026,-0.02759055234491825,0.954189658164978,18.283708572387695,-3.1180288791656494,0.8163235187530518,1.9425616264343262,4.00068473815918,0.20625704526901245,-0.4913526177406311,-0.40257716178894043,2.316051721572876
20,20140,20137,0.001025959849357605,-0.03662716597318649,0.9769801497459412,13.383667945861816,-5.239542484283447,0.9119839668273926,1.942734718322754,4.004476547241211,0.20818524062633514,-0.47148558497428894,-0.6135570406913757,2.3193557262420654
21,20150,20147,-0.026846429333090782,0.05165918916463852,1.016520619392395,7.240756034851074,-6.768113136291504,0.35064706206321716,1.9422423839569092,4.005800724029541,0.2101578563451767,-0.40734726190567017,-0.3527063727378845,2.3315236568450928
22,20160,20157,0.0027518896386027336,0.08408497273921967,0.9491297006607056,6.135949611663818,-8.551620483398438,0.4112628400325775,1.9423518180847168,4.006742477416992,0.21058550477027893,-0.3178946077823639,-0.3269202411174774,2.331329584121704
23,20170,20167,0.006267593242228031,0.09330146014690399,0.9895195364952087,6.225254058837891,-8.6092529296875,0.9122354388237,1.9431238174438477,4.008439540863037,0.21225890517234802,-0.3510446548461914,-0.1557927429676056,2.3594577312469482
24,20180,20177,-0.01426536776125431,0.04798831045627594,1.0403395891189575,8.758256912231445,-9.45833969116211,0.976298987865448,1.9423168897628784,4.007200241088867,0.21390791237354279,-0.20245517790317535,-0.05912461504340172,2.3646798133850098
25,20190,20187,-0.05109386518597603,-0.0031555129680782557,1.0587401390075684,8.731736183166504,-6.3176679611206055,0.8088281154632568,1.9420133829116821,4.0119452476501465,0.21667788922786713,-0.12559014558792114,-0.22745534777641296,2.359455108642578
26,20200,20197,-0.019490398466587067,0.002335116732865572,1.0646753311157227,11.581136703491211,-6.93493127822876,0.9373149871826172,1.9404006004333496,4.011270523071289,0.21839123964309692,-0.0414259172976017,-0.13017800450325012,2.366668224334717
27,20210,20207,0.013765428215265274,-0.06736156344413757,1.0851413011550903,11.706535339355469,-0.9709681868553162,1.9506278038024902,1.9400527477264404,4.010909557342529,0.22028718888759613,0.01427600346505642,0.08055093139410019,2.386744737625122
28,20220,20217,0.04079084470868111,-0.10987179726362228,1.022242784500122,13.614721298217773,-0.42706555128097534,1.7489994764328003,1.9399715662002563,4.012621879577637,0.22219465672969818,-0.13136401772499084,0.14595958590507507,2.4090089797973633
29,20230,20227,-0.010555765591561794,0.02472582459449768,1.0328876972198486,11.670692443847656,0.008864889852702618,1.4044252634048462,1.9385240077972412,4.010050296783447,0.22623296082019806,-0.12020893394947052,0.37413856387138367,2.4288105964660645
30,20240,20237,0.02303561009466648,-0.08050788193941116,0.939815104007721,11.116576194763184,-4.559263706207275,1.6468610763549805,1.9372185468673706,4.010690212249756,0.22834131121635437,-0.02981843240559101,0.5662354826927185,2.445573091506958
31,20250,20247,-0.06362633407115936,-0.2122865915298462,1.062893033027649,8.562725067138672,-3.5241382122039795,1.219489336013794,1.935782551765442,4.008923530578613,0.2303999960422516,-0.02609643153846264,0.574009358882904,2.4552359580993652
32,20260,20257,0.06609466671943665,-0.02516269125044346,0.9487094283103943,5.93116569519043,-2.2098281383514404,0.9617993235588074,1.9346903562545776,4.00836706161499,0.23270830512046814,0.014702281914651394,0.7708724737167358,2.4720001220703125
33,20270,20267,0.02680019661784172,0.023805707693099976,0.9437466859817505,2.5714550018310547,-5.087315559387207,1.0993878841400146,1.9337737560272217,4.008274078369141,0.23484763503074646,0.11599882692098618,0.7650838494300842,2.4807159900665283
34,20280,20277,-0.09849133342504501,0.072300985455513,0.9764534831047058,-0.035982515662908554,-5.807353973388672,0.706494152545929,1.9334865808486938,4.008969306945801,0.23693400621414185,0.19304455816745758,0.6271893978118896,2.4832262992858887
35,20290,20287,-0.06342050433158875,0.028797689825296402,0.9849276542663574,-1.1561036109924316,-5.052012920379639,0.8830272555351257,1.932877540588379,4.012251377105713,0.24160800874233246,0.26335057616233826,0.5448561310768127,2.488476514816284
36,20300,20297,-0.03566383197903633,0.040384355932474136,0.9733408689498901,0.728385865688324,-3.3169682025909424,0.8036839962005615,1.9324604272842407,4.012263298034668,0.24382250010967255,0.33595773577690125,0.619339644908905,2.5010533332824707
37,20310,20307,-0.03771000728011131,0.019612615928053856,0.9559177756309509,4.336524963378906,-1.39505934715271,0.42288827896118164,1.931986689567566,4.01270866394043,0.24596446752548218,0.3698824644088745,0.6505476236343384,2.508167266845703
38,20320,20317,-0.02401169016957283,-0.00022818148136138916,0.9683753252029419,7.919267177581787,0.5300387740135193,0.32344940304756165,1.9316686391830444,4.012759685516357,0.24807579815387726,0.3586370348930359,0.6620107293128967,2.5109400749206543
39,20330,20327,-0.0008603856549598277,0.020488614216446877,0.9637017250061035,8.165698051452637,3.1895182132720947,-0.013633720576763153,1.932098388671875,4.011481285095215,0.24879804253578186,0.23825816810131073,0.8699389100074768,2.505851984024048
40,20340,20337,-0.05274103209376335,0.07396556437015533,0.9490233659744263,7.565812587738037,3.0011024475097656,-0.5060215592384338,1.9322187900543213,4.011617183685303,0.2508150637149811,0.10576214641332626,0.9880004525184631,2.492217540740967
41,20350,20347,-0.06450205296278,0.1600240170955658,0.9466785192489624,3.80787992477417,4.284158229827881,-0.942180871963501,1.931530475616455,4.010730743408203,0.2527671754360199,0.12462718784809113,1.0685826539993286,2.4920051097869873
42,20360,20357,-0.1009686067700386,0.2077888399362564,0.9107140898704529,1.931410312652588,-2.0838396549224854,-0.2893909811973572,1.931709885597229,4.010094165802002,0.2534065842628479,0.08137580007314682,1.1633843183517456,2.481795310974121
43,20370,20367,0.008037382736802101,0.014169295318424702,0.8779714703559875,-1.7271695137023926,-2.3259663581848145,-0.21010947227478027,1.9309070110321045,4.008238315582275,0.25510329008102417,0.08153742551803589,1.1967511177062988,2.475984573364258
44,20380,20377,0.08947993814945221,-0.009444348514080048,0.8823457956314087,-4.519169330596924,-2.26572847366333,-0.05582272633910179,1.9310438632965088,4.007753372192383,0.25679096579551697,-0.09119284898042679,1.0315616130828857,2.445551872253418
45,20390,20387,0.14690697193145752,-0.06795454770326614,0.8754567503929138,-5.703924179077148,-5.173805236816406,-0.16403408348560333,1.927966594696045,4.0088300704956055,0.25879552960395813,0.3551236689090729,0.9857385158538818,2.5041189193725586
46,20400,20397,0.07233743369579315,-0.039245955646038055,0.9133142828941345,-5.896216869354248,-8.211405754089355,-0.7397177219390869,1.9289960861206055,4.0079874992370605,0.2603820562362671,0.19619323313236237,0.9191291928291321,2.465559720993042
47,20410,20407,0.0008508511236868799,0.024894453585147858,0.9537051320075989,-4.220808506011963,-5.974015712738037,-0.32357504963874817,1.927241325378418,4.008231163024902,0.26175472140312195,0.47025492787361145,0.8670421242713928,2.490877866744995
48,20420,20417,0.0038627285975962877,-0.005368860438466072,0.9579842686653137,-1.7386293411254883,-2.4536070823669434,-0.593425452709198,1.9250552654266357,4.007968902587891,0.2628854811191559,0.7496930360794067,0.8476638793945312,2.5219972133636475
49,20430,20427,-0.016375768929719925,0.025712544098496437,1.0036526918411255,0.9454326629638672,3.1332035064697266,-0.8271476626396179,1.9268814325332642,4.0077362060546875,0.2629718780517578,0.466568261384964,0.9410731196403503,2.468198776245117
50,20440,20437,-0.08895192295312881,-0.04455381631851196,1.061110019683838,1.6184663772583008,8.588983535766602,-0.9574860334396362,1.9261821508407593,4.006602764129639,0.26408350467681885,0.469753235578537,0.9869888424873352,2.469759225845337
51,20450,20447,-0.02391606755554676,-0.0392095223069191,0.9652221202850342,1.145607352256775,11.022958755493164,-1.200167179107666,1.9223653078079224,4.008751392364502,0.2651441693305969,0.5710328817367554,0.7921900153160095,2.4985158443450928
52,20460,20457,-0.016186367720365524,0.010167548432946205,0.9608117938041687,0.33869433403015137,9.451942443847656,-1.056100606918335,1.922523856163025,4.008828639984131,0.26804378628730774,0.31540223956108093,0.9126859903335571,2.4629788398742676
53,20470,20467,-0.02163153700530529,-0.015232224017381668,0.9795439839363098,-2.182988166809082,13.449531555175781,-0.039361171424388885,1.9228241443634033,4.010763168334961,0.26927801966667175,0.0602743960916996,0.7660818696022034,2.4464898109436035
54,20480,20477,-0.0383700393140316,0.10590066015720367,0.9662688374519348,-3.3603193759918213,9.954699516296387,0.26439324021339417,1.923202633857727,4.008872985839844,0.27050668001174927,-0.14292725920677185,0.9008345603942871,2.428846836090088
55,20490,20487,0.007732989266514778,0.03341346234083176,0.9505630731582642,-3.735501766204834,5.32353401184082,0.29594308137893677,1.9228097200393677,4.010733127593994,0.2720789313316345,-0.21905703842639923,0.8555586934089661,2.4329190254211426
56,20500,20497,0.023675043135881424,0.15622341632843018,0.9766206741333008,-3.6668601036071777,-1.3245344161987305,0.034679289907217026,1.9225910902023315,4.009279727935791,0.2732241451740265,-0.28791454434394836,0.878366231918335,2.428546190261841
57,20510,20507,0.01826481893658638,0.005953049752861261,0.942802906036377,-3.0504274368286133,-7.091479778289795,-0.06881798803806305,1.9220740795135498,4.01229190826416,0.274393767118454,-0.23471610248088837,0.5904344916343689,2.430713415145874
58,20520,20517,0.00792350061237812,-0.03719174116849899,0.9623912572860718,-3.506594181060791,-10.064227104187012,0.03183941915631294,1.9207693338394165,4.008869647979736,0.2756568491458893,-0.10090199112892151,0.878006100654602,2.4377529621124268
59,20530,20527,0.05198054388165474,-0.03513231500983238,0.9869409799575806,-2.280775308609009,-11.07554817199707,-0.6867789626121521,1.9217171669006348,4.012993812561035,0.27903446555137634,-0.16529053449630737,0.4338890612125397,2.4056272506713867
60,20540,20537,0.0020522966515272856,0.021041063591837883,0.9990852475166321,-1.7610794305801392,-10.038434982299805,-0.1981847584247589,1.9122980833053589,4.009451389312744,0.28062325716018677,0.8814060091972351,0.5127384066581726,2.5259060859680176
61,20550,20547,-0.020760638639330864,0.10789640992879868,0.9754231572151184,-0.5652126669883728,-4.985110282897949,-1.1100448369979858,1.912060022354126,4.0094990730285645,0.28194066882133484,0.8920326828956604,0.5054147243499756,2.5070436000823975
62,20560,20557,-0.0036306814290583134,0.01313911285251379,0.9463101029396057,1.2253977060317993,3.980039358139038,-1.0202405452728271,1.91152822971344,4.010008811950684,0.28144291043281555,0.8402968645095825,0.5339909791946411,2.4875919818878174
63,20570,20567,0.07578180730342865,-0.03649769350886345,0.9173874258995056,1.249659776687622,16.868188858032227,-0.6200162172317505,1.9124765396118164,4.010402679443359,0.28269070386886597,0.5634827017784119,0.5664242506027222,2.4600770473480225
64,20580,20577,0.02766115590929985,-0.021034078672528267,0.9400926828384399,1.4022562503814697,24.067907333374023,-0.5410268902778625,1.9131273031234741,4.010359764099121,0.2837744653224945,0.23870199918746948,0.6131575107574463,2.441652774810791
65,20590,20587,0.00799415074288845,-0.03887711092829704,0.9446744322776794,0.20697152614593506,25.490455627441406,-0.5033310651779175,1.9116023778915405,4.010834217071533,0.28507840633392334,0.07149671763181686,0.6442188024520874,2.4472169876098633
66,20600,20597,0.025092419236898422,0.0034821464214473963,0.9173945784568787,-1.6343716382980347,23.945085525512695,-1.3105387687683105,1.9119361639022827,4.007366180419922,0.28605249524116516,-0.4272420406341553,0.7222242951393127,2.412097215652466
67,20610,20607,-0.0016988556599244475,-0.00973840057849884,0.9433715343475342,-3.9333901405334473,15.112459182739258,-0.9036438465118408,1.9109086990356445,4.009266376495361,0.2868956923484802,-0.5905455946922302,0.6808099746704102,2.409158945083618
68,20620,20617,-0.017620401456952095,-0.009668255224823952,1.0069326162338257,-6.014214515686035,7.298628807067871,-1.6178972721099854,1.9090666770935059,4.007081508636475,0.2861050069332123,-0.6954017281532288,0.6727554798126221,2.3995449542999268
69,20630,20627,-0.014561724849045277,-0.15936115384101868,0.9854743480682373,-6.322288513183594,-1.9674721956253052,-1.522725224494934,1.9087773561477661,4.007399559020996,0.28674477338790894,-0.7499690651893616,0.5695274472236633,2.3829562664031982
70,20640,20637,-0.016857773065567017,-0.0877828374505043,0.984631359577179,-4.910991191864014,-11.986220359802246,-1.7101346254348755,1.9060392379760742,4.007630348205566,0.2873876690864563,-0.5513734221458435,0.46155235171318054,2.375495433807373
71,20650,20647,-0.10119890421628952,-0.048804815858602524,1.0381392240524292,-4.46099853515625,-10.116236686706543,-1.559423565864563,1.9083361625671387,4.006322860717773,0.28806644678115845,-0.6626845598220825,0.5288429260253906,2.344325542449951
72,20660,20657,-0.019312892109155655,-0.043489180505275726,0.9847498536109924,-3.5727968215942383,-8.126875877380371,-1.5148036479949951,1.9078946113586426,4.005905628204346,0.28462737798690796,-0.5348151326179504,0.5246627926826477,2.3327581882476807
73,20670,20667,-0.01574018970131874,-0.04423363506793976,0.9804362058639526,-3.771484375,-7.251657009124756,-1.829179286956787,1.9074249267578125,4.00515079498291,0.28507259488105774,-0.42844635248184204,0.4423931837081909,2.3154149055480957
74,20680,20677,0.04146624356508255,0.03495829179883003,0.9755019545555115,-4.0752997398376465,-4.145653247833252,-1.442184329032898,1.9076358079910278,4.005594253540039,0.2854536771774292,-0.3654659390449524,0.43554991483688354,2.304198980331421
75,20690,20687,0.06109987944364548,0.02913077361881733,0.9694669842720032,-3.603698492050171,-0.342809796333313,-1.2703423500061035,1.9083853960037231,4.0058488845825195,0.2839001417160034,-0.4393836557865143,0.3508724272251129,2.2816052436828613
76,20700,20697,0.030092976987361908,-0.040059808641672134,0.9746220707893372,-3.5522289276123047,3.2411389350891113,-1.0043811798095703,1.9080326557159424,4.006004333496094,0.2841506004333496,-0.4863920509815216,0.27613556385040283,2.265915870666504
77,20710,20707,-0.02196452021598816,-0.08861950784921646,0.9948256611824036,-3.0627551078796387,4.558516502380371,-0.9757540225982666,1.907840609550476,4.00507926940918,0.28437095880508423,-0.567354679107666,0.3634006977081299,2.2643229961395264
78,20720,20717,-0.04435598850250244,-0.09479843080043793,0.9938074350357056,-3.227294683456421,2.785491466522217,-1.1253150701522827,1.9061250686645508,4.004823684692383,0.28733178973197937,-0.47282472252845764,0.37195345759391785,2.2613370418548584
79,20730,20727,-0.008976305834949017,-0.039362914860248566,0.9868348836898804,-4.349222660064697,1.3056401014328003,-0.9879158139228821,1.9056488275527954,4.005453586578369,0.2877654731273651,-0.5337237119674683,0.27995920181274414,2.245792865753174
80,20740,20737,-0.028583437204360962,-0.00331898988224566,0.9977744817733765,-5.359192371368408,-0.6974948644638062,-0.8785749673843384,1.9054325819015503,4.006046772003174,0.28810539841651917,-0.5483396649360657,0.3302299678325653,2.244671106338501
81,20750,20747,-0.025490572676062584,-0.009754190221428871,1.0379176139831543,-6.4685564041137695,-2.4503633975982666,-1.3325351476669312,1.9050389528274536,4.00621223449707,0.2885323464870453,-0.5136027932167053,0.20190158486366272,2.23069429397583
82,20760,20757,0.012831821106374264,-0.09291746467351913,1.036637783050537,-6.313955307006836,-4.173565864562988,-1.3164184093475342,1.90481436252594,4.00734806060791,0.28928011655807495,-0.5154677033424377,0.06941697746515274,2.212059736251831
83,20770,20767,-0.027521120384335518,-0.009193199686706066,1.048484206199646,-4.355784893035889,-5.445641040802002,-0.6952695846557617,1.9039685726165771,4.006004333496094,0.2896859347820282,-0.46184414625167847,0.09905393421649933,2.2111456394195557
84,20780,20777,0.0016355758998543024,-0.038738999515771866,0.9773505926132202,-3.648515224456787,-5.34807825088501,-0.7783841490745544,1.903857946395874,4.004919528961182,0.29012298583984375,-0.3828737437725067,0.15675410628318787,2.212388515472412
85,20790,20787,-0.010648343712091446,-0.027881287038326263,0.9677754640579224,-2.660717487335205,-5.019158840179443,-0.5043362975120544,1.9037271738052368,4.0056538581848145,0.29141464829444885,-0.36940738558769226,0.06875757873058319,2.197965145111084
86,20800,20797,0.009822708554565907,-0.012863656505942345,1.0017170906066895,-2.9208950996398926,-3.696504592895508,-0.10130449384450912,1.9026542901992798,4.004600524902344,0.2919601500034332,-0.3443371653556824,0.09207312017679214,2.2001242637634277
87,20810,20807,0.05834958329796791,-0.05299973860383034,0.9673895239830017,-3.4275012016296387,-4.056478977203369,-0.20552600920200348,1.9027693271636963,4.005422115325928,0.2925305664539337,-0.3824867606163025,-0.0018854312365874648,2.1894338130950928
88,20820,20817,0.009066404774785042,-0.12499110400676727,1.0361411571502686,-3.951674461364746,-2.5183022022247314,0.6218746900558472,1.9021164178848267,4.004075050354004,0.2900215685367584,-0.4098917245864868,0.05942375585436821,2.195838212966919
89,20830,20827,-0.002739681862294674,-0.2222183644771576,1.0945638418197632,-4.286479949951172,-2.1314055919647217,-0.08470030874013901,1.9024120569229126,4.00557279586792,0.29034602642059326,-0.35574641823768616,0.026774955913424492,2.2009828090667725
90,20840,20837,0.001432150835171342,-0.23339493572711945,1.0427159070968628,-5.036347389221191,2.518200397491455,-0.30018967390060425,1.9008978605270386,4.0045671463012695,0.2906980812549591,-0.300051212310791,-0.08771664649248123,2.1977601051330566
91,20850,20847,0.04921354725956917,-0.07610315829515457,0.9722763299942017,-4.437668323516846,10.083606719970703,-0.3075556755065918,1.901479959487915,4.0041728019714355,0.29170483350753784,-0.32742777466773987,-0.12652382254600525,2.198404312133789
92,20860,20857,0.008458190597593784,0.06142217293381691,1.0227330923080444,-4.3294196128845215,13.87183666229248,-0.6206737756729126,1.9015978574752808,4.004340648651123,0.2921482026576996,-0.4754572808742523,-0.16059792041778564,2.1958248615264893
93,20870,20867,0.12420289218425751,-0.0072950562462210655,0.9070879220962524,-5.034991264343262,18.915130615234375,-0.3536262512207031,1.9013521671295166,4.004706382751465,0.29264867305755615,-0.6064807176589966,-0.340536892414093,2.1800954341888428
94,20880,20877,0.13188141584396362,-0.0005505217704921961,0.9356275200843811,-3.3090269565582275,16.00566864013672,-0.30827268958091736,1.901153564453125,4.004342079162598,0.2931259274482727,-0.8130517601966858,-0.36383378505706787,2.1790966987609863
95,20890,20887,0.08282269537448883,-0.07578561455011368,0.9479868412017822,-1.10041344165802,11.89069652557373,-0.15983963012695312,1.9022451639175415,4.004493713378906,0.2949927747249603,-1.0717986822128296,-0.4453272819519043,2.1750190258026123
96,20900,20897,0.013591822236776352,-0.015453136526048183,1.0085127353668213,1.00303316116333,6.93817663192749,-0.27210885286331177,1.9014205932617188,4.005404949188232,0.2955244481563568,-1.1052335500717163,-0.48985880613327026,2.1659770011901855
97,20910,20907,0.0024533895775675774,-0.03847872093319893,1.0239242315292358,2.845602512359619,2.1773505210876465,0.12126212567090988,1.9009087085723877,4.005222797393799,0.2959633469581604,-1.1387954950332642,-0.49262917041778564,2.1610169410705566
98,20920,20917,-0.01272837445139885,0.08216239511966705,1.0488983392715454,4.941985130310059,-1.8203368186950684,0.36491674184799194,1.901291012763977,4.004788875579834,0.29220855236053467,-1.1620306968688965,-0.4548516273498535,2.163853645324707
99,20930,20927,0.013803609646856785,-0.032786209136247635,0.9833430647850037,6.0737385749816895,-3.03043794631958,0.55740886926651,1.9007965326309204,4.004321098327637,0.2924222946166992,-1.1224361658096313,-0.3892259895801544,2.1678597927093506
100,20940,20937,0.01819566637277603,-0.02238890528678894,0.9968652129173279,4.315992832183838,-2.1004769802093506,0.20532985031604767,1.9012964963912964,4.003326416015625,0.2925899624824524,-1.1343613862991333,-0.3071770966053009,2.1785099506378174
101,20950,20947,-0.0005039326497353613,0.028899967670440674,0.9784619808197021,1.161577820777893,2.475454330444336,-0.41368910670280457,1.9009929895401,4.0031843185424805,0.2921828031539917,-1.0803730487823486,-0.25407955050468445,2.1797120571136475
102,20960,20957,-0.057649243623018265,0.0988888144493103,1.031130075454712,-1.6774227619171143,4.295654296875,0.22398096323013306,1.9021109342575073,4.003922939300537,0.29227718710899353,-1.1590609550476074,-0.24538280069828033,2.1821694374084473
103,20970,20967,0.008207239210605621,-0.03142467886209488,0.9789567589759827,-1.9357202053070068,6.885009765625,-0.2337648570537567,1.902382254600525,4.003341197967529,0.2923823893070221,-1.331095576286316,-0.2998088002204895,2.1840949058532715
104,20980,20977,0.04718504473567009,-0.014843768440186977,0.9819109439849854,-2.381948947906494,9.00966739654541,-0.1264335960149765,1.9018323421478271,4.004484176635742,0.2925880253314972,-1.3480418920516968,-0.19765084981918335,2.195042371749878
105,20990,20987,0.07850471884012222,-0.08003723621368408,0.9943295121192932,-1.9631184339523315,5.324280261993408,0.10529055446386337,1.9021964073181152,4.003759860992432,0.2945307195186615,-1.4475029706954956,-0.2641099691390991,2.191922187805176
106,21000,20997,0.035901568830013275,-0.13588595390319824,1.0280424356460571,-3.103496551513672,3.310718059539795,0.43180546164512634,1.9023029804229736,4.003905773162842,0.2947577238082886,-1.4357448816299438,-0.29831117391586304,2.185177803039551
107,21010,21007,-0.024418240413069725,-0.16864797472953796,1.0917232036590576,-1.4032232761383057,-0.15749219059944153,0.4178641140460968,1.9026219844818115,4.004057884216309,0.29497355222702026,-1.4531147480010986,-0.3599076569080353,2.179509162902832
108,21020,21017,-0.02434057556092739,-0.24588580429553986,1.0693151950836182,1.1161829233169556,-2.1062233448028564,0.27836665511131287,1.9014095067977905,4.002448558807373,0.29372549057006836,-1.4098845720291138,-0.3955971300601959,2.1771790981292725
109,21030,21027,0.0013281843857839704,-0.14603875577449799,1.0322049856185913,4.477107524871826,-1.4103163480758667,0.8571008443832397,1.9020260572433472,4.003449440002441,0.29393452405929565,-1.4719666242599487,-0.38779956102371216,2.188225269317627
110,21040,21037,-0.010245338082313538,0.03827602416276932,1.0489501953125,6.225873947143555,-1.4747487306594849,0.6814193725585938,1.9014272689819336,4.00363302230835,0.29429227113723755,-1.3866292238235474,-0.3246435225009918,2.194993734359741
111,21050,21047,0.08021056652069092,0.01287048775702715,0.9873663783073425,5.690402030944824,-1.8519145250320435,0.6622194647789001,1.9024854898452759,4.004063606262207,0.2960629463195801,-1.4007292985916138,-0.23593133687973022,2.210007667541504
112,21060,21057,0.08973240107297897,-0.05204719677567482,1.0304951667785645,3.5289766788482666,-2.2623062133789062,0.8054841756820679,1.902771234512329,4.004628658294678,0.29654213786125183,-1.3436821699142456,-0.1602606475353241,2.2162327766418457
113,21070,21067,0.00014618702698498964,0.04284724220633507,0.9737821221351624,1.3894354104995728,-2.3498103618621826,0.8644775152206421,1.901892900466919,4.003711223602295,0.2970791161060333,-1.2753676176071167,-0.1151767298579216,2.2183802127838135
114,21080,21077,-0.030344944447278976,0.057070739567279816,1.04372239112854,-1.4936825037002563,-1.1803570985794067,0.5712487101554871,1.9026933908462524,4.004431247711182,0.29748931527137756,-1.3495596647262573,-0.10727857053279877,2.2281124591827393
115,21090,21087,0.056834761053323746,-0.044925421476364136,0.936255156993866,-1.9165973663330078,0.005344779696315527,0.5647515654563904,1.901373267173767,4.00351095199585,0.29880908131599426,-1.296743392944336,-0.1418055146932602,2.2288706302642822
116,21100,21097,0.05559533089399338,-0.0643995925784111,0.9757618308067322,-2.1505982875823975,0.23946945369243622,0.9246644377708435,1.9019147157669067,4.0039167404174805,0.29935333132743835,-1.267935872077942,-0.1892901510000229,2.224060297012329
117,21110,21107,0.038191840052604675,-0.13679185509681702,1.0304127931594849,-1.6582505702972412,-0.4090349078178406,1.1447687149047852,1.9043159484863281,4.003872394561768,0.2996600270271301,-1.5316041707992554,-0.16450099647045135,2.2587006092071533
118,21120,21117,0.006886598654091358,-0.1544908732175827,1.040010929107666,-0.07331657409667969,-1.5277355909347534,1.1642556190490723,1.9023823738098145,4.001278877258301,0.3004402220249176,-1.4360384941101074,-0.13274584710597992,2.275871515274048
119,21130,21127,-0.0023818612098693848,-0.10319889336824417,1.0338162183761597,0.8568934798240662,-3.7974016666412354,1.1951254606246948,1.902396321296692,4.000399589538574,0.30102095007896423,-1.3982983827590942,-0.15481632947921753,2.2837467193603516
120,21140,21137,0.003133316058665514,0.017854979261755943,0.9987152814865112,1.4914582967758179,-4.783689975738525,0.9153636693954468,1.90229332447052,3.998905897140503,0.30154818296432495,-1.410151720046997,-0.1570402979850769,2.2954375743865967
121,21150,21147,0.10060673207044601,0.020863622426986694,0.9143354892730713,1.695136308670044,-5.7279839515686035,1.0188748836517334,1.9040971994400024,3.998605728149414,0.3012664318084717,-1.488175868988037,-0.14772771298885345,2.30937123298645
122,21160,21157,0.01786217838525772,0.00973684061318636,1.0081883668899536,0.9982410669326782,-7.096989154815674,1.3932186365127563,1.9034029245376587,3.99749755859375,0.3019101917743683,-1.3074809312820435,-0.13257724046707153,2.3109941482543945
123,21170,21167,0.09169784933328629,-0.09102964401245117,1.0036981105804443,0.4915611743927002,-9.095499992370605,1.6897743940353394,1.9046180248260498,3.997697114944458,0.30235755443573,-1.2725261449813843,-0.13091330230236053,2.3228273391723633
124,21180,21177,0.09252216666936874,-0.17545431852340698,0.9811762571334839,-0.4463680684566498,-10.528016090393066,1.6114068031311035,1.9054499864578247,3.9987266063690186,0.30284687876701355,-1.2023775577545166,-0.21259236335754395,2.3241920471191406
125,21190,21187,-0.048053156584501266,0.024075346067547798,1.0454181432724,-0.047490764409303665,-10.841206550598145,1.81728994846344,1.9060297012329102,3.998783588409424,0.3005465567111969,-1.0930403470993042,-0.14377909898757935,2.350888967514038
126,21200,21197,-0.0046572391875088215,-0.04054536670446396,0.942444920539856,1.6419622898101807,-8.788615226745605,1.7779468297958374,1.9064218997955322,4.000096797943115,0.30090460181236267,-0.9716900587081909,-0.23052704334259033,2.35459303855896
127,21210,21207,0.06820442527532578,-0.1357513964176178,0.9582786560058594,2.877701759338379,-7.189530372619629,2.1371006965637207,1.9080430269241333,3.9996538162231445,0.30122074484825134,-0.8851709365844727,-0.20936870574951172,2.374974489212036
128,21220,21217,0.07072910666465759,-0.22586505115032196,0.9958232045173645,2.8059096336364746,-5.035518646240234,2.088082790374756,1.9089449644088745,3.9984145164489746,0.3023473024368286,-0.8109394311904907,-0.09037023782730103,2.4131875038146973
129,21230,21227,0.004783135373145342,-0.17933553457260132,1.050240397453308,2.7122561931610107,-3.4508845806121826,1.6826038360595703,1.9093292951583862,3.998016357421875,0.302674263715744,-0.66999351978302,-0.048568904399871826,2.435685634613037
130,21240,21237,0.019603312015533447,-0.07050879299640656,0.9777459502220154,1.3972851037979126,-1.4251010417938232,1.3113301992416382,1.9106217622756958,3.9981489181518555,0.3029666244983673,-0.6634340882301331,-0.08951755613088608,2.4494831562042236
131,21250,21247,-0.009319351054728031,-0.01679360680282116,0.9852903485298157,-0.5140991806983948,-0.8027569651603699,1.219204068183899,1.9122421741485596,3.9982266426086426,0.30314743518829346,-0.6974748969078064,-0.06769130378961563,2.46706223487854
132,21260,21257,0.0027695063035935163,0.08882921189069748,0.9921117424964905,-1.3526169061660767,-1.5745223760604858,1.4922586679458618,1.9147601127624512,3.9984054565429688,0.3033515214920044,-0.8167149424552917,-0.07341039180755615,2.4811904430389404
133,21270,21267,0.019672229886054993,0.07261612266302109,0.964180588722229,-1.7274839878082275,-3.1441028118133545,1.8133442401885986,1.9148168563842773,3.99847674369812,0.3037881851196289,-0.6883748769760132,-0.09783531725406647,2.4899308681488037
134,21280,21277,0.04154917970299721,0.0789518728852272,0.9766448140144348,-1.2588744163513184,-5.399156093597412,1.5743423700332642,1.9144541025161743,3.9991507530212402,0.30810701847076416,-0.5280095338821411,-0.12724606692790985,2.503985643386841
135,21290,21287,-0.0107119707390666,0.03903214633464813,1.0225944519042969,-0.4130340814590454,-8.12641429901123,1.6504878997802734,1.9151471853256226,3.9988272190093994,0.30865684151649475,-0.42405781149864197,-0.1478012353181839,2.518242597579956
136,21300,21297,-0.10841342806816101,0.031243719160556793,0.9854087829589844,0.7604731321334839,-7.975179195404053,1.9074013233184814,1.9165103435516357,4.000147819519043,0.3091236650943756,-0.41571542620658875,-0.15047593414783478,2.537912368774414
137,21310,21307,-0.04864427447319031,0.044905293732881546,1.0207290649414062,0.43889474868774414,-5.015285491943359,1.5926060676574707,1.9176685810089111,4.0010223388671875,0.30954429507255554,-0.4034874439239502,-0.2128627747297287,2.5534791946411133
138,21320,21317,0.0131717249751091,-0.003594975220039487,0.9531585574150085,1.4256166219711304,-3.9768216609954834,1.8659013509750366,1.9177474975585938,4.0005693435668945,0.308186411857605,-0.2739435136318207,-0.11300395429134369,2.5739293098449707
139,21330,21327,0.02668534778058529,-0.0798419937491417,0.9459320902824402,2.1627559661865234,-2.249826669692993,1.970820665359497,1.9189343452453613,4.0,0.30850115418434143,-0.3391115069389343,-0.09164062887430191,2.595315933227539
140,21340,21337,0.00018923587049357593,-0.011335468851029873,0.9606582522392273,1.251886010169983,-2.201201915740967,1.6919310092926025,1.9198083877563477,3.999462127685547,0.3088970482349396,-0.2597641348838806,0.0189267098903656,2.6162917613983154
141,21350,21347,-0.047429732978343964,0.15733702480793,1.0001651048660278,0.20964764058589935,-2.409619092941284,1.1092803478240967,1.9189051389694214,4.000397682189941,0.3085126280784607,-0.12747907638549805,-0.04380229115486145,2.6268675327301025
142,21360,21357,-0.0045605734921991825,0.10116617381572723,0.9140370488166809,-1.9530446529388428,-2.1701912879943848,1.3743069171905518,1.921408772468567,4.000466823577881,0.30873486399650574,-0.18008051812648773,0.028250260278582573,2.637756586074829
143,21370,21367,-0.010420825332403183,0.02054791897535324,0.9847382307052612,-2.086583137512207,-1.755824089050293,0.8709645867347717,1.9226869344711304,4.000446796417236,0.30888956785202026,-0.20700472593307495,-0.01267215795814991,2.648604393005371
144,21380,21377,0.03280580788850784,-0.11330819875001907,1.0161466598510742,-2.991128921508789,-1.6336112022399902,0.843044102191925,1.9231042861938477,4.000999927520752,0.31074726581573486,-0.15897926688194275,-0.14121021330356598,2.6616671085357666
145,21390,21387,0.014282903634011745,-0.07096747308969498,0.9796760082244873,-2.426067352294922,-4.37233304977417,1.4812418222427368,1.9242445230484009,4.000633239746094,0.3109675645828247,-0.1891936957836151,-0.19204109907150269,2.6733007431030273
146,21400,21397,0.055295180529356,-0.25430724024772644,1.0063810348510742,-1.0112320184707642,-2.3926613330841064,0.619666576385498,1.9242440462112427,4.000895023345947,0.31134575605392456,-0.015028076246380806,-0.2254171222448349,2.6809170246124268
147,21410,21407,0.02625327557325363,-0.14483126997947693,0.9794298410415649,2.34942889213562,-2.205655813217163,0.5003355145454407,1.9257404804229736,3.9997406005859375,0.3116459548473358,-0.018551724031567574,-0.15400376915931702,2.6896793842315674
148,21420,21417,-0.06628874689340591,-0.0673995167016983,0.99588543176651,2.8909714221954346,-0.07344997674226761,0.7402651309967041,1.9255162477493286,3.9995949268341064,0.311032772064209,0.1135900542140007,-0.12376696616411209,2.6918487548828125
149,21430,21427,-0.13093777000904083,0.11653055995702744,1.0103399753570557,2.9051694869995117,2.851560115814209,0.8959932327270508,1.9270501136779785,3.998995065689087,0.3111913800239563,0.04880185052752495,-0.07927312701940536,2.699375629425049
150,21440,21437,0.00673117907717824,-0.10308174788951874,0.9593421220779419,1.4156979322433472,5.026427745819092,1.2980440855026245,1.927457332611084,3.997941017150879,0.31147652864456177,0.08740457147359848,-0.036240506917238235,2.7004621028900146
151,21450,21447,-0.011854689568281174,-0.031782474368810654,1.0115269422531128,-0.1345592737197876,4.74482536315918,1.1236751079559326,1.9293193817138672,3.997978925704956,0.3120824694633484,-0.06868205964565277,-0.020611578598618507,2.7159061431884766
152,21460,21457,-0.028814086690545082,-0.11367456614971161,0.995428740978241,-1.3570592403411865,3.3288447856903076,0.3812224268913269,1.9304057359695435,3.997730255126953,0.31227099895477295,-0.0988946259021759,-0.022597284987568855,2.726632833480835
153,21470,21467,-0.06150110438466072,0.008776555769145489,1.0009403228759766,-2.926525354385376,1.8801708221435547,-0.03139771893620491,1.9309477806091309,3.9975080490112305,0.31248781085014343,-0.10367530584335327,-0.04032772406935692,2.733508586883545
154,21480,21477,-0.02063688263297081,0.04577416554093361,1.012130856513977,-3.622225522994995,0.2312551885843277,-0.14376486837863922,1.9330683946609497,3.9968764781951904,0.31033438444137573,-0.17243081331253052,-0.010024075396358967,2.7331466674804688
155,21490,21487,-0.01656620390713215,-0.039640989154577255,1.0240046977996826,-2.9906198978424072,-1.7334359884262085,0.26205986738204956,1.9337434768676758,3.9972424507141113,0.3104012608528137,-0.1456650346517563,-0.07938481867313385,2.736366033554077
156,21500,21497,-0.05498630926012993,-0.03338449448347092,1.0024070739746094,-1.5890370607376099,-2.7917089462280273,0.6876794099807739,1.9342436790466309,3.9971914291381836,0.3106100857257843,-0.014301094226539135,-0.06429082900285721,2.733725070953369
157,21510,21507,-0.0774153396487236,0.08711229264736176,0.9839794635772705,-0.2511824667453766,-3.2565362453460693,0.8228166103363037,1.9353615045547485,3.9979426860809326,0.31076985597610474,0.04512207210063934,-0.16608232259750366,2.7432098388671875
158,21520,21517,0.013046075589954853,-0.005159817636013031,0.9670348167419434,0.972792387008667,-2.104750156402588,0.889958381652832,1.9365719556808472,3.997023105621338,0.30874884128570557,-0.04173533245921135,-0.09663522988557816,2.7480251789093018
159,21530,21527,-0.0132408132776618,0.014549232088029385,1.0117688179016113,0.33909541368484497,3.1597046852111816,0.39893674850463867,1.935662031173706,3.997112989425659,0.3088236451148987,0.16206961870193481,-0.08981397747993469,2.748145341873169
160,21540,21537,0.01600808836519718,0.0038102625403553247,0.9543554186820984,1.67438805103302,2.144338846206665,0.945236325263977,1.9383265972137451,3.9980876445770264,0.3087017834186554,-0.0860331729054451,-0.1565597653388977,2.7638113498687744
161,21550,21547,-0.06694330275058746,0.10921570658683777,1.0228124856948853,1.792560338973999,2.863525152206421,0.9070783853530884,1.9380626678466797,3.998692274093628,0.3109040856361389,-0.0010991565650328994,-0.12771646678447723,2.784301996231079
162,21560,21557,-0.060285136103630066,0.07757020741701126,0.99663245677948,0.2634362578392029,4.432692527770996,1.1502171754837036,1.9394971132278442,3.9989070892333984,0.3109639286994934,-0.03799763694405556,-0.10416018962860107,2.793055295944214
163,21570,21567,0.010933290235698223,-0.03346162289381027,0.9978099465370178,-0.5002027750015259,2.211442708969116,1.1124684810638428,1.9398616552352905,3.999326467514038,0.31109294295310974,-0.01734650880098343,-0.10084572434425354,2.8019649982452393
164,21580,21577,-0.0007050760905258358,-0.018130555748939514,1.029263973236084,-0.4582996666431427,8.903257369995117,1.254530906677246,1.941645860671997,3.997736692428589,0.313184916973114,-0.1435530036687851,-0.03414122760295868,2.800928831100464
165,21590,21587,0.08937335759401321,0.0002511553466320038,1.0205029249191284,-0.14938926696777344,1.1294704675674438,1.4824365377426147,1.941629409790039,3.9980359077453613,0.3134737014770508,-0.1801098734140396,-0.06208668276667595,2.814816951751709
166,21600,21597,0.00632477505132556,-0.020230920985341072,1.0182609558105469,-0.4902241826057434,-2.657132148742676,1.7941474914550781,1.9416249990463257,3.9975175857543945,0.31379422545433044,-0.09940432012081146,-0.0715586319565773,2.8285000324249268
167,21610,21607,-0.039856918156147,0.03533080965280533,1.018052577972412,-0.35785022377967834,-4.172536849975586,2.2638118267059326,1.9426214694976807,3.9973807334899902,0.31229373812675476,-0.1181461364030838,-0.08331239223480225,2.8489317893981934
168,21620,21617,0.021804776042699814,0.0837169736623764,0.9684162139892578,-0.35532742738723755,-3.8827407360076904,2.4844861030578613,1.9433822631835938,3.9974660873413086,0.312407523393631,-0.1228351965546608,-0.0938527062535286,2.8719542026519775
169,21630,21627,0.05347364395856857,0.023197997361421585,1.0130425691604614,-0.43930160999298096,-3.0482189655303955,2.4179470539093018,1.9428457021713257,3.998584747314453,0.3126319944858551,0.012225141748785973,-0.18847167491912842,2.9086897373199463
170,21640,21637,0.09312079101800919,-0.11224726587533951,0.968331515789032,-0.19081427156925201,-2.0978732109069824,1.8232479095458984,1.9435144662857056,3.9978187084198,0.31278616189956665,0.047377314418554306,-0.11485764384269714,2.9198246002197266
171,21650,21647,-0.007862599566578865,0.01631372980773449,1.0610195398330688,0.9918521642684937,-0.4497404396533966,1.7934892177581787,1.9464772939682007,3.997084379196167,0.3153492510318756,-0.15884622931480408,-0.1201736107468605,2.9410576820373535
172,21660,21657,0.04764050990343094,-0.05603454262018204,0.9690250158309937,0.968366801738739,1.654893398284912,1.804992914199829,1.9467111825942993,3.9961655139923096,0.3156370222568512,-0.13424275815486908,-0.10617407411336899,2.9540481567382812
173,21670,21667,0.08642270416021347,-0.0986737385392189,0.984422504901886,-0.17870986461639404,2.191445827484131,2.2811999320983887,1.9465800523757935,3.9959967136383057,0.3160306513309479,-0.06212357431650162,-0.09593373537063599,2.9691836833953857
174,21680,21677,0.04563979431986809,-0.1350279599428177,1.0587232112884521,0.5335109233856201,-1.044803500175476,1.9094973802566528,1.946042776107788,3.9960947036743164,0.31875982880592346,0.01349431462585926,-0.10052323341369629,3.0018508434295654
175,21690,21687,0.03360229730606079,-0.20762474834918976,1.0234332084655762,-0.977342963218689,1.0250524282455444,1.31719970703125,1.9455853700637817,3.9958512783050537,0.31927743554115295,0.131889209151268,-0.09139684587717056,3.0210983753204346
176,21700,21697,0.006505162455141544,-0.08379168063402176,0.999400794506073,-1.2144964933395386,2.8817970752716064,1.6358693838119507,1.9472285509109497,3.995553970336914,0.3197397291660309,0.028441108763217926,-0.10529224574565887,3.0359396934509277
177,21710,21707,-0.0013611097820103168,0.014844837598502636,0.9560147523880005,-1.243065357208252,4.522096633911133,1.2180737257003784,1.9482121467590332,3.9955263137817383,0.3177414536476135,-0.023231733590364456,-0.11645963788032532,3.050743341445923
178,21720,21717,-0.06485976278781891,0.03778039664030075,1.004066824913025,-0.38529157638549805,2.039051055908203,1.239878535270691,1.9492619037628174,3.995914936065674,0.31807926297187805,-0.0935516357421875,-0.13340218365192413,3.0622220039367676
179,21730,21727,-0.10121147334575653,-0.05753789842128754,1.0784599781036377,-0.5106350779533386,2.3065102100372314,1.0264755487442017,1.94945228099823,3.9953551292419434,0.31847110390663147,-0.04062815010547638,-0.14461782574653625,3.065439462661743
180,21740,21737,-0.09837669134140015,-0.05571393668651581,1.1095341444015503,-0.3320024013519287,4.653227806091309,0.9753977060317993,1.950007677078247,3.9956278800964355,0.3188987076282501,-0.08111681789159775,-0.15008914470672607,3.0805246829986572
181,21750,21747,-0.05220671370625496,-0.0013228781754150987,1.052029013633728,0.43634048104286194,3.0778300762176514,1.3153717517852783,1.9510332345962524,3.9962921142578125,0.3194699287414551,-0.07992193847894669,-0.15189766883850098,3.103938341140747
182,21760,21757,0.039666980504989624,-0.08514080196619034,0.9710102081298828,0.9604689478874207,4.115442276000977,0.7738851308822632,1.951904296875,3.99619460105896,0.32003724575042725,-0.1501235067844391,-0.1446157693862915,3.1040971279144287
183,21770,21767,0.027216050773859024,-0.02375091426074505,0.9867900013923645,0.18019069731235504,6.383700847625732,0.29704904556274414,1.952368140220642,3.9964704513549805,0.32067346572875977,-0.15042844414710999,-0.13108158111572266,3.1170105934143066
184,21780,21777,0.005968144163489342,0.007301462348550558,0.9659388065338135,0.9724624156951904,0.16181831061840057,0.03820217028260231,1.9543935060501099,3.9964377880096436,0.32164084911346436,-0.3308334946632385,-0.1268533617258072,3.12188458442688
185,21790,21787,-0.05462007597088814,0.129755437374115,0.9994726777076721,-0.6986332535743713,1.2068474292755127,-0.014790304936468601,1.9552985429763794,3.996464967727661,0.32217949628829956,-0.4162680208683014,-0.11632997542619705,3.123812675476074
186,21800,21797,-0.012303804978728294,0.018598048016428947,0.9633582830429077,-0.7137163281440735,-0.32031625509262085,0.13238981366157532,1.955514669418335,3.995849609375,0.3228081166744232,-0.3358898460865021,-0.1267169713973999,3.1131246089935303
187,21810,21807,0.03907415643334389,-0.038937490433454514,0.9321317076683044,-0.8582223057746887,-2.5369014739990234,-0.8296292424201965,1.955135703086853,3.9960100650787354,0.32221975922584534,-0.23829354345798492,-0.13633236289024353,3.1042706966400146
188,21820,21817,-0.15374071896076202,0.05919130891561508,0.9802603721618652,-1.7437094449996948,-1.0885236263275146,0.1456342488527298,1.9558966159820557,3.9949285984039307,0.32266440987586975,-0.1709151715040207,0.014980815351009369,3.1084530353546143
189,21830,21827,-0.025530077517032623,0.037352416664361954,0.9566678404808044,-1.9827358722686768,-1.9892061948776245,-0.4526729881763458,1.9557716846466064,3.9959118366241455,0.3230532705783844,-0.13727951049804688,-0.1002611517906189,3.117784261703491
190,21840,21837,-0.0006818517576903105,0.049097947776317596,0.9488949775695801,-1.7768902778625488,0.20651385188102722,-0.5669223666191101,1.956671118736267,3.9964964389801025,0.323371946811676,-0.19022482633590698,-0.1364319920539856,3.115828514099121
191,21850,21847,-0.016064617782831192,0.02652045711874962,0.9561856389045715,-0.9900726675987244,0.6755273342132568,-0.6409944295883179,1.9574086666107178,3.9962594509124756,0.3217017352581024,-0.1932666152715683,-0.16916035115718842,3.111825704574585
192,21860,21857,0.03782004863023758,-0.07947744429111481,0.9436145424842834,-1.3977335691452026,2.815016031265259,-0.8747931718826294,1.958248257637024,3.997791290283203,0.32180365920066833,-0.21019966900348663,-0.26918163895606995,3.0992350578308105
193,21870,21867,0.029572203755378723,-0.09153056144714355,0.953330934047699,0.016214706003665924,3.755629539489746,-0.6858431696891785,1.9585119485855103,3.9977285861968994,0.32192376255989075,-0.1785673350095749,-0.2865022122859955,3.0989832878112793
194,21880,21877,-0.006293996702879667,0.040405116975307465,0.9832403659820557,1.170295000076294,3.761669158935547,-0.9907799363136292,1.9600461721420288,3.996734380722046,0.3222472369670868,-0.3238033354282379,-0.28115200996398926,3.080434560775757
195,21890,21887,-0.05716940015554428,0.09450263530015945,1.002453088760376,1.298566222190857,3.295717477798462,-1.422495722770691,1.9611055850982666,3.9966208934783936,0.3222678005695343,-0.3592011034488678,-0.2478063702583313,3.0703725814819336
196,21900,21897,-0.09310546517372131,0.15149304270744324,0.9733208417892456,1.6907274723052979,0.9772085547447205,-0.4319753646850586,1.9623111486434937,3.99654483795166,0.32227128744125366,-0.38591068983078003,-0.21043512225151062,3.058846950531006
197,21910,21907,0.01569007709622383,-0.035724855959415436,0.924220860004425,3.0564098358154297,-1.031464695930481,-0.968569815158844,1.962822437286377,3.996962785720825,0.32147645950317383,-0.3792239725589752,-0.24532730877399445,3.0545175075531006
198,21920,21917,0.0019404013874009252,-0.02286072075366974,0.9793516397476196,3.513166666030884,-2.1924571990966797,-0.8328419327735901,1.9626291990280151,3.996581554412842,0.32150188088417053,-0.26413485407829285,-0.1760806292295456,3.041944742202759
199,21930,21927,-0.01648479700088501,0.1002805233001709,0.9861415028572083,2.793417453765869,-3.0672242641448975,-0.40921175479888916,1.9631502628326416,3.9965600967407227,0.3213963806629181,-0.22751060128211975,-0.10891097784042358,3.044342517852783
200,21940,21937,-0.020121542736887932,0.02705293893814087,0.9604977965354919,1.421417474746704,-0.8967525959014893,-0.3035464584827423,1.96461021900177,3.9970297813415527,0.32043930888175964,-0.25722503662109375,-0.05679049342870712,3.038130760192871
201,21950,21947,0.044039513915777206,-0.09337445348501205,0.9286513328552246,0.8733982443809509,0.5752128958702087,-0.8630190491676331,1.9650129079818726,3.9974374771118164,0.3202049136161804,-0.23255133628845215,-0.03346169367432594,3.051520347595215
202,21960,21957,0.08112607151269913,-0.0930197685956955,1.007712483406067,-0.10953901708126068,1.6016277074813843,-0.6871490478515625,1.9671586751937866,3.9985954761505127,0.3198321461677551,-0.40240761637687683,-0.10215318202972412,3.0336413383483887
203,21970,21967,0.0725460946559906,-0.1250806599855423,1.0449488162994385,-0.5354746580123901,2.591273546218872,-1.4494527578353882,1.9671480655670166,3.9984512329101562,0.31965553760528564,-0.32022908329963684,-0.09877283126115799,3.0472617149353027
204,21980,21977,0.01639680191874504,-0.01024466473609209,0.9484243392944336,-0.40620800852775574,0.8482173085212708,-1.050687313079834,1.9676896333694458,3.998873710632324,0.32305094599723816,-0.34255659580230713,-0.09872416406869888,3.049023151397705
205,21990,21987,-0.09808991849422455,-0.00955167505890131,1.0577534437179565,0.4507714807987213,-0.6652568578720093,-0.9180170297622681,1.9691320657730103,3.99920654296875,0.32295510172843933,-0.3779081702232361,-0.09704229980707169,3.0403642654418945
206,22000,21997,-0.015222118236124516,-0.06637650728225708,1.0334051847457886,0.9273883104324341,-0.13161998987197876,-0.8785075545310974,1.9704930782318115,3.9997496604919434,0.3228667974472046,-0.4295332729816437,-0.0842810571193695,3.045952558517456
207,22010,22007,0.04160682484507561,-0.0366998165845871,0.9575044512748718,1.676893711090088,-2.4000439643859863,-1.1365492343902588,1.9711037874221802,4.000895023345947,0.3208695352077484,-0.38919657468795776,-0.1362987756729126,3.0339889526367188
208,22020,22017,-0.024989057332277298,0.08277400583028793,1.049566388130188,2.7242300510406494,-3.218782424926758,-0.5174046158790588,1.9724805355072021,3.9999396800994873,0.3207394480705261,-0.3939005732536316,-0.0922871083021164,3.030388832092285
209,22030,22027,-0.06953120231628418,-0.04503598064184189,1.0140761137008667,4.855437755584717,-6.1974873542785645,-0.49816375970840454,1.9718726873397827,3.9994773864746094,0.3208088278770447,-0.19938728213310242,-0.03206965699791908,3.0132288932800293
210,22040,22037,-0.12907369434833527,0.09309072047472,1.0109879970550537,3.340785503387451,-3.7966761589050293,-0.3543653190135956,1.972891926765442,4.0001983642578125,0.3197689354419708,-0.1285490244626999,-0.011770503595471382,3.015333414077759
211,22050,22047,-0.047892969101667404,0.11640547215938568,0.9446910619735718,0.9987679123878479,-0.9331547617912292,0.23632073402404785,1.974457025527954,3.999765157699585,0.31962427496910095,-0.1337454468011856,0.05294668301939964,3.0057239532470703
212,22060,22057,-0.02607160620391369,0.05452807992696762,1.0332611799240112,0.37071511149406433,1.7705081701278687,0.0282115675508976,1.9741108417510986,4.000467300415039,0.31955868005752563,-0.022092780098319054,0.0018763879779726267,2.9960310459136963
213,22070,22067,0.08467170596122742,-0.08817356079816818,0.9755998849868774,-1.4124877452850342,5.80929708480835,-0.21158111095428467,1.9749866724014282,4.000012397766113,0.31938910484313965,-0.035721201449632645,0.02381172776222229,3.004056930541992
214,22080,22077,0.06637018173933029,-0.0150375347584486,1.0103427171707153,-0.5712532997131348,3.279566764831543,-0.24999219179153442,1.9783084392547607,3.9999845027923584,0.3178947865962982,-0.34033143520355225,0.018922505900263786,2.9965975284576416
215,22090,22087,-0.012638039886951447,-0.07064559310674667,1.0137156248092651,0.25508376955986023,0.3918456435203552,-0.5166575312614441,1.9773796796798706,4.000761985778809,0.31783589720726013,-0.20348457992076874,0.02462618052959442,3.0041446685791016
216,22100,22097,0.06762779504060745,-0.06848412752151489,0.9235785603523254,0.6665117740631104,-0.9638631939888,-0.8996608853340149,1.9790196418762207,4.001368999481201,0.3174944519996643,-0.2774726450443268,0.04072127491235733,3.0115468502044678
217,22110,22107,-0.017723917961120605,0.001362908398732543,1.0146434307098389,1.3594101667404175,-2.9885008335113525,-0.6694241762161255,1.9787086248397827,4.001046657562256,0.31465283036231995,-0.1559610217809677,0.06602257490158081,2.9932079315185547
218,22120,22117,0.09213778376579285,-0.11446787416934967,0.9845103621482849,0.7858085632324219,-2.8905184268951416,-0.8070527911186218,1.979088306427002,4.002875804901123,0.31421682238578796,-0.10753408074378967,-0.06176302209496498,3.0054783821105957
219,22130,22127,0.03596537560224533,-0.1249801367521286,1.029873251914978,0.8803898096084595,-2.727468252182007,-0.9918286800384521,1.9803956747055054,4.002758502960205,0.313802570104599,-0.12203872948884964,-0.02696211263537407,3.0186777114868164
220,22140,22137,0.03583664447069168,-0.16425471007823944,0.9740723371505737,1.9093523025512695,-1.3408339023590088,-0.7082309722900391,1.982127070426941,4.004014015197754,0.31230223178863525,-0.22123029828071594,0.012906826101243496,3.0195183753967285
221,22150,22147,0.07560350000858307,-0.1235475242137909,0.9807820320129395,1.9351685047149658,-0.4831852614879608,-1.2034976482391357,1.982527256011963,4.003347396850586,0.31182533502578735,-0.15920215845108032,0.06825526058673859,3.0139222145080566
222,22160,22157,-0.012104375287890434,-0.022862328216433525,1.088546872138977,1.733896255493164,-2.105992078781128,-1.1620681285858154,1.9832639694213867,4.0037431716918945,0.3113415241241455,-0.11926648765802383,0.11435059458017349,3.0041465759277344
223,22170,22167,0.008127679117023945,-0.14156532287597656,1.0024213790893555,1.3044413328170776,-0.20914722979068756,-1.4048277139663696,1.9843363761901855,4.004817962646484,0.3098636269569397,-0.1351846307516098,0.07987762987613678,3.014730453491211
224,22180,22177,-0.015775149688124657,-0.014429496601223946,1.0388119220733643,0.8897676467895508,0.564987063407898,-1.5665583610534668,1.984330415725708,4.0053629875183105,0.30946552753448486,-0.03407738357782364,0.11613558232784271,3.0023982524871826
225,22190,22187,0.024151531979441643,-0.04526140168309212,1.0676295757293701,-0.335246741771698,0.41479113698005676,-0.8448501229286194,1.984715223312378,4.00532865524292,0.3089994788169861,-0.027094297111034393,0.14450374245643616,2.98171329498291
226,22200,22197,0.047331590205430984,-0.0665736049413681,1.0856635570526123,-0.0964919924736023,1.338037133216858,-1.314704418182373,1.9853819608688354,4.005384922027588,0.3085838258266449,-0.024407731369137764,0.1544099897146225,2.988184928894043
227,22210,22207,0.013683762401342392,0.02342401072382927,1.0252323150634766,-0.7192893028259277,1.8129963874816895,-1.4402599334716797,1.9872440099716187,4.006133079528809,0.30725160241127014,-0.12080851197242737,0.15890255570411682,2.9728541374206543
228,22220,22217,-0.04293418303132057,0.1269700527191162,1.1586270332336426,0.7598673701286316,-0.39642176032066345,-2.5390114784240723,1.9888838529586792,4.006979942321777,0.30683469772338867,-0.2005990594625473,0.1567944884300232,2.972576379776001
229,22230,22227,-0.07709786295890808,0.1015932485461235,1.0436159372329712,-1.0924383401870728,1.4254348278045654,-1.889221429824829,1.990152359008789,4.007786273956299,0.30649039149284363,-0.2603503465652466,0.0964922085404396,2.930936098098755
230,22240,22237,0.010391827672719955,-0.020724859088659286,1.0134650468826294,-0.7679742574691772,-0.6313758492469788,-2.1555140018463135,1.9912543296813965,4.007054805755615,0.305431991815567,-0.23657380044460297,0.09529490023851395,2.9103729724884033
231,22250,22247,0.02063879743218422,-0.04482157155871391,0.9787365794181824,0.09824927896261215,-0.6315616369247437,-2.6063053607940674,1.992864966392517,4.00656795501709,0.3051392436027527,-0.25756943225860596,0.09337691962718964,2.8825764656066895
232,22260,22257,-0.00325298635289073,0.006423458456993103,0.999884843826294,0.43000665307044983,-4.555080890655518,-1.8245794773101807,1.9943420886993408,4.007138252258301,0.3048563301563263,-0.2529010474681854,0.11159869283437729,2.8590309619903564
233,22270,22267,0.04152146726846695,-0.054555390030145645,0.9759561419487,1.072826862335205,-3.6144583225250244,-1.5505419969558716,1.9941545724868774,4.007011890411377,0.3033619821071625,-0.1482102870941162,0.1335912048816681,2.8490407466888428
234,22280,22277,0.038189180195331573,-0.12188258767127991,1.032070279121399,1.8402578830718994,-6.667594909667969,-1.4193319082260132,1.9954540729522705,4.007008075714111,0.30297645926475525,-0.10752509534358978,0.15830230712890625,2.8303844928741455
235,22290,22287,0.031154833734035492,-0.23258614540100098,1.1244890689849854,2.040462017059326,-9.823097229003906,-0.9490035772323608,1.9961631298065186,4.007772922515869,0.30264633893966675,0.008259912952780724,0.20104800164699554,2.8522653579711914
236,22300,22297,-0.006614293437451124,-0.1054907962679863,1.028123378753662,0.4962095022201538,-3.1366312503814697,-1.7497888803482056,1.9957714080810547,4.00806999206543,0.3024563789367676,0.18928325176239014,0.2424551099538803,2.8592896461486816
237,22310,22307,0.009740105830132961,-0.010419893078505993,0.977790892124176,-0.7634194493293762,0.04936998337507248,-1.995661735534668,1.9978893995285034,4.0089111328125,0.30273422598838806,0.08546984940767288,0.17431581020355225,2.838226318359375
238,22320,22317,0.03166099637746811,-0.12755395472049713,1.0689194202423096,-2.4022467136383057,1.996292233467102,-1.8273546695709229,1.999067783355713,4.0091352462768555,0.30248576402664185,0.028339574113488197,0.15812590718269348,2.824223756790161
239,22330,22327,0.06537766009569168,-0.255519300699234,1.049309492111206,-2.0200188159942627,3.8936216831207275,-1.7944304943084717,1.9986454248428345,4.009467124938965,0.302484929561615,0.13579604029655457,0.1247348040342331,2.7979040145874023
240,22340,22337,0.0748695507645607,0.005206897854804993,0.9831098914146423,-1.3904410600662231,4.604817867279053,-1.5482507944107056,1.997981071472168,4.00933313369751,0.3015754222869873,0.16695909202098846,0.1046067476272583,2.7967782020568848
241,22350,22347,0.08500745892524719,0.0067885941825807095,0.9731819033622742,-0.37324944138526917,2.1351027488708496,-1.4731225967407227,1.999322533607483,4.0085883140563965,0.30143681168556213,0.10932563245296478,0.18155105412006378,2.7778432369232178
242,22360,22357,0.05776708945631981,-0.1731269359588623,1.0232532024383545,-0.018660228699445724,1.1368170976638794,-1.0353869199752808,2.001383066177368,4.008617401123047,0.3011629581451416,-0.07307175546884537,0.17699064314365387,2.7594335079193115
243,22370,22367,0.04265931248664856,-0.12148425728082657,0.9931304454803467,0.29202699661254883,-2.582209348678589,-0.6729851961135864,2.0024399757385254,4.008330821990967,0.29960501194000244,-0.04676955193281174,0.17292791604995728,2.736811876296997
244,22380,22377,0.022223910316824913,-0.15819944441318512,1.0480914115905762,0.968133807182312,-2.154064416885376,-0.7754133939743042,2.0027616024017334,4.008368968963623,0.2994227409362793,0.045949313789606094,0.18605777621269226,2.716381072998047
245,22390,22387,0.07655921578407288,-0.06591566652059555,1.0083520412445068,-0.548891544342041,-2.6211726665496826,-1.2395248413085938,2.0045721530914307,4.007809638977051,0.2991334795951843,-0.058532778173685074,0.20145604014396667,2.704163074493408
246,22400,22397,0.11175025999546051,-0.12866292893886566,1.0042386054992676,-1.4277243614196777,-3.306022882461548,-1.299764633178711,2.0045430660247803,4.008079528808594,0.2991214394569397,0.08667539060115814,0.10442831367254257,2.680016040802002
247,22410,22407,0.04749205708503723,-0.16001328825950623,1.035282850265503,-1.6142078638076782,-3.8795583248138428,-1.199170470237732,2.0054771900177,4.008140563964844,0.29889827966690063,0.09559345990419388,0.08706682920455933,2.660892963409424
248,22420,22417,0.017144789919257164,-0.09413736313581467,1.0096698999404907,-0.21673758327960968,-3.4061927795410156,-1.3611801862716675,2.0068795680999756,4.008093357086182,0.2987414300441742,0.11544428765773773,0.07544266432523727,2.640727996826172
249,22430,22427,0.0778527706861496,-0.03194452449679375,1.0250312089920044,0.6686633229255676,-1.9920562505722046,-1.5692628622055054,2.007490634918213,4.008111000061035,0.29865124821662903,0.1090807169675827,0.0827701985836029,2.629793405532837
250,22440,22437,0.021154899150133133,0.0016416070284321904,1.0297173261642456,0.8006648421287537,-1.6392531394958496,-1.3905792236328125,2.0083446502685547,4.008090496063232,0.29652851819992065,0.10008639097213745,0.10423355549573898,2.6186256408691406
251,22450,22447,-0.04769296199083328,0.13352134823799133,1.08590567111969,0.8236669898033142,0.3312540650367737,-1.5980281829833984,2.0095973014831543,4.008100986480713,0.2964283525943756,0.1444634050130844,0.11750883609056473,2.5983548164367676
252,22460,22457,0.0071042366325855255,0.13181811571121216,1.090599775314331,1.5291470289230347,1.2155301570892334,-1.8202183246612549,2.011190414428711,4.009061336517334,0.2962776720523834,0.08488225936889648,0.06133197993040085,2.5850577354431152
253,22470,22467,0.04853314161300659,0.03604348003864288,1.0872280597686768,1.5866848230361938,0.2647872865200043,-1.8465429544448853,2.0113463401794434,4.008507251739502,0.29765796661376953,0.17280903458595276,0.0952732264995575,2.556330680847168
254,22480,22477,0.019004106521606445,-0.009332600049674511,1.0162914991378784,1.3929928541183472,-1.467566967010498,-0.9040834307670593,2.0119102001190186,4.008455753326416,0.2978210747241974,0.20748303830623627,0.1288376748561859,2.540116786956787
255,22490,22487,-0.026760296896100044,0.0004430965054780245,1.037455439567566,1.6690117120742798,-0.8035955429077148,-1.0928231477737427,2.0134339332580566,4.007796764373779,0.2979479134082794,0.1598735749721527,0.1625596135854721,2.5053064823150635
256,22500,22497,0.0036426971200853586,-0.05315938591957092,0.999305784702301,0.19199402630329132,-0.09466339647769928,-0.9844570755958557,2.014749050140381,4.007023811340332,0.3001821041107178,0.11875013262033463,0.1897442638874054,2.471062183380127
257,22510,22507,0.008278578519821167,-0.0062279049307107925,1.0295363664627075,0.3598381280899048,0.43197524547576904,-1.3486732244491577,2.0149075984954834,4.008073806762695,0.30063095688819885,0.22190476953983307,0.12061960995197296,2.476989507675171
258,22520,22517,0.03527624532580376,-0.051901236176490784,1.0409125089645386,-0.8176295757293701,0.7203766703605652,-1.3650293350219727,2.0178487300872803,4.007619857788086,0.30085429549217224,0.007629202678799629,0.12813229858875275,2.4384605884552
259,22530,22527,-0.03614980727434158,0.006562644150108099,1.081264853477478,-0.06683554500341415,0.2874699831008911,-1.35409414768219,2.019923448562622,4.0084686279296875,0.3010804057121277,-0.11591789871454239,0.05129268020391464,2.425151824951172
260,22540,22537,0.057439520955085754,-0.036277685314416885,0.9342632293701172,0.9042087197303772,1.542769432067871,-1.4180078506469727,2.0208652019500732,4.0085248947143555,0.30525994300842285,-0.041115328669548035,0.06274814903736115,2.4068148136138916
261,22550,22547,0.07808462530374527,-0.13527193665504456,0.9496058225631714,2.4976603984832764,-4.374165058135986,-0.3852272927761078,2.021089553833008,4.007317066192627,0.30602511763572693,0.04497314989566803,0.16437102854251862,2.3943164348602295
262,22560,22557,0.0555388480424881,-0.13861899077892303,1.039197325706482,2.571335792541504,-6.585026741027832,-0.4085167348384857,2.022569417953491,4.00785493850708,0.3065171539783478,0.012438726611435413,0.20962731540203094,2.399094581604004
263,22570,22567,-0.003305428894236684,-0.0009488332434557378,1.0617104768753052,1.657773494720459,-7.060502529144287,-0.7686237096786499,2.0227901935577393,4.008665084838867,0.31062328815460205,0.23845240473747253,0.17435339093208313,2.4072155952453613
264,22580,22577,0.014947264455258846,-0.04535708203911781,0.9552792310714722,1.2117480039596558,-6.058216094970703,-1.076362133026123,2.025268316268921,4.0085296630859375,0.31135109066963196,0.14965730905532837,0.20653299987316132,2.395092248916626
265,22590,22587,0.10079380124807358,0.005233773496001959,0.9448365569114685,0.5283854603767395,-3.1227991580963135,-1.2043676376342773,2.02642560005188,4.007500648498535,0.3121391534805298,0.15215818583965302,0.23192647099494934,2.348695755004883
266,22600,22597,0.13812176883220673,-0.11537358164787292,0.9722684621810913,-0.7956178784370422,-2.3742847442626953,-0.8367939591407776,2.0263874530792236,4.008416652679443,0.3155394494533539,0.28343307971954346,0.1532045155763626,2.3511905670166016
267,22610,22607,0.05379362404346466,-0.20565272867679596,1.031915545463562,-2.2574844360351562,-1.1461374759674072,-0.48264843225479126,2.0272610187530518,4.008362293243408,0.316528856754303,0.3600718080997467,0.15073642134666443,2.352391481399536
268,22620,22617,0.027168849483132362,-0.06479353457689285,0.9534602761268616,-1.6902846097946167,0.2680247724056244,-0.8170834183692932,2.0298688411712646,4.008608818054199,0.3173731565475464,0.22913776338100433,0.12403872609138489,2.3373775482177734
269,22630,22627,-0.04157701134681702,0.02687564119696617,0.9617973566055298,-0.4729907512664795,2.9346652030944824,-0.33480212092399597,2.0302529335021973,4.008975028991699,0.3184502422809601,0.3269491493701935,0.12866373360157013,2.3455557823181152
270,22640,22637,0.01897549256682396,0.1210886538028717,0.898103654384613,-1.1154530048370361,5.2512359619140625,-0.35451650619506836,2.031109094619751,4.007460594177246,0.3176605999469757,0.32820916175842285,0.21557019650936127,2.3044509887695312
271,22650,22647,-0.05435467138886452,0.2065974473953247,0.9364899396896362,-0.6306559443473816,5.371776580810547,-0.596057653427124,2.0313987731933594,4.006692886352539,0.31828320026397705,0.2586301267147064,0.19552119076251984,2.2690024375915527
272,22660,22657,-0.019917918369174004,0.05391423776745796,0.9343684911727905,-2.789602279663086,4.8364386558532715,-0.47870200872421265,2.0332770347595215,4.005717754364014,0.3187597095966339,0.11299597471952438,0.24499836564064026,2.2610116004943848
273,22670,22667,0.02710767090320587,-0.01721973344683647,0.9491410851478577,-3.2622036933898926,2.3426053524017334,-0.9301702380180359,2.033388137817383,4.006682872772217,0.3215431571006775,0.10219677537679672,0.10070012509822845,2.2614905834198
274,22680,22677,0.03711451217532158,-0.12404219806194305,0.9435393214225769,-3.809055805206299,-0.9943071603775024,-1.28564453125,2.033632516860962,4.006189346313477,0.3222164511680603,0.14910928905010223,0.12038066238164902,2.2500598430633545
275,22690,22687,0.03383595496416092,-0.14976054430007935,0.9508305191993713,-3.229935884475708,-3.688359498977661,-1.1068181991577148,2.0335853099823,4.005847930908203,0.3228812515735626,0.27217891812324524,0.05521952360868454,2.2163639068603516
276,22700,22697,-0.0035886182449758053,-0.1268879771232605,0.9438422918319702,-1.648159384727478,-4.1670241355896,-1.3866796493530273,2.0356056690216064,4.006107807159424,0.3258225917816162,0.2019316554069519,0.007567776832729578,2.189718723297119
277,22710,22707,-0.01926918514072895,-0.09135864675045013,0.9164901375770569,-0.9057630300521851,-1.8781797885894775,-1.066311001777649,2.0369760990142822,4.005918502807617,0.32640910148620605,0.23961126804351807,-0.0014815821778029203,2.1855826377868652
278,22720,22717,0.0064164819195866585,0.0007055111927911639,0.9471189975738525,-0.03827695548534393,0.2510451078414917,-1.0663251876831055,2.0375728607177734,4.0055694580078125,0.32695725560188293,0.2866560220718384,-0.005109092220664024,2.1527931690216064
279,22730,22727,-0.076875701546669,0.08227308094501495,0.9664210677146912,0.28984200954437256,1.202064871788025,-0.9359154105186462,2.038682222366333,4.006042003631592,0.3273944556713104,0.22993791103363037,-0.008661516942083836,2.1654868125915527
280,22740,22737,-0.02932446077466011,0.15028931200504303,0.968699038028717,1.6884831190109253,2.3805160522460938,-0.918263852596283,2.03910493850708,4.00509786605835,0.33035582304000854,0.2844288647174835,0.07510265707969666,2.1445796489715576
281,22750,22747,0.006497054360806942,0.058570098131895065,0.9588512182235718,1.2473958730697632,2.202792167663574,-1.1150861978530884,2.0393128395080566,4.005106449127197,0.3309555649757385,0.2547416090965271,0.09840308874845505,2.121229648590088
282,22760,22757,0.07046891003847122,-0.08254751563072205,0.900242805480957,-2.070969820022583,5.050273418426514,-1.7438958883285522,2.0414793491363525,4.005115032196045,0.3313947916030884,0.12016603350639343,0.09520674496889114,2.1305923461914062
283,22770,22767,0.0888194590806961,-0.0799206793308258,0.8902401328086853,-2.8658785820007324,1.2443206310272217,-1.2787798643112183,2.041914463043213,4.004428386688232,0.3338281512260437,0.0716841071844101,0.05709501728415489,2.1350948810577393
284,22780,22777,-0.014298737049102783,0.04205264523625374,0.978656530380249,-2.9267914295196533,-0.5977851748466492,-1.028116226196289,2.0416693687438965,4.00600528717041,0.33438652753829956,0.16077257692813873,0.0053521208465099335,2.137244462966919
285,22790,22787,-0.02680623158812523,0.07378546893596649,0.9527207612991333,-3.0972282886505127,-1.5017505884170532,-1.3084790706634521,2.041810989379883,4.00563907623291,0.33481889963150024,0.20470407605171204,-0.033249255269765854,2.1036694049835205
286,22800,22797,0.009055625647306442,-0.0036174466367810965,0.9350871443748474,-2.3101327419281006,-1.6600725650787354,-1.6816354990005493,2.042219877243042,4.005850315093994,0.33424580097198486,0.23667871952056885,-0.0873476043343544,2.0675601959228516
287,22810,22807,0.0049279918894171715,0.0004955013282597065,0.9645872116088867,-0.8171432614326477,-0.922718346118927,-1.4174619913101196,2.0425922870635986,4.005195617675781,0.334526002407074,0.2592279613018036,-0.11798102408647537,2.050778865814209
288,22820,22817,0.025475317612290382,-0.008074553683400154,0.9343083500862122,-0.6674462556838989,3.178112268447876,-1.0930520296096802,2.0429012775421143,4.004265308380127,0.334729939699173,0.2623511850833893,-0.13211974501609802,2.0003509521484375
289,22830,22827,0.04578687250614166,-0.026041649281978607,0.9054858684539795,0.8751818537712097,4.854880332946777,-1.3574392795562744,2.0439417362213135,4.004544258117676,0.3348545432090759,0.2132953405380249,-0.12681199610233307,1.9977447986602783
290,22840,22837,-0.08949298411607742,0.0403396412730217,0.9446814060211182,1.9967873096466064,5.37276554107666,-1.4014794826507568,2.0435831546783447,4.003415584564209,0.3334753215312958,0.21910932660102844,-0.09849265962839127,1.9655697345733643
291,22850,22847,-0.09411435574293137,0.05987997353076935,0.9793437719345093,1.7277328968048096,6.413784027099609,-0.766559898853302,2.044595241546631,4.003635406494141,0.33337950706481934,0.12869997322559357,-0.06020914018154144,1.9500972032546997
292,22860,22857,0.02462202124297619,-0.014865999110043049,0.9378070831298828,0.9834282398223877,6.23240852355957,-1.200501561164856,2.04514741897583,4.003334999084473,0.3331875205039978,0.024178003892302513,-0.0371646024286747,1.9593937397003174
293,22870,22867,0.01357163954526186,-0.023812079802155495,0.9123978614807129,-0.02955247275531292,4.847240924835205,-0.9924395680427551,2.04548978805542,4.003428936004639,0.32939162850379944,0.01711919717490673,-0.0209894310683012,1.9589675664901733
294,22880,22877,0.0680173709988594,-0.08478868007659912,0.9863637089729309,-0.6438119411468506,2.5768160820007324,-0.9766472578048706,2.045610189437866,4.0044989585876465,0.32895392179489136,0.02570858597755432,-0.025424513965845108,1.9906855821609497
295,22890,22887,0.05842788890004158,-0.0682196170091629,0.9478668570518494,-1.153259038925171,3.905292510986328,-2.1627378463745117,2.0464026927948,4.004333972930908,0.32840219140052795,-0.021675268188118935,-0.036224011331796646,1.9571669101715088
296,22900,22897,-0.00891750305891037,-0.005133340600878,0.9063636064529419,-0.5379472374916077,1.0447317361831665,-1.7381505966186523,2.0468337535858154,4.005255222320557,0.32525599002838135,-0.06946880370378494,-0.13694347441196442,1.9481333494186401
297,22910,22907,-0.008307291194796562,0.0030511249788105488,0.9675976037979126,0.3620207607746124,1.2533856630325317,-1.4302388429641724,2.0477514266967773,4.006121635437012,0.32445767521858215,-0.08771142363548279,-0.21328099071979523,1.9326313734054565
298,22920,22917,-0.0370672233402729,0.07278548926115036,0.9373496174812317,1.3452215194702148,2.1353633403778076,-1.4964653253555298,2.0479981899261475,4.005244255065918,0.32370615005493164,-0.11465880274772644,-0.1079632043838501,1.8995506763458252
299,22930,22927,-0.05621262639760971,0.08960290253162384,0.9897530674934387,1.9699029922485352,3.0243217945098877,-1.1786541938781738,2.049025058746338,4.004634380340576,0.3222654163837433,-0.14821785688400269,-0.0715533122420311,1.886681079864502
300,22940,22937,-0.002245567971840501,-0.039356496185064316,0.9809020757675171,2.4309544563293457,1.2849334478378296,-0.6670469045639038,2.049950122833252,4.003709316253662,0.321308434009552,-0.18848316371440887,-0.03241826966404915,1.857799768447876
301,22950,22947,-0.0007704319432377815,-0.07314558327198029,1.0062167644500732,1.081642508506775,7.957339763641357,-1.0046894550323486,2.049964427947998,4.003686904907227,0.320452481508255,-0.15053261816501617,0.008116831071674824,1.830484390258789
302,22960,22957,0.0577474907040596,-0.04643666371703148,0.9028411507606506,-0.610510528087616,5.643859386444092,-0.19534124433994293,2.049988269805908,4.002632141113281,0.3195403516292572,-0.1696397364139557,0.11737143248319626,1.8136873245239258
303,22970,22967,0.07778734713792801,-0.12494837492704391,0.9298575520515442,-1.1730250120162964,2.7012622356414795,-0.1829843521118164,2.0499415397644043,4.003140449523926,0.3180205821990967,-0.1716015636920929,0.01973789744079113,1.818540096282959
304,22980,22977,0.019901378080248833,-0.0240132138133049,1.0273438692092896,-2.0663223266601562,3.0223026275634766,-0.09131568670272827,2.050537109375,4.003897666931152,0.31695622205734253,-0.21872371435165405,-0.0067172725684940815,1.846387267112732
305,22990,22987,0.03015553206205368,-0.03757500648498535,0.951934278011322,-2.2271230220794678,1.866720199584961,-0.7243221998214722,2.05085825920105,4.004190921783447,0.3158630430698395,-0.2622348666191101,-0.043987005949020386,1.8626161813735962
306,23000,22997,0.002704145386815071,-0.020492738112807274,0.9814398288726807,-1.6878721714019775,2.967663526535034,-0.5296120047569275,2.0503346920013428,4.004649639129639,0.31172892451286316,-0.21657150983810425,-0.07237932085990906,1.8660682439804077
307,23010,23007,-0.03792273625731468,0.0008381077204830945,1.091590166091919,0.3294653594493866,2.1144931316375732,-0.2776358425617218,2.0518476963043213,4.004770278930664,0.31039029359817505,-0.3530080020427704,-0.09297506511211395,1.8639988899230957
308,23020,23017,-0.001602493692189455,-0.004764174111187458,1.0589473247528076,0.6047980189323425,4.910468578338623,-0.20732301473617554,2.0527496337890625,4.004582405090332,0.3091580271720886,-0.40340656042099,-0.08737763017416,1.823018193244934
309,23030,23027,-0.0004525714321061969,0.0042382488027215,1.0310087203979492,2.272521495819092,4.241830825805664,0.2700433135032654,2.0526859760284424,4.003454208374023,0.3076757490634918,-0.3878510892391205,-0.05678672343492508,1.8100578784942627
310,23040,23037,-0.016820402815937996,0.0065346285700798035,1.0781245231628418,3.573974370956421,3.3643808364868164,0.32727691531181335,2.054121732711792,4.003966331481934,0.30655914545059204,-0.4436277449131012,-0.08271164447069168,1.8249244689941406
311,23050,23047,0.07316388189792633,-0.09064759314060211,1.0113800764083862,1.908374309539795,1.4327540397644043,0.39580440521240234,2.054675579071045,4.004397392272949,0.3055304288864136,-0.46214759349823,-0.02472398243844509,1.836238145828247
312,23060,23057,0.009602033533155918,-0.06894216686487198,1.0511304140090942,0.6585173010826111,0.8712756037712097,0.50289386510849,2.056572914123535,4.004717826843262,0.3043230473995209,-0.5528144836425781,0.01810118369758129,1.8585842847824097
313,23070,23067,0.018171535804867744,-0.05237748101353645,1.053745985031128,1.2797893285751343,-1.5887433290481567,0.11202111840248108,2.056518793106079,4.004480361938477,0.3101659417152405,-0.5348464250564575,0.0398186594247818,1.8240737915039062
314,23080,23077,0.010431298054754734,-0.03171999752521515,1.0297690629959106,0.48169052600860596,-6.497025489807129,0.7132243514060974,2.0569448471069336,4.004516124725342,0.3095431625843048,-0.47034746408462524,0.06830071657896042,1.8803778886795044
315,23090,23087,-0.043316345661878586,-0.012657237239181995,1.1499645709991455,-0.11899075657129288,-4.329416275024414,0.17602655291557312,2.0575129985809326,4.004724025726318,0.3090304434299469,-0.3732360005378723,0.07909690588712692,1.8845266103744507
316,23100,23097,-0.0037959592882543802,-0.01886073686182499,1.0746897459030151,-1.6434811353683472,-2.862295389175415,0.2044513076543808,2.0594160556793213,4.005520343780518,0.30961763858795166,-0.4573865830898285,-0.008839232847094536,1.8812862634658813
317,23110,23107,0.001634730026125908,0.02148445136845112,1.074588418006897,-2.2482340335845947,-1.883954644203186,0.2384224534034729,2.060722827911377,4.00568962097168,0.30924665927886963,-0.4721657633781433,-0.030683860182762146,1.8829951286315918
318,23120,23117,0.0005154187674634159,-0.029088448733091354,1.059597373008728,-0.7628694176673889,-1.9781215190887451,-0.008315663784742355,2.060673713684082,4.005797386169434,0.30910494923591614,-0.3394768536090851,-0.04859722778201103,1.8753875494003296
319,23130,23127,0.04590029641985893,-0.03081919252872467,0.9980722069740295,1.8455023765563965,-2.621993064880371,-0.152875155210495,2.063839912414551,4.005847454071045,0.31047144532203674,-0.5260286331176758,-0.03316573426127434,1.8847978115081787
320,23140,23137,-0.02166440710425377,0.0018212152644991875,1.0513527393341064,2.0802505016326904,-2.9622251987457275,0.014605524949729443,2.063883066177368,4.0056233406066895,0.3105778396129608,-0.3716716170310974,0.007499020546674728,1.8694250583648682
321,23150,23147,-0.005448814947158098,0.05370418354868889,1.0152769088745117,1.1750956773757935,-3.440768241882324,-0.26003435254096985,2.0644690990448,4.005321979522705,0.310599684715271,-0.2932516038417816,0.0523032583296299,1.862156867980957
322,23160,23157,-0.015466338954865932,0.032834455370903015,1.0610984563827515,1.8407734632492065,-4.588465690612793,-0.19158639013767242,2.065709352493286,4.0048065185546875,0.30880460143089294,-0.2928323745727539,0.07817951589822769,1.8385589122772217
323,23170,23167,0.013247109949588776,-0.0928049385547638,0.9817743301391602,2.0321881771087646,-7.687778472900391,-0.6004073023796082,2.0657551288604736,4.005084037780762,0.3088240623474121,-0.19053763151168823,0.03520514816045761,1.818743109703064
324,23180,23177,-0.010902995243668556,-0.05646080896258354,1.071967363357544,0.4394552409648895,-1.4663090705871582,-0.28255313634872437,2.0658438205718994,4.004636764526367,0.3088771104812622,-0.09468480944633484,0.14388994872570038,1.8328197002410889
325,23190,23187,0.063498854637146,-0.040150370448827744,0.995954155921936,-0.5577208399772644,-1.8640291690826416,-0.753140926361084,2.0681185722351074,4.004671573638916,0.30884554982185364,-0.19631150364875793,0.07397332042455673,1.8189377784729004
326,23200,23197,0.01699952594935894,-0.030056925490498543,0.9860941171646118,-1.2166827917099,-1.315073013305664,-0.3455033004283905,2.069223403930664,4.004875183105469,0.312002569437027,-0.22355203330516815,0.06559576839208603,1.7994661331176758
327,23210,23207,0.015315071679651737,0.03380192071199417,1.0010483264923096,-1.4610682725906372,0.5639495253562927,-0.6269048452377319,2.0696263313293457,4.004905700683594,0.31230273842811584,-0.18253228068351746,0.04994415491819382,1.7954896688461304
328,23220,23217,0.04402567818760872,0.032829783856868744,0.9833720922470093,-1.1076786518096924,-2.3111462593078613,-1.1729404926300049,2.0706443786621094,4.0052313804626465,0.31259968876838684,-0.1448192596435547,0.0344051793217659,1.7507058382034302
329,23230,23227,-0.04147796705365181,0.0873454213142395,0.9768001437187195,-0.3632020056247711,-3.0243141651153564,-0.8228756785392761,2.0708203315734863,4.0052313804626465,0.3125956654548645,-0.06820587068796158,0.024961592629551888,1.7791465520858765
330,23240,23237,-0.058511629700660706,0.14998994767665863,0.9848365783691406,0.10278375446796417,-2.2803728580474854,-1.0950218439102173,2.070706605911255,4.004652976989746,0.3129083514213562,0.06633080542087555,0.028251638635993004,1.7594945430755615
331,23250,23247,-0.030109712854027748,0.08672381192445755,0.9703069925308228,0.827372133731842,-1.2752735614776611,-1.3525214195251465,2.072911500930786,4.005482196807861,0.3130751848220825,-0.13216210901737213,0.03733213245868683,1.7682303190231323
332,23260,23257,-0.09677544236183167,0.04756539687514305,1.0518574714660645,1.9599000215530396,-1.0745402574539185,-2.0206234455108643,2.072969436645508,4.00578498840332,0.3152417540550232,-0.02789945714175701,0.05643300712108612,1.788232684135437
333,23270,23267,-0.03066267818212509,-0.03664230555295944,0.9761735796928406,1.4799277782440186,-0.780970573425293,-1.8026288747787476,2.0748825073242188,4.006105899810791,0.31552788615226746,-0.14739957451820374,0.0898638591170311,1.7700098752975464
334,23280,23277,0.009479326196014881,0.06548052281141281,0.9815108180046082,0.6109432578086853,-0.856726348400116,-1.670966386795044,2.0754036903381348,4.0064778327941895,0.3158997595310211,-0.10697024315595627,0.11209908872842789,1.777837872505188
335,23290,23287,0.004420939367264509,0.10113660246133804,0.9765105843544006,0.055029332637786865,-0.3483613431453705,-2.0886011123657227,2.075674057006836,4.0064826011657715,0.3162940740585327,-0.06970272958278656,0.11909600347280502,1.7289069890975952
336,23300,23297,0.033838264644145966,0.079246386885643,0.9692779779434204,-1.1397565603256226,-0.5260730385780334,-1.8298828601837158,2.076564311981201,4.005937576293945,0.3150205612182617,-0.04154084622859955,0.11491082608699799,1.717098355293274
337,23310,23307,0.05253208056092262,0.000529252109117806,0.9354686141014099,-1.4715487957000732,-2.580780267715454,-1.6911828517913818,2.077864170074463,4.005200386047363,0.31517544388771057,-0.06819935142993927,0.09491506218910217,1.6574628353118896
338,23320,23317,0.050416961312294006,-0.11758237332105637,0.9718323945999146,-2.0153236389160156,-2.449690580368042,-1.5468761920928955,2.0787384510040283,4.005957126617432,0.31535544991493225,-0.07783707976341248,0.06932651251554489,1.6795605421066284
339,23330,23327,0.03359539061784744,-0.03645145520567894,0.9667363166809082,-1.724982738494873,-2.984008550643921,-1.4333592653274536,2.0791330337524414,4.006282329559326,0.3143288195133209,-0.0025665950961411,0.0338137149810791,1.6773725748062134
340,23340,23337,-0.05460420995950699,0.01928335800766945,0.9856675863265991,-1.0403310060501099,-2.98715877532959,-1.5990959405899048,2.0793673992156982,4.006136894226074,0.3143662214279175,0.06824759393930435,0.013047787360846996,1.65614914894104
341,23350,23347,-0.027811292558908463,-0.013050781562924385,0.9785647988319397,-1.0202387571334839,-2.2187204360961914,-1.6483501195907593,2.080127716064453,4.005873680114746,0.31432828307151794,0.06219140440225601,-0.0003067862999159843,1.6222726106643677
342,23360,23357,-0.0007747635245323181,-0.01909060776233673,0.9768182635307312,0.21597369015216827,0.6540002226829529,-1.2620803117752075,2.0800533294677734,4.005486011505127,0.3158574104309082,0.11877104640007019,-0.006973179988563061,1.6171525716781616
343,23370,23367,0.06085591018199921,-0.15706464648246765,0.9566810727119446,0.1158003881573677,0.181106299161911,-1.6118113994598389,2.080740213394165,4.006174087524414,0.31589236855506897,0.13271309435367584,-0.0762324258685112,1.5724045038223267
344,23380,23377,0.028259841725230217,0.11240775138139725,0.9725877046585083,0.7817127108573914,1.2505428791046143,-1.2323167324066162,2.081928014755249,4.005207538604736,0.31585609912872314,0.05342887341976166,0.010360198095440865,1.571442723274231
345,23390,23387,-0.0006259687361307442,0.09908179193735123,0.9959068894386292,2.1385324001312256,1.6674151420593262,-1.6243131160736084,2.083400249481201,4.005277156829834,0.31577539443969727,-0.027087077498435974,0.03860173746943474,1.5636534690856934
346,23400,23397,0.02356000803411007,-0.014277826994657516,0.9523171782493591,2.323793411254883,1.344299077987671,-1.5462499856948853,2.0828022956848145,4.005730152130127,0.31521886587142944,0.043449558317661285,0.0795074850320816,1.5875755548477173
347,23410,23407,0.006728712469339371,-0.008757494390010834,0.9769490361213684,2.4818599224090576,0.5120223164558411,-2.232492685317993,2.0838170051574707,4.005515098571777,0.3151358664035797,0.04057963564991951,0.11872190237045288,1.5621577501296997
348,23420,23417,-0.013153650797903538,-0.0041779642924666405,0.9855985045433044,1.1433460712432861,1.0151926279067993,-2.126978874206543,2.0861334800720215,4.0053486824035645,0.3149033188819885,-0.09590177237987518,0.15191027522087097,1.532557487487793
349,23430,23427,0.0016518284101039171,0.01805691421031952,0.9719961881637573,-0.3192873001098633,-0.6561309099197388,-2.04471492767334,2.0865159034729004,4.00596809387207,0.31495487689971924,0.02047777734696865,0.08044320344924927,1.5089890956878662
350,23440,23437,0.08999242633581161,-0.03177626058459282,0.9429308176040649,-1.6027615070343018,-0.63514244556427,-1.5235111713409424,2.0879135131835938,4.006128787994385,0.31471583247184753,-0.013751942664384842,0.0009633314330130816,1.4356424808502197
351,23450,23447,0.21752159297466278,-0.13117237389087677,1.0049874782562256,-1.4105349779129028,-2.633869171142578,-1.6412761211395264,2.0894577503204346,4.006146430969238,0.3143886625766754,-0.1306813508272171,-0.01850648783147335,1.4515668153762817
352,23460,23457,0.09919171035289764,-0.16666021943092346,0.9815095067024231,-0.8627792000770569,-4.2973127365112305,-1.504569411277771,2.0893330574035645,4.0061750411987305,0.31491607427597046,0.04354652389883995,-0.022418364882469177,1.4489542245864868
353,23470,23467,0.002809248398989439,-0.188992440700531,0.9766115546226501,0.8879610896110535,-5.040686130523682,-1.1600308418273926,2.0886662006378174,4.006265163421631,0.3148077428340912,0.22459514439105988,-0.015163276344537735,1.4365172386169434
354,23480,23477,0.0326438769698143,-0.03877605125308037,0.9810857176780701,2.7445859909057617,-3.641671895980835,-1.0188809633255005,2.0895237922668457,4.0060834884643555,0.3145429790019989,0.2227659374475479,0.019716590642929077,1.4243872165679932
355,23490,23487,0.08236680179834366,-0.0034386692568659782,1.0014663934707642,3.7019128799438477,-0.221290722489357,-0.9993817806243896,2.090632915496826,4.006128311157227,0.313846617937088,0.20119339227676392,0.08207240700721741,1.4138479232788086
356,23500,23497,0.08915528655052185,0.024989625439047813,0.9866527318954468,3.223493814468384,1.4958829879760742,-1.2184282541275024,2.091071605682373,4.006034851074219,0.31356242299079895,0.23477321863174438,0.15289349853992462,1.433266043663025
357,23510,23507,0.03197392821311951,0.08025754988193512,1.0044413805007935,1.7873454093933105,3.361741065979004,-1.3935176134109497,2.089808464050293,4.004354000091553,0.31320199370384216,0.21195706725120544,0.12777136266231537,1.3353224992752075
358,23520,23517,-0.02901340462267399,0.017285941168665886,1.001863956451416,1.444214105606079,4.94568395614624,-0.7095556259155273,2.0909650325775146,4.004183769226074,0.3129158020019531,0.15499161183834076,0.1663053035736084,1.317618489265442
359,23530,23527,-0.013743768446147442,-0.05059579014778137,0.9779472351074219,-0.43263450264930725,5.129146575927734,-0.5744870901107788,2.0929484367370605,4.003332138061523,0.31334930658340454,-0.05522645264863968,0.1869421750307083,1.2684030532836914
360,23540,23537,0.024929748848080635,-0.030111802741885185,0.9858664274215698,-1.8601011037826538,3.9623770713806152,-0.545407235622406,2.0933258533477783,4.003585338592529,0.3131681978702545,-0.025280442088842392,0.1747838705778122,1.2652653455734253
361,23550,23547,-0.05530708283185959,0.10978254675865173,1.0107017755508423,-3.1766092777252197,0.7876308560371399,-1.0037567615509033,2.094033718109131,4.003695487976074,0.31299883127212524,0.0343167744576931,0.1353786438703537,1.2512515783309937
362,23560,23557,-0.03369846194982529,0.15135729312896729,1.0086885690689087,-2.490644693374634,-1.5612272024154663,-0.6363201141357422,2.095839738845825,4.003498554229736,0.3158953785896301,-0.023522676900029182,0.08599536865949631,1.2212414741516113
363,23570,23567,-0.03250027075409889,0.11223839968442917,1.0245857238769531,-0.7050173878669739,-3.0861105918884277,-0.9702547788619995,2.0957443714141846,4.00378942489624,0.31589752435684204,0.11095575243234634,0.051813773810863495,1.2082396745681763
364,23580,23577,-0.08183570951223373,0.06067468971014023,1.0405398607254028,0.44321632385253906,-3.5899133682250977,-0.8320576548576355,2.0971810817718506,4.004281997680664,0.31577304005622864,0.06493059545755386,-0.02239440567791462,1.209682822227478
365,23590,23587,-0.10059192776679993,0.05465461686253548,0.989676833152771,2.238865852355957,-2.7191953659057617,-0.4791645407676697,2.098510503768921,4.004268169403076,0.31205230951309204,0.06272934377193451,-0.0022783454041928053,1.1654369831085205
366,23600,23597,-0.09301471710205078,0.11679015308618546,1.0185140371322632,2.806877613067627,-1.0941113233566284,-0.14797967672348022,2.10003399848938,4.00473690032959,0.3117397129535675,0.05512125417590141,-0.036295726895332336,1.176622986793518
367,23610,23607,-0.025839783251285553,0.05237540975213051,1.0121498107910156,3.8171966075897217,0.1407727748155594,-0.2828993797302246,2.1000120639801025,4.003685474395752,0.311574786901474,0.1839846968650818,0.02896871417760849,1.1430031061172485
368,23620,23617,-0.03299061581492424,-0.07649048417806625,1.0092576742172241,3.8411543369293213,0.9708616733551025,-0.3342353105545044,2.1022303104400635,4.004549026489258,0.3112264573574066,0.03914415091276169,0.10473519563674927,1.1819391250610352
369,23630,23627,-0.043767303228378296,-0.024214398115873337,1.0278563499450684,3.714702844619751,2.3168485164642334,-0.9280202388763428,2.1021549701690674,4.003804683685303,0.3084946274757385,0.12212169170379639,0.17820625007152557,1.1514180898666382
370,23640,23637,-0.050843577831983566,0.0449446439743042,1.0414583683013916,1.7525213956832886,2.16908860206604,-0.7557694911956787,2.102240562438965,4.003763675689697,0.30820080637931824,0.16293865442276,0.23994092643260956,1.1549500226974487
371,23650,23647,0.008685438893735409,-0.004902515094727278,0.9743019938468933,-0.11065929383039474,1.6604975461959839,-0.8512985110282898,2.1035103797912598,4.0036749839782715,0.3078780770301819,0.12383859604597092,0.2726963758468628,1.1572262048721313
372,23660,23657,-0.019802821800112724,0.05612777918577194,1.0235264301300049,-2.038334846496582,1.4614405632019043,-1.0333001613616943,2.1050686836242676,4.004835605621338,0.31018802523612976,0.021081726998090744,0.19387127459049225,1.1219000816345215
373,23670,23667,0.013719441369175911,0.07526193559169769,1.0379536151885986,-3.0332589149475098,1.0493276119232178,-1.1454933881759644,2.1065728664398193,4.00457763671875,0.30998876690864563,-0.06235721707344055,0.16851572692394257,1.1202982664108276
374,23680,23677,0.038085270673036575,0.02186012826859951,1.0014088153839111,-2.1325912475585938,-2.0019304752349854,-0.7546857595443726,2.1067466735839844,4.0045166015625,0.3099740147590637,0.01802329160273075,0.12740010023117065,1.0872821807861328
375,23690,23687,-0.006776546593755484,0.015614709816873074,1.0043946504592896,-0.9091028571128845,-0.36069151759147644,-1.2152103185653687,2.107602834701538,4.005288124084473,0.3081890344619751,-0.03783854842185974,0.02008865401148796,1.0792129039764404
376,23700,23697,-0.0193516593426466,0.05070795863866806,0.9950739145278931,1.4474902153015137,-0.6472059488296509,-0.540095329284668,2.1092309951782227,4.0037431716918945,0.30798783898353577,-0.09472499042749405,0.17637871205806732,1.044573187828064
377,23710,23707,-0.004385150503367186,0.0573653019964695,1.0150758028030396,2.5631308555603027,-0.1862095445394516,-0.8218517899513245,2.109191656112671,4.003611087799072,0.30788275599479675,0.023297658190131187,0.1927201747894287,1.0368231534957886
378,23720,23717,0.04267643019556999,0.07639684528112411,1.009381651878357,2.7403087615966797,0.619874119758606,-0.9690654277801514,2.1090927124023438,4.003831386566162,0.3077707290649414,0.11979473382234573,0.2298426777124405,1.054601788520813
379,23730,23727,0.00133146729785949,0.02812327817082405,1.0214836597442627,0.9530484080314636,0.1875314563512802,-1.5533597469329834,2.110705852508545,4.005263805389404,0.30589932203292847,0.044907305389642715,0.11626719683408737,1.0736457109451294
380,23740,23737,-0.0074523333460092545,-0.02319706790149212,1.0173288583755493,-0.8440319895744324,2.2630231380462646,-1.8315669298171997,2.112236738204956,4.005772113800049,0.3055787682533264,-0.03202467039227486,0.1485111117362976,1.0507559776306152
381,23750,23747,0.013048109598457813,-0.06510759145021439,0.9937558174133301,-1.9580954313278198,2.520632743835449,-1.9878870248794556,2.1133270263671875,4.0054755210876465,0.30544519424438477,0.03464861586689949,0.1490512639284134,1.0225685834884644
382,23760,23757,0.049120958894491196,-0.09229853004217148,0.9663218259811401,-1.0190483331680298,2.222537040710449,-1.244258999824524,2.114051342010498,4.005640983581543,0.3072759509086609,0.0006213333690539002,0.1321517676115036,0.968320369720459
383,23770,23767,0.07128468155860901,-0.02277320995926857,0.9929467439651489,0.3624352216720581,1.3375260829925537,-0.8558193445205688,2.1144371032714844,4.005518436431885,0.30719953775405884,0.05004333704710007,0.12339125573635101,0.9809513688087463
384,23780,23777,0.11045508086681366,-0.08344874531030655,1.0048937797546387,1.440794587135315,1.3998987674713135,-1.452277660369873,2.1154425144195557,4.005486011505127,0.30698904395103455,-0.047689374536275864,0.13783416152000427,0.9937170147895813
385,23790,23787,0.036548346281051636,0.011859769932925701,0.9799884557723999,1.375382423400879,1.0285656452178955,-1.8055306673049927,2.1168081760406494,4.006763935089111,0.30444902181625366,-0.12972918152809143,0.09224157780408859,1.0028494596481323
386,23800,23797,-0.08115334808826447,0.16920800507068634,1.0410676002502441,1.5650886297225952,0.421923965215683,-1.3739858865737915,2.1175005435943604,4.007071495056152,0.30414602160453796,-0.1227567046880722,0.13368122279644012,1.0153924226760864
387,23810,23807,0.010771730914711952,-0.03959236666560173,0.9539501667022705,0.8485982418060303,2.7168822288513184,-2.02567195892334,2.1176257133483887,4.007047653198242,0.30393463373184204,-0.03949964419007301,0.16668730974197388,0.9609918594360352
388,23820,23817,0.019920581951737404,-0.015949996188282967,1.0280674695968628,1.5634526014328003,0.1133938655257225,-1.2670592069625854,2.118067979812622,4.00638484954834,0.3044244050979614,-0.06030748412013054,0.1969258189201355,0.9543889760971069
389,23830,23827,0.06794434040784836,0.013581502251327038,1.0573700666427612,0.5640051364898682,1.1957998275756836,-0.9289576411247253,2.1186304092407227,4.0077972412109375,0.304054856300354,-0.13676248490810394,0.0704968124628067,0.9593709707260132
390,23840,23837,0.016607969999313354,0.0397445373237133,0.9914791584014893,0.5174641609191895,1.2226094007492065,-1.6050636768341064,2.118718147277832,4.008006572723389,0.3039104640483856,-0.057824112474918365,0.10254143923521042,0.9707058072090149
391,23850,23847,-0.026953039690852165,0.0204139556735754,1.0218465328216553,0.5905059576034546,2.056537389755249,-2.3327605724334717,2.1197235584259033,4.0079145431518555,0.3037380576133728,-0.0683198869228363,0.13105268776416779,0.9454196691513062
392,23860,23857,0.04488044232130051,-0.08589351922273636,0.9473564028739929,0.07464621961116791,2.2864184379577637,-1.9948234558105469,2.120485305786133,4.008498191833496,0.30256426334381104,-0.0917738601565361,0.08001173287630081,0.9151981472969055
393,23870,23867,0.0445103757083416,-0.016412129625678062,1.0104107856750488,2.018277168273926,2.6697700023651123,-1.5944523811340332,2.121781826019287,4.008776664733887,0.3022310137748718,-0.20158934593200684,0.11086194962263107,0.9215825200080872
394,23880,23877,0.06840769201517105,-0.015528425574302673,1.0081400871276855,3.009234666824341,2.290557861328125,-1.9267464876174927,2.122117042541504,4.007887363433838,0.3020258843898773,-0.14795784652233124,0.16100190579891205,0.9024157524108887
395,23890,23887,0.05746280029416084,-0.02685864083468914,1.019186019897461,3.1824557781219482,2.228970766067505,-1.5568039417266846,2.123377799987793,4.008620738983154,0.3021416664123535,-0.25572922825813293,0.2262328714132309,0.8945658802986145
396,23900,23897,0.058867719024419785,-0.04063444584608078,1.0437219142913818,2.649174451828003,1.7933474779129028,-2.131200075149536,2.123903751373291,4.0082621574401855,0.3018844723701477,-0.2676975727081299,0.2942470908164978,0.8906100988388062
397,23910,23907,0.022351771593093872,-0.02244657278060913,0.9467033743858337,1.0895825624465942,1.0008310079574585,-2.0517642498016357,2.124908208847046,4.008474349975586,0.3016617000102997,-0.2820940911769867,0.34502190351486206,0.8262647986412048
398,23920,23917,-0.008439768105745316,0.05238720029592514,1.0197105407714844,-0.7280141115188599,-0.5929010510444641,-2.1181466579437256,2.1245832443237305,4.008198261260986,0.30101051926612854,-0.20820632576942444,0.36366701126098633,0.8477456569671631
399,23930,23927,0.04316142946481705,0.008595926687121391,1.0136198997497559,-1.7340222597122192,-1.5309025049209595,-2.0163159370422363,2.1257636547088623,4.008376598358154,0.30060213804244995,-0.35268497467041016,0.3542245030403137,0.8677698969841003
400,23940,23937,0.00889364443719387,-0.01140105351805687,1.026867389678955,-3.298503875732422,-0.6435278654098511,-2.249999761581421,2.126138210296631,4.0092926025390625,0.30039045214653015,-0.30670544505119324,0.32258957624435425,0.8747847080230713
401,23950,23947,-0.02042275108397007,0.05546589568257332,1.0465641021728516,-3.405130624771118,0.5757995247840881,-2.3695216178894043,2.1268420219421387,4.01016902923584,0.30019280314445496,-0.2698797583580017,0.19121037423610687,0.8530208468437195
402,23960,23957,0.03175476938486099,0.004504824057221413,0.9707643389701843,-3.6011931896209717,-0.08599195629358292,-2.285508155822754,2.12900972366333,4.010520935058594,0.30016499757766724,-0.40796902775764465,0.14912299811840057,0.8297280073165894
403,23970,23967,-0.004201351664960384,0.06641655415296555,1.0504388809204102,-1.7217144966125488,-0.16509538888931274,-1.8732253313064575,2.12919282913208,4.010101795196533,0.3001241683959961,-0.2950288951396942,0.1859228014945984,0.8618617653846741
404,23980,23977,0.017996158450841904,-0.022955091670155525,0.9635962843894958,3.081918478012085,-2.4278361797332764,-2.325251817703247,2.128675937652588,4.0109171867370605,0.30016055703163147,-0.19248196482658386,0.16546955704689026,0.8163958191871643
405,23990,23987,-0.03783189877867699,0.04201741889119148,1.0262250900268555,3.199671983718872,-1.314401626586914,-1.8661894798278809,2.129990816116333,4.010168075561523,0.2999928891658783,-0.22154442965984344,0.21636714041233063,0.7943332195281982
406,24000,23997,-0.032419390976428986,0.053600747138261795,0.9885551929473877,2.7246170043945312,-0.2591274082660675,-1.3611246347427368,2.1314871311187744,4.009507656097412,0.29981520771980286,-0.2551783323287964,0.27814942598342896,0.7420221567153931
407,24010,24007,0.047170285135507584,-0.07108154147863388,0.9753325581550598,0.930512547492981,-0.09500785171985626,-0.9072772264480591,2.1313424110412598,4.0092854499816895,0.2997877895832062,-0.1460675299167633,0.3253665268421173,0.7417185306549072
408,24020,24017,0.015319839119911194,-0.012303836643695831,1.0783333778381348,-1.618390679359436,3.3815600872039795,-1.6181566715240479,2.133151054382324,4.009094715118408,0.296712189912796,-0.21666255593299866,0.33734527230262756,0.7232038974761963
409,24030,24027,0.012792693451046944,0.013149035163223743,0.9783177375793457,-3.244133949279785,0.17797012627124786,-1.351433515548706,2.1333141326904297,4.008821964263916,0.2963045537471771,-0.3165888488292694,0.2257194072008133,0.5943441390991211
410,24040,24037,-0.015956811606884003,0.006550352554768324,1.0686010122299194,-5.029655933380127,2.4319920539855957,-1.3106502294540405,2.1340692043304443,4.008209705352783,0.2960436940193176,-0.2989484667778015,0.17744781076908112,0.5745607614517212
411,24050,24047,0.06394708901643753,-0.09801512211561203,0.9042011499404907,-3.940415620803833,2.7549362182617188,-0.8063856959342957,2.1334762573242188,4.004946708679199,0.2957679331302643,-0.2501271069049835,0.2581498622894287,0.44112223386764526
412,24060,24057,-0.006974963471293449,0.010996700264513493,0.902167558670044,-1.746275544166565,0.38318243622779846,0.023712316527962685,2.1348071098327637,4.005101203918457,0.29762139916419983,-0.36015188694000244,0.1771320402622223,0.43309977650642395
413,24070,24067,-0.02139958366751671,-0.035485561937093735,1.0415918827056885,-0.8420229554176331,-1.2483999729156494,0.507891833782196,2.134437084197998,4.005084037780762,0.29751598834991455,-0.2565948963165283,0.1410362869501114,0.4181186258792877
414,24080,24077,0.033360302448272705,-0.10976649820804596,1.0619139671325684,-0.7085776329040527,-0.417087197303772,-0.15951746702194214,2.1357038021087646,4.005014896392822,0.2972336411476135,-0.3063563108444214,0.11930862069129944,0.38120606541633606
415,24090,24087,-0.03632473573088646,-0.049978435039520264,1.1218070983886719,0.10697120428085327,-3.505476474761963,0.43686696887016296,2.13631010055542,4.004144668579102,0.29561352729797363,-0.2685684561729431,0.18940337002277374,0.42770203948020935
416,24100,24097,-0.04188414663076401,-0.1025189608335495,1.1245460510253906,1.284575343132019,-0.6989945769309998,-0.8251864910125732,2.1371147632598877,4.004465103149414,0.29551631212234497,-0.20464448630809784,0.18765318393707275,0.45334360003471375
417,24110,24107,0.02639043517410755,-0.06456650793552399,0.9859030246734619,-1.1922975778579712,3.811495304107666,-1.475307583808899,2.138509750366211,4.004467964172363,0.29542627930641174,-0.2708047330379486,0.1987919956445694,0.4377451241016388
418,24120,24117,0.08433033525943756,-0.08465886861085892,0.9873731136322021,-4.517437934875488,2.0166382789611816,-0.143879234790802,2.138756513595581,4.004526138305664,0.29988789558410645,-0.22512885928153992,0.16870690882205963,0.4251197278499603
419,24130,24127,0.1370793581008911,-0.2813929319381714,1.0886549949645996,-3.6864304542541504,-0.10655861347913742,-1.0296108722686768,2.1401731967926025,4.005302429199219,0.30012446641921997,-0.31493058800697327,0.014630800113081932,0.3854553997516632
420,24140,24137,0.05917438492178917,-0.2686310410499573,1.0474092960357666,-3.390517234802246,-1.0536032915115356,-0.7249455451965332,2.1404592990875244,4.005052089691162,0.30057963728904724,-0.2088475376367569,-0.04474462568759918,0.37844035029411316
421,24150,24147,0.006502829026430845,-0.06351806223392487,1.0705350637435913,-1.4144643545150757,-0.15866346657276154,-0.6822770833969116,2.1419830322265625,4.0045270919799805,0.30064892768859863,-0.24567846953868866,-0.09578261524438858,0.3411259651184082
422,24160,24157,-0.037022653967142105,0.008213299326598644,1.0612986087799072,2.218242883682251,-1.8885180950164795,-0.7622872591018677,2.142667770385742,4.00488805770874,0.30112212896347046,-0.22222170233726501,-0.10060577839612961,0.3395303189754486
423,24170,24167,-0.08119478821754456,-0.023922419175505638,1.085371732711792,4.6594157218933105,-2.180479049682617,-1.2744003534317017,2.1439802646636963,4.003384113311768,0.3016330301761627,-0.25825875997543335,0.08663934469223022,0.33707553148269653
424,24180,24177,0.0016171979950740933,-0.06919945031404495,0.9986205697059631,3.3336551189422607,1.4357889890670776,-1.1982539892196655,2.1447393894195557,4.002347946166992,0.30221864581108093,-0.22697222232818604,0.21989358961582184,0.3196072280406952
425,24190,24187,-0.012030243873596191,-0.021587053313851357,1.0379488468170166,1.3616132736206055,-0.6295067071914673,-0.9651007056236267,2.1461451053619385,4.002997875213623,0.3027748465538025,-0.30018311738967896,0.18082520365715027,0.32527467608451843
426,24200,24197,-0.022058730944991112,0.042879603803157806,0.9817380309104919,-1.9974639415740967,-0.03221964091062546,-1.0910762548446655,2.1475658416748047,4.001481056213379,0.30334725975990295,-0.3413134515285492,0.2539527714252472,0.259835422039032
427,24210,24207,0.004479169845581055,0.1516048014163971,0.9833117723464966,-4.243646144866943,-0.2581512928009033,-0.7876549959182739,2.147575855255127,4.0015482902526855,0.30414965748786926,-0.23244228959083557,0.19753585755825043,0.24761199951171875
428,24220,24217,-0.025615287944674492,0.13707643747329712,1.0162670612335205,-5.136637210845947,-5.22415828704834,-0.2515382170677185,2.150498628616333,4.002129077911377,0.30511394143104553,-0.4206399917602539,0.10695324093103409,0.24337919056415558
429,24230,24227,0.01975090615451336,-0.05676791071891785,0.9474585652351379,-6.1892313957214355,-1.8178945779800415,-0.7569243311882019,2.1500420570373535,4.002591609954834,0.3059519827365875,-0.23062847554683685,0.005237846169620752,0.23052284121513367
430,24240,24237,0.03840172663331032,-0.04396975785493851,0.9643806219100952,-5.826186656951904,-2.1921637058258057,-0.8261658549308777,2.1497812271118164,4.003048419952393,0.30670255422592163,-0.09034215658903122,-0.10126806050539017,0.2851153314113617
431,24250,24247,0.08940821886062622,0.03844970464706421,0.928432285785675,-3.6383721828460693,-3.6606619358062744,-1.1222373247146606,2.1523513793945312,4.002175331115723,0.3057734966278076,-0.25047802925109863,-0.1210617870092392,0.23968824744224548
432,24260,24257,0.08017599582672119,0.15766695141792297,0.8816765546798706,-0.7452595829963684,-2.84431791305542,-1.0821895599365234,2.151806354522705,4.003102779388428,0.30636724829673767,-0.07989872246980667,-0.18003779649734497,0.264055997133255
433,24270,24267,0.010687521658837795,0.024698447436094284,0.9531774520874023,1.7102216482162476,-2.603316068649292,-1.0478731393814087,2.1533071994781494,4.002536296844482,0.30674251914024353,-0.09349708259105682,-0.11367593705654144,0.2615516483783722
434,24280,24277,-0.00859533715993166,0.044154681265354156,0.9882855415344238,4.0888991355896,0.20340315997600555,-1.245815396308899,2.155249834060669,4.002514362335205,0.3069472312927246,-0.18371446430683136,-0.09272737801074982,0.21991653740406036
435,24290,24287,-0.04203098639845848,0.02925792522728443,0.9702234864234924,4.614222049713135,-2.445838212966919,-0.9675818681716919,2.155991554260254,4.002054691314697,0.30863529443740845,-0.1433320939540863,-0.032758548855781555,0.23867478966712952
436,24300,24297,0.04659705236554146,-0.06793629378080368,0.9362865686416626,2.3417961597442627,0.9775345921516418,-0.6175240874290466,2.157270669937134,4.002938270568848,0.3088696300983429,-0.22910697758197784,-0.19875630736351013,0.17294859886169434
437,24310,24307,0.09324623644351959,-0.04265643656253815,0.9561704397201538,1.0323914289474487,-5.930676460266113,0.17814096808433533,2.156736135482788,4.002722263336182,0.3093308210372925,-0.10746484994888306,-0.1516781598329544,0.16439396142959595
438,24320,24317,-0.00667450949549675,0.1442444920539856,0.9781508445739746,-0.7786946892738342,-3.999630928039551,-0.008978597819805145,2.1566321849823,4.002645015716553,0.309879869222641,0.06555088609457016,-0.13309817016124725,0.1549987941980362
439,24330,24327,0.005813780706375837,0.07546767592430115,0.9857209920883179,-1.3627610206604004,-2.9714291095733643,0.029285725206136703,2.157374620437622,4.0033698081970215,0.31010890007019043,0.06769326329231262,-0.14132915437221527,0.2059979885816574
440,24340,24337,0.013869323767721653,0.21444667875766754,0.9671146869659424,-0.4365048110485077,-0.9853523969650269,-0.4005369246006012,2.1584556102752686,4.003228187561035,0.31024643778800964,0.05066841095685959,-0.16167400777339935,0.19350972771644592
441,24350,24347,-0.002587136346846819,0.06456056237220764,0.9679667353630066,1.455757737159729,-1.6352581977844238,-0.2615877687931061,2.159667491912842,4.000682830810547,0.3123180866241455,0.015093098394572735,-0.007385456934571266,0.12475252151489258
442,24360,24357,0.06300143897533417,-0.06963998824357986,0.9378288984298706,1.007024884223938,2.097593307495117,0.18665489554405212,2.1605312824249268,4.001216888427734,0.31255027651786804,0.05137789249420166,-0.07069694250822067,0.11553500592708588
443,24370,24367,-0.019249556586146355,-0.012835393659770489,0.950057864189148,0.8150866031646729,0.16912993788719177,-0.14042054116725922,2.1617074012756348,4.000365734100342,0.31265002489089966,-0.02694239467382431,-0.05155983939766884,0.07072106748819351
444,24380,24377,-0.036305300891399384,0.01590784266591072,0.964923083782196,-0.025842372328042984,0.907995343208313,0.3459753692150116,2.162383794784546,4.000168323516846,0.3128018379211426,-0.0006517188157886267,-0.04046189412474632,0.046904198825359344
445,24390,24387,0.010009176097810268,-0.09031467884778976,0.9774115681648254,-0.7721890807151794,-0.25509098172187805,0.5187044143676758,2.161890745162964,3.9996700286865234,0.31198006868362427,0.09073875099420547,-0.044589679688215256,0.03264519199728966
446,24400,24397,0.01379348337650299,-0.007224626373499632,0.9583277702331543,-0.745736300945282,-0.936661422252655,0.679481565952301,2.1633400917053223,3.999724864959717,0.3119535446166992,0.0379454642534256,-0.05858355015516281,0.03985074162483215
447,24410,24407,0.008158284239470959,0.032413285225629807,0.9531964659690857,-0.36133497953414917,-0.47224241495132446,0.6384621262550354,2.164067506790161,3.999765634536743,0.31195294857025146,0.07538565248250961,-0.0710066631436348,0.04554962366819382
448,24420,24417,0.029563475400209427,-0.03301571309566498,0.9601233005523682,-0.12562565505504608,-0.6064145565032959,0.38935309648513794,2.1655702590942383,3.999793767929077,0.3104577660560608,0.03553002327680588,-0.07740219682455063,0.052677419036626816
449,24430,24427,0.07068881392478943,-0.07394273579120636,0.9537862539291382,0.5096052289009094,-0.21527428925037384,0.6715237498283386,2.165799617767334,3.999018669128418,0.3103209435939789,0.08536794036626816,0.003747980110347271,0.06302674114704132
450,24440,24437,0.03943827375769615,-0.023808084428310394,0.9929340481758118,0.7897313237190247,2.035724639892578,0.29432034492492676,2.1659908294677734,3.9987168312072754,0.3102143704891205,0.1919393390417099,0.005047931801527739,0.044436004012823105
451,24450,24447,0.05153145268559456,-0.04523337632417679,1.0264889001846313,-0.1405092477798462,0.7010110020637512,0.3622452914714813,2.1676018238067627,3.9987008571624756,0.31092798709869385,0.10617254674434662,0.0031761869322508574,0.042021095752716064
452,24460,24457,0.02468470111489296,-0.06101883947849274,0.9728488326072693,-0.14979702234268188,0.4915520250797272,0.4401550889015198,2.169546365737915,3.999025344848633,0.31071674823760986,0.03833276033401489,-0.005704496521502733,0.07342329621315002
453,24470,24467,-0.009898420423269272,-0.10329422354698181,0.983475923538208,-0.639768660068512,1.6539801359176636,0.31132665276527405,2.169983386993408,3.9994421005249023,0.31065765023231506,0.12456512451171875,-0.09976296126842499,0.03992103785276413
454,24480,24477,-0.05224458873271942,-0.05941469594836235,0.9900941252708435,-1.1080336570739746,1.717264175415039,0.5892419815063477,2.1704089641571045,3.999335527420044,0.310474157333374,0.11438596248626709,-0.10840664803981781,0.0344398058950901
455,24490,24487,0.031807638704776764,-0.053689274936914444,0.9943522214889526,-0.675970196723938,1.978083610534668,0.7259401679039001,2.1713240146636963,3.998610496520996,0.3067072927951813,0.097774438560009,-0.04373309388756752,0.04936843737959862
456,24500,24497,0.05204213038086891,-0.013067882508039474,0.9922150373458862,-0.40215352177619934,1.0325345993041992,0.5468150973320007,2.1734445095062256,3.9988479614257812,0.306176096200943,-0.06864043325185776,-0.05486573651432991,0.029023276641964912
457,24510,24507,0.03062301315367222,-0.0031240617390722036,1.0012850761413574,0.828192412853241,0.9580481052398682,0.16134832799434662,2.1743087768554688,3.9980623722076416,0.305756539106369,-0.05383586511015892,-0.058068156242370605,0.03579330071806908
458,24520,24517,-0.029962636530399323,0.09234132617712021,1.0604068040847778,0.12850596010684967,0.8297234177589417,1.0519922971725464,2.1743690967559814,3.9971799850463867,0.30408766865730286,0.043117910623550415,0.027150288224220276,0.035562898963689804
459,24530,24527,0.004057274200022221,-0.009202433750033379,0.9716712236404419,0.11274538189172745,1.2015188932418823,0.8008468151092529,2.176161050796509,3.997438430786133,0.30354729294776917,-0.10842899978160858,0.021930256858468056,0.060167692601680756
460,24540,24537,0.0013827731600031257,-0.09399809688329697,0.9786960482597351,-0.08490415662527084,0.273953378200531,0.88321453332901,2.176769495010376,3.997838258743286,0.30311110615730286,-0.08819384127855301,0.01678697019815445,0.10383548587560654
461,24550,24547,0.04320128262042999,-0.037739790976047516,1.0062240362167358,-1.7111709117889404,-0.8301824331283569,1.5372618436813354,2.176881790161133,3.998460531234741,0.302683562040329,0.014984789304435253,-0.08006668835878372,0.05975217744708061
462,24560,24557,0.09664647281169891,-0.052286721765995026,1.0277752876281738,-0.8166828751564026,-0.09780482947826385,0.47842708230018616,2.177715539932251,3.998544216156006,0.30216914415359497,-0.03433931618928909,-0.11329393088817596,0.11997669190168381
463,24570,24567,0.033180393278598785,-0.05313562601804733,1.0098785161972046,-1.426306128501892,-0.8037163019180298,0.14680702984333038,2.1773388385772705,3.996901512145996,0.30181244015693665,0.07822053134441376,-0.04936420917510986,0.08225075155496597
464,24580,24577,-0.02138025127351284,-0.009715749882161617,1.0527406930923462,-1.1124851703643799,-3.323296308517456,1.6154121160507202,2.1776273250579834,3.9977078437805176,0.30181828141212463,0.10527078807353973,-0.08425228297710419,0.13454201817512512
465,24590,24587,-0.0023431775625795126,-0.11130291223526001,1.0218976736068726,-0.3469555974006653,2.8900318145751953,0.6689985394477844,2.180105209350586,3.99798846244812,0.3013891577720642,-0.01782403327524662,-0.09715168923139572,0.12920762598514557
466,24600,24597,0.004096211399883032,-0.012412447482347488,1.0230941772460938,0.8261637091636658,3.336944341659546,1.069474697113037,2.180663824081421,3.998013973236084,0.301071435213089,-0.03560566157102585,-0.09846997261047363,0.11482355743646622
467,24610,24607,0.020009838044643402,-0.06149717792868614,0.9930974245071411,2.4411399364471436,2.7284321784973145,1.0448756217956543,2.182488203048706,3.9975783824920654,0.3006247878074646,-0.14561183750629425,-0.08278696984052658,0.16078342497348785
468,24620,24617,0.025652781128883362,-0.05479390174150467,1.0065854787826538,1.4096896648406982,3.007460355758667,0.6322689056396484,2.1822965145111084,3.9968574047088623,0.3004259169101715,-0.15984830260276794,-0.04591090977191925,0.12344414740800858
469,24630,24627,-0.01688014343380928,0.05862729251384735,1.039612889289856,0.7389693856239319,1.5874810218811035,1.0942103862762451,2.182830333709717,3.9968972206115723,0.3001214861869812,-0.1640118956565857,-0.024632012471556664,0.1289067268371582
470,24640,24637,0.037517204880714417,-0.06398928910493851,1.0010871887207031,-0.16289542615413666,-1.1668472290039062,1.1739670038223267,2.183835506439209,3.9960241317749023,0.2996561825275421,-0.055682845413684845,-0.01678088679909706,0.08961363136768341
471,24650,24647,-0.01861231029033661,-0.007550831418484449,1.0550543069839478,-1.6943234205245972,-1.8015412092208862,0.9942154288291931,2.184877872467041,3.996100664138794,0.29935646057128906,-0.15662811696529388,-0.02854832075536251,0.053041428327560425
472,24660,24657,0.02231357991695404,-0.013556689955294132,1.0290212631225586,-0.5321182012557983,-2.744586229324341,0.6582419276237488,2.1855008602142334,3.995192527770996,0.2991320788860321,-0.088162362575531,-0.054834891110658646,0.04030695930123329
473,24670,24667,0.045299872756004333,-0.028058582916855812,1.0367209911346436,-0.15612097084522247,-2.279393434524536,1.3688591718673706,2.1852355003356934,3.995241641998291,0.2988603413105011,-0.03426937013864517,-0.07407349348068237,0.07433036714792252
474,24680,24677,0.04852466657757759,-0.09343362599611282,1.0601556301116943,-0.9025276899337769,-1.099717378616333,1.272919774055481,2.186933755874634,3.9955251216888428,0.2987132668495178,-0.13468080759048462,-0.08903263509273529,0.11161268502473831
475,24690,24687,0.04842757061123848,-0.07905197143554688,1.080084204673767,-0.33330491185188293,-0.12373524159193039,0.6294576525688171,2.1867640018463135,3.99523663520813,0.2986495792865753,-0.004233718849718571,-0.09540354460477829,0.09267064183950424
476,24700,24697,-0.019766446202993393,0.09620163589715958,1.0218335390090942,-1.2662485837936401,1.653384804725647,0.034476928412914276,2.188061237335205,3.995094060897827,0.2985086143016815,-0.0709257572889328,-0.1096087321639061,0.09352048486471176
477,24710,24707,-0.020616624504327774,0.11921045929193497,0.9895235896110535,0.20425812900066376,2.309936046600342,0.05654797703027725,2.1895394325256348,3.995042562484741,0.29839977622032166,-0.16192513704299927,-0.1257171928882599,0.09049549698829651
478,24720,24717,-0.025420887395739555,0.06477741152048111,1.0026620626449585,0.7259550094604492,1.1985549926757812,0.4739167094230652,2.190356492996216,3.994879961013794,0.2986181676387787,-0.14584529399871826,-0.10644765198230743,0.08222784847021103
