,timestamp_start,timestamp_end,acc.x,acc.y,acc.z,gyro.x,gyro.y,gyro.z,stateEstimate.x,stateEstimate.y,stateEstimate.z,stabilizer.pitch,stabilizer.roll,stabilizer.yaw
0,20521,20518,-0.015890881419181824,0.03213759884238243,1.0088218450546265,-5.906320095062256,-4.820539951324463,-1.1315312385559082,1.9943957328796387,4.0620222091674805,0.18074120581150055,-0.24567276239395142,-0.7096121907234192,3.225224256515503
1,20531,20528,-0.01934841275215149,0.06880549341440201,1.0361080169677734,-4.795588970184326,-8.302111625671387,-0.8188390731811523,1.993260145187378,4.065166473388672,0.17983749508857727,-0.27223753929138184,-0.7570400834083557,3.2194037437438965
2,20541,20538,0.008792925626039505,-0.006438455078750849,1.0136117935180664,-1.7935068607330322,-9.07684326171875,-1.0031037330627441,1.9937130212783813,4.064242362976074,0.18139566481113434,-0.1796230971813202,-0.7843149900436401,3.2121527194976807
3,20551,20548,-0.017855340614914894,0.0011116459500044584,1.0616109371185303,2.553112745285034,-11.342551231384277,-0.8532472252845764,1.993120789527893,4.063652992248535,0.18303903937339783,0.018643343821167946,-0.8265519738197327,3.194960355758667
4,20561,20558,-0.02756420522928238,0.07324331253767014,0.9926390051841736,5.130483627319336,-9.228229522705078,-0.5769942402839661,1.9937204122543335,4.063785552978516,0.18385428190231323,0.2083345651626587,-0.805271327495575,3.181159257888794
5,20571,20568,-0.035230010747909546,0.06478072702884674,0.9909265637397766,6.030440330505371,-7.7065324783325195,-0.210567444562912,1.9936723709106445,4.065417766571045,0.18548965454101562,0.1394253969192505,-0.7477560639381409,3.1928446292877197
6,20581,20578,-0.0039078230038285255,-0.10286647826433182,1.081742763519287,6.162879467010498,-4.725870132446289,-0.1450333297252655,1.995442271232605,4.067203521728516,0.18724425137043,0.20490263402462006,-0.603548526763916,3.1965389251708984
7,20591,20588,0.033085860311985016,-0.07367563247680664,1.0095744132995605,4.678930282592773,-2.9505975246429443,-0.439182311296463,1.9963955879211426,4.067997932434082,0.18895529210567474,0.3072820007801056,-0.5546528697013855,3.191211700439453
8,20601,20598,-0.005375548731535673,-0.004789404105395079,1.0079221725463867,1.4288843870162964,0.30481934547424316,-0.44797781109809875,1.9948112964630127,4.069420337677002,0.1910848319530487,-0.08227095752954483,-0.3838014602661133,3.223706007003784
9,20611,20608,0.023457763716578484,-0.03617813438177109,1.018441915512085,-2.077462673187256,0.343269944190979,-1.3276054859161377,1.9974372386932373,4.071037292480469,0.19281885027885437,0.010138616897165775,-0.4177766740322113,3.2133617401123047
10,20621,20618,0.037191446870565414,-0.13536664843559265,1.0222067832946777,-3.540024757385254,-3.0542311668395996,-1.7018868923187256,1.9980909824371338,4.073908805847168,0.1948753446340561,0.09126491844654083,-0.4939512610435486,3.1957204341888428
11,20631,20628,-0.018014758825302124,-0.08814781159162521,0.9995641112327576,-4.429699897766113,-8.261580467224121,-1.6829997301101685,1.9970065355300903,4.07581090927124,0.19551505148410797,0.07333578169345856,-0.5116118788719177,3.181697130203247
12,20641,20638,-0.005115563049912453,-0.04805745556950569,0.9892892241477966,-3.7250990867614746,-12.559637069702148,-1.3129395246505737,1.99781334400177,4.075689792633057,0.19721616804599762,0.21285933256149292,-0.6080682873725891,3.159226655960083
13,20651,20648,-0.034843940287828445,0.09072510898113251,1.0343105792999268,-0.6913450956344604,-15.687169075012207,-0.9121065735816956,1.9975621700286865,4.075789928436279,0.19901825487613678,0.34330564737319946,-0.670534074306488,3.144695997238159
14,20661,20658,0.0070271785371005535,0.016746528446674347,1.0420602560043335,1.5146088600158691,-14.033910751342773,-1.1584924459457397,1.9974840879440308,4.075411796569824,0.19982436299324036,0.5698297619819641,-0.7603682279586792,3.1322429180145264
15,20671,20668,-0.029620766639709473,0.13966357707977295,0.9444146156311035,3.85506534576416,-9.711613655090332,-1.0486822128295898,1.997436285018921,4.077291011810303,0.20155178010463715,0.818874716758728,-0.730935275554657,3.1190743446350098
16,20681,20678,-0.04279675707221031,0.08717627078294754,1.057908058166504,6.579019069671631,-5.784313678741455,-1.4226239919662476,1.995937466621399,4.0757646560668945,0.20325154066085815,0.980740487575531,-0.6562691926956177,3.0993363857269287
17,20691,20688,0.011215321719646454,-0.021667275577783585,1.0976698398590088,5.966947555541992,-0.6855095624923706,-1.239545226097107,1.993126392364502,4.073164939880371,0.20496772229671478,0.7812750339508057,-0.7917091846466064,3.111525535583496
18,20701,20698,0.0039297109469771385,-0.015963632613420486,1.0435699224472046,6.1053571701049805,2.691588878631592,-1.216732144355774,1.9944244623184204,4.073807716369629,0.20871515572071075,0.8877752423286438,-0.7409176230430603,3.092668294906616
19,20711,20708,-0.054441239684820175,0.046370621770620346,1.051804542541504,5.664199352264404,4.837528228759766,-1.6943331956863403,1.9935073852539062,4.074807643890381,0.21071699261665344,0.3518278896808624,-0.10682788491249084,3.07867693901062
20,20721,20718,0.02086593396961689,-0.06829798966646194,1.0089932680130005,5.098647117614746,6.299197196960449,-1.6894378662109375,1.9965101480484009,4.069679260253906,0.21336452662944794,0.3724045157432556,-0.06825602799654007,3.0594143867492676
21,20731,20728,0.007117145229130983,-0.05996456369757652,1.0067627429962158,3.9799001216888428,-0.1465173214673996,-2.022348403930664,1.9972120523452759,4.0706305503845215,0.21365347504615784,0.3988896906375885,-0.043441858142614365,3.041442394256592
22,20741,20738,-0.012202305719256401,0.02488897368311882,1.0316784381866455,-2.274099588394165,-6.906503200531006,-1.864396095275879,1.9970331192016602,4.071060657501221,0.21582552790641785,0.5025759935379028,-0.13385342061519623,3.0266242027282715
23,20751,20748,-0.03955744206905365,0.07896534353494644,0.9618785381317139,-6.433211803436279,-12.49388313293457,-1.7422595024108887,1.9960618019104004,4.070171356201172,0.2181674838066101,0.6982846856117249,-0.20957307517528534,3.008244752883911
24,20761,20758,-0.053090132772922516,0.05767781659960747,0.9610804915428162,-8.260547637939453,-17.021953582763672,-1.7224171161651611,1.9956371784210205,4.07016134262085,0.22055085003376007,0.8168301582336426,-0.3336617052555084,2.998105525970459
25,20771,20768,-0.001381720881909132,-0.038823921233415604,0.9894371032714844,-7.8145551681518555,-16.11275291442871,-2.0874462127685547,1.9956222772598267,4.0706658363342285,0.22257107496261597,0.9678674340248108,-0.32760146260261536,2.9753482341766357
26,20781,20778,-0.06621410697698593,-0.044982876628637314,1.077152132987976,-3.625466823577881,-10.512207984924316,-1.9449372291564941,1.9950212240219116,4.069748878479004,0.22455649077892303,1.2384333610534668,-0.4436611235141754,2.9593822956085205
27,20791,20788,-0.00540041783824563,-0.0511905774474144,0.9979369044303894,-0.8839418292045593,-3.1927497386932373,-1.967306137084961,1.9935256242752075,4.069583892822266,0.22569818794727325,1.4061782360076904,-0.5866448879241943,2.9509642124176025
28,20801,20798,-0.007706301752477884,-0.0023565127048641443,0.9945405721664429,3.403024673461914,2.8581340312957764,-2.0949487686157227,1.9928841590881348,4.069833278656006,0.22763364017009735,1.4497445821762085,-0.5791416764259338,2.9317786693573
29,20811,20808,0.02328360266983509,-0.05322993919253349,0.9562928676605225,5.264325141906738,8.66564655303955,-1.5227385759353638,1.9926198720932007,4.068944454193115,0.22965022921562195,1.3918259143829346,-0.5233042240142822,2.9064385890960693
30,20821,20818,-0.016921307891607285,-0.01139978040009737,1.010162115097046,7.315204620361328,13.051626205444336,-1.2803955078125,1.9907019138336182,4.0699357986450195,0.23176318407058716,1.1689249277114868,-0.652716875076294,2.9155685901641846
31,20831,20828,-0.004735616501420736,0.0012415441451594234,0.9732041358947754,7.5865397453308105,14.684761047363281,-1.7497750520706177,1.990114688873291,4.071099281311035,0.23343609273433685,0.8308093547821045,-0.35803496837615967,2.875563383102417
32,20841,20838,-0.004195022396743298,-0.011403212323784828,0.9958128929138184,6.126498699188232,11.067741394042969,-1.3897733688354492,1.9908961057662964,4.068817138671875,0.2355499416589737,0.7351164221763611,-0.09800854325294495,2.8339388370513916
33,20851,20848,-0.0005668590310961008,0.002033135388046503,0.9901893734931946,5.058995723724365,5.392633438110352,-2.145148754119873,1.9909802675247192,4.068089008331299,0.23747360706329346,2.2568581104278564,0.7936660647392273,2.68477725982666
34,20861,20858,-0.0703086405992508,0.07746900618076324,0.9712396264076233,-1.2367603778839111,0.15203668177127838,-0.806950032711029,1.9775776863098145,4.059062480926514,0.2403659075498581,2.1033055782318115,0.7164519429206848,2.685206174850464
35,20871,20868,-0.05458292365074158,0.037290628999471664,0.9260032176971436,-12.356683731079102,4.379146575927734,-0.4725763499736786,1.9755120277404785,4.06015682220459,0.24329911172389984,1.9106669425964355,0.5243543386459351,2.7015907764434814
36,20881,20878,-0.005775325000286102,-0.026936829090118408,0.9290732741355896,-23.23517417907715,14.307657241821289,-0.33303311467170715,1.9759283065795898,4.061346530914307,0.24654801189899445,1.8029329776763916,0.2558101415634155,2.726064443588257
37,20891,20888,0.0848180428147316,-0.09948787838220596,0.9674555063247681,-27.91521453857422,22.210697174072266,-1.6128594875335693,1.9741296768188477,4.061737060546875,0.25053438544273376,1.5249378681182861,-0.17355118691921234,2.752157688140869
38,20901,20898,0.11022255569696426,-0.17878074944019318,0.9983131885528564,-28.63222312927246,30.31488037109375,-1.325321078300476,1.974320650100708,4.062819480895996,0.2529613673686981,1.2722935676574707,-0.552841067314148,2.7573182582855225
39,20911,20908,0.05324922874569893,-0.2087171971797943,1.0127570629119873,-22.103742599487305,35.3543701171875,-1.75204336643219,1.9729647636413574,4.061673641204834,0.25523945689201355,0.7319532632827759,-0.9011760950088501,2.736757516860962
40,20921,20918,-0.01283328514546156,0.04641730710864067,0.975843071937561,-11.332101821899414,34.1199836730957,-1.6275714635849,1.97334623336792,4.063552379608154,0.25753822922706604,0.4159334897994995,-1.169530987739563,2.7221813201904297
41,20931,20928,-0.007269598543643951,0.0037049383390694857,0.9625176191329956,0.8118429183959961,29.86421012878418,-1.328104019165039,1.9710787534713745,4.0632643699646,0.2578790485858917,0.06559514999389648,-1.3118294477462769,2.70255970954895
42,20941,20938,0.01693257875740528,-0.03905246779322624,0.9258865714073181,10.039626121520996,21.644912719726562,-1.6113508939743042,1.970173954963684,4.063536167144775,0.2597562372684479,-0.33220362663269043,-1.3312773704528809,2.6870317459106445
43,20951,20948,0.025934526696801186,-0.005109146703034639,0.9028178453445435,16.828737258911133,12.410196304321289,-2.096519708633423,1.9704005718231201,4.0645880699157715,0.26157528162002563,-0.5697059631347656,-1.130904197692871,2.65793514251709
44,20961,20958,0.014033369719982147,-0.03257821127772331,0.9232988357543945,20.77188491821289,3.000835657119751,-1.7303043603897095,1.9703881740570068,4.063727855682373,0.2621144652366638,-0.7914977669715881,-1.0685480833053589,2.6413090229034424
45,20971,20968,0.06124452129006386,0.0106056472286582,0.8886401057243347,19.35664939880371,-3.8565094470977783,-1.517327904701233,1.9706321954727173,4.06717586517334,0.2636428773403168,-0.7897546887397766,-1.0377185344696045,2.626222848892212
46,20981,20978,0.04911995679140091,0.10273582488298416,0.9074307680130005,12.692612648010254,-7.113285064697266,-1.466959834098816,1.96923828125,4.069815158843994,0.2650738060474396,-0.6992285847663879,-0.7438047528266907,2.6123299598693848
47,20991,20988,-0.001101134461350739,0.09713972359895706,0.9276585578918457,6.905325412750244,-6.664985179901123,-1.7145140171051025,1.9682714939117432,4.070549011230469,0.2674379348754883,-0.659517228603363,-0.7852050065994263,2.596153497695923
48,21001,20998,-0.014176969416439533,0.07580039650201797,0.9729416966438293,1.320703387260437,-3.86840558052063,-1.3352001905441284,1.967652678489685,4.07217264175415,0.26877063512802124,-0.6395776867866516,-0.9832165837287903,2.5671677589416504
49,21011,21008,-0.028038498014211655,0.043441541492938995,0.9798871278762817,-1.195845365524292,-0.15794320404529572,-1.7335065603256226,1.9662609100341797,4.073646068572998,0.26998892426490784,-0.6745802164077759,-0.9236217737197876,2.5579986572265625
50,21021,21018,0.012052750214934349,-0.03315819799900055,0.9000089764595032,0.4232580065727234,4.095064640045166,-2.1895382404327393,1.9667789936065674,4.074657917022705,0.27136915922164917,-0.6967748999595642,-0.8790625333786011,2.5432913303375244
51,21031,21028,0.04669595882296562,-0.07455256581306458,0.894885241985321,6.922693252563477,7.42413330078125,-1.879536509513855,1.9668453931808472,4.074318885803223,0.27144721150398254,-0.7737032175064087,-0.9258573055267334,2.5149312019348145
52,21041,21038,0.005329872947186232,0.019057003781199455,0.9231337904930115,12.71705150604248,6.675748825073242,-1.8389182090759277,1.966110348701477,4.075016975402832,0.2724962830543518,-0.9429847002029419,-0.7908478379249573,2.5075206756591797
53,21051,21048,-0.016024980694055557,0.014320737682282925,0.9670199155807495,17.34496307373047,5.7939534187316895,-1.9794394969940186,1.9668645858764648,4.074668884277344,0.27357083559036255,-0.9355083107948303,-0.7212026119232178,2.475799322128296
54,21061,21058,0.018707530573010445,-0.06992737203836441,0.8977453708648682,19.308887481689453,2.6412267684936523,-1.8035799264907837,1.9650195837020874,4.0757269859313965,0.27289777994155884,-1.0594079494476318,-0.5838621258735657,2.45599365234375
55,21071,21068,0.003003323683515191,-0.031447649002075195,0.9347180724143982,18.988052368164062,-0.0681726485490799,-1.1990442276000977,1.9646860361099243,4.076876163482666,0.27365341782569885,-1.0427844524383545,-0.2733794152736664,2.4514999389648438
56,21081,21078,0.037634801119565964,-0.2553856372833252,0.930504322052002,16.995887756347656,-3.3966963291168213,-1.767725944519043,1.9623010158538818,4.075348377227783,0.27442431449890137,-1.0506163835525513,-0.3020511865615845,2.407541036605835
57,21091,21088,0.03217047080397606,-0.12051095068454742,0.9303898215293884,12.852903366088867,-6.254810810089111,-1.7748305797576904,1.9619553089141846,4.078963279724121,0.2759452164173126,-1.00518798828125,0.02600201405584812,2.4183311462402344
58,21101,21098,-0.0183721836656332,-0.0030761421658098698,1.0022835731506348,10.24999713897705,-7.089725017547607,-1.9380145072937012,1.9614901542663574,4.07792854309082,0.2766956388950348,-0.9375724196434021,0.1298121064901352,2.396477222442627
59,21111,21108,-0.006060699466615915,0.006647793110460043,0.9824866652488708,7.495118618011475,-10.934762001037598,-2.1251420974731445,1.9596978425979614,4.078426361083984,0.27738937735557556,-0.8372542262077332,0.18721650540828705,2.369297981262207
60,21121,21118,-0.03895549476146698,-0.004178245551884174,0.9654321074485779,3.1541690826416016,-4.430293083190918,-2.0517807006835938,1.959348201751709,4.080057621002197,0.2779654264450073,-0.7592214345932007,0.18396317958831787,2.33571457862854
61,21131,21128,0.04351290315389633,-0.09098506718873978,0.9823063015937805,2.022578239440918,-1.6908628940582275,-1.839827299118042,1.9590681791305542,4.081493377685547,0.2792821228504181,-0.8054389357566833,0.30090421438217163,2.333828926086426
62,21141,21138,-0.02412346377968788,0.05610765144228935,1.0048130750656128,2.6695146560668945,0.11914058774709702,-2.086576223373413,1.9592499732971191,4.082669258117676,0.27997004985809326,-0.8067947030067444,0.3252009153366089,2.3168482780456543
63,21151,21148,-0.015111098065972328,0.008151248097419739,0.9815759062767029,4.848933219909668,-0.005370816215872765,-2.141895294189453,1.9587838649749756,4.0832743644714355,0.2805566191673279,-0.8251637816429138,0.3657502830028534,2.2963762283325195
64,21161,21158,0.007196552585810423,-0.061681006103754044,0.9584290981292725,6.2139763832092285,0.9320303201675415,-2.4240307807922363,1.9569981098175049,4.082147121429443,0.28164350986480713,-0.8434565663337708,0.438883900642395,2.279872417449951
65,21171,21168,0.012203536927700043,-0.0645560547709465,0.9544376730918884,7.584932327270508,-2.728276252746582,-2.333163022994995,1.956684947013855,4.082184791564941,0.28222694993019104,-0.8344208002090454,0.3061021864414215,2.2181832790374756
66,21181,21178,-0.04931749030947685,0.08064065873622894,0.9627479314804077,9.351175308227539,-5.9426727294921875,-1.7349369525909424,1.955626368522644,4.083400726318359,0.2827460467815399,-0.7698224782943726,0.45159533619880676,2.205779552459717
67,21191,21188,-0.0052230884321033955,-0.057240504771471024,1.0077909231185913,8.719768524169922,-8.810559272766113,-1.0997321605682373,1.9543304443359375,4.085016250610352,0.283107191324234,-0.6465664505958557,0.5295008420944214,2.186164379119873
68,21201,21198,0.004869511816650629,-0.10728612542152405,1.0449683666229248,8.83415412902832,-5.845737457275391,-1.6961545944213867,1.952272653579712,4.08467960357666,0.2835632860660553,-0.6120617389678955,0.6720668077468872,2.1786749362945557
69,21211,21208,-0.024750428274273872,0.02207670360803604,1.0205680131912231,7.923559665679932,-5.207388401031494,-1.3194448947906494,1.9524929523468018,4.084451675415039,0.28412026166915894,-0.597909152507782,0.7939047813415527,2.1653499603271484
70,21221,21218,-0.01823539286851883,-0.010429846122860909,1.0195069313049316,6.327010154724121,-3.665863037109375,-1.104296326637268,1.9526636600494385,4.083449840545654,0.2854854166507721,-0.6039410829544067,0.8140754699707031,2.138843297958374
71,21231,21228,-0.04554954171180725,-0.009876863099634647,1.0323712825775146,2.378361701965332,-4.085833549499512,-1.1338781118392944,1.9519060850143433,4.082388877868652,0.2860966920852661,-0.5353672504425049,0.8683627843856812,2.1309921741485596
72,21241,21238,0.0010840098839253187,-0.019422955811023712,0.98267662525177,-0.5681382417678833,-2.4433789253234863,-1.3533763885498047,1.9514707326889038,4.082592487335205,0.28675785660743713,-0.47822046279907227,0.8651041388511658,2.118370771408081
73,21251,21248,-0.029199710115790367,0.014132183976471424,0.990172803401947,-2.102332830429077,3.0502145290374756,-1.2079685926437378,1.9513076543807983,4.083129405975342,0.2873970568180084,-0.5559223294258118,0.9014825820922852,2.0990121364593506
74,21261,21258,-0.02701546438038349,0.13329002261161804,0.9872161746025085,-2.364766836166382,9.92232608795166,-0.79139643907547,1.951913833618164,4.083690166473389,0.2897065579891205,-0.6561629772186279,0.7630679607391357,2.0650277137756348
75,21271,21268,-0.0034544887021183968,0.026110073551535606,0.9929054975509644,-0.6033520698547363,14.58119010925293,-0.3972887098789215,1.9524638652801514,4.084479808807373,0.2903922498226166,-0.8457715511322021,0.8029776811599731,2.0584771633148193
76,21281,21278,0.04647242650389671,0.016870491206645966,1.0045579671859741,2.9739649295806885,15.506983757019043,-0.33993569016456604,1.9524290561676025,4.081473350524902,0.29106149077415466,-0.7719954252243042,0.8769963383674622,2.1006667613983154
77,21291,21288,0.022282078862190247,0.003724172944203019,0.9980617165565491,4.328222751617432,11.712388038635254,-1.0218946933746338,1.9503093957901,4.0811052322387695,0.29084768891334534,-0.9870525598526001,0.7584733366966248,2.064728021621704
78,21301,21298,0.009321478195488453,-0.04666908085346222,0.9731566905975342,3.851200819015503,8.628478050231934,-1.1316510438919067,1.9520378112792969,4.083723545074463,0.2914752960205078,-1.1383169889450073,0.8916165232658386,2.0627388954162598
79,21311,21308,-0.03260410204529762,0.016616418957710266,1.017795443534851,5.385197639465332,4.839569568634033,-0.9268499612808228,1.9523059129714966,4.083205699920654,0.29213279485702515,-1.1511236429214478,0.8670164346694946,2.0535972118377686
80,21321,21318,0.016166649758815765,-0.028009962290525436,0.9655860662460327,4.587012767791748,2.2717106342315674,-1.3862425088882446,1.9513959884643555,4.0832390785217285,0.2900162637233734,-1.1127550601959229,1.0061582326889038,2.067739725112915
81,21331,21328,0.019111527130007744,0.02116914838552475,0.9591507911682129,5.049546718597412,-0.5886142253875732,-1.1123360395431519,1.9492133855819702,4.080986499786377,0.29050421714782715,-1.1282769441604614,1.1296602487564087,2.0707340240478516
82,21341,21338,0.0030670713167637587,-0.0009665597463026643,0.989290714263916,2.4585940837860107,-0.32255011796951294,-1.2220968008041382,1.9490923881530762,4.080756664276123,0.29092344641685486,-1.180372714996338,1.072391390800476,2.033216714859009
83,21351,21348,-0.05455277860164642,0.057988349348306656,1.0339819192886353,1.1827127933502197,-1.8102859258651733,-0.6386046409606934,1.9481251239776611,4.080054759979248,0.2912430465221405,-1.136712908744812,1.1433993577957153,2.0354197025299072
84,21361,21358,-0.025398919358849525,0.016952339559793472,1.000338077545166,-0.7119234204292297,2.1545562744140625,-0.3940882384777069,1.9480395317077637,4.080995082855225,0.29403772950172424,-1.199697494506836,1.1810516119003296,2.0215940475463867
85,21371,21368,-0.0106656514108181,-0.015608338639140129,1.011872410774231,-3.1502530574798584,5.0832905769348145,-0.6924954652786255,1.948186993598938,4.0803446769714355,0.2945430278778076,-1.2337210178375244,1.176568865776062,2.0168023109436035
86,21381,21378,-0.021099774166941643,0.019724229350686073,1.0166668891906738,-4.321000099182129,7.116497039794922,-0.7530854344367981,1.9485400915145874,4.081089019775391,0.295070618391037,-1.310861587524414,1.1384788751602173,2.0068390369415283
87,21391,21388,0.07116609066724777,0.030308375135064125,0.916881799697876,-4.4263997077941895,6.846722602844238,-0.9856600761413574,1.948447585105896,4.081571102142334,0.2961651086807251,-1.408348560333252,1.0880732536315918,1.9968067407608032
88,21401,21398,0.0005988284829072654,-0.005865783896297216,0.9869791269302368,-4.120708465576172,4.187632083892822,-0.9801141619682312,1.9486631155014038,4.081615447998047,0.2966575622558594,-1.4667840003967285,1.0327504873275757,1.9884878396987915
89,21411,21408,-0.07355929166078568,-0.0028886389918625355,1.0005624294281006,-3.673069953918457,1.004309058189392,-0.761693000793457,1.9485210180282593,4.081743240356445,0.297162264585495,-1.4728901386260986,0.9853492975234985,1.9808275699615479
90,21421,21418,-0.0029127143789082766,-0.03165976330637932,0.9712720513343811,-2.3557469844818115,-0.25480198860168457,-1.2975642681121826,1.9480786323547363,4.083476543426514,0.2968476116657257,-1.512298583984375,0.9580056071281433,1.9668023586273193
91,21431,21428,0.004733799025416374,-0.04027315601706505,0.971997857093811,-0.4504689574241638,-4.641113758087158,-0.44675928354263306,1.9484659433364868,4.08326530456543,0.29723674058914185,-1.4213835000991821,1.0305380821228027,1.9892287254333496
92,21441,21438,-0.015040152706205845,-0.0032385876402258873,1.0096930265426636,0.9542408585548401,-6.356042861938477,-0.05462441220879555,1.9473258256912231,4.082282066345215,0.2977263033390045,-1.286376714706421,1.0399837493896484,2.0017755031585693
93,21451,21448,0.010624305345118046,-0.030765924602746964,0.9820454716682434,0.34693172574043274,-5.371557235717773,0.06331628561019897,1.9454373121261597,4.079948902130127,0.2973312437534332,-1.386793851852417,1.0521726608276367,1.974245309829712
94,21461,21458,0.00829223170876503,-0.020485317334532738,0.9920583367347717,-1.1537352800369263,-3.278913974761963,0.16994039714336395,1.9465206861495972,4.079803466796875,0.29762935638427734,-1.3383783102035522,1.0457271337509155,1.9724336862564087
95,21471,21468,0.0699501484632492,-0.16726627945899963,1.0341864824295044,-4.978792190551758,-1.2832542657852173,-0.18746286630630493,1.945871353149414,4.077704906463623,0.29790571331977844,-1.2463929653167725,0.9125573039054871,1.966187834739685
96,21481,21478,0.035870764404535294,-0.19845101237297058,1.0505225658416748,-7.773975372314453,0.7389967441558838,-0.6998975276947021,1.9455724954605103,4.0785908699035645,0.29831838607788086,-1.3352057933807373,0.8139446377754211,1.9383153915405273
97,21491,21488,0.060098107904195786,-0.044958557933568954,0.9097731709480286,-7.782533168792725,1.369911551475525,-0.4445092976093292,1.9461596012115479,4.0784125328063965,0.29811906814575195,-1.3879268169403076,0.6962683796882629,1.9185469150543213
98,21501,21498,-0.0035287069622427225,0.007008443120867014,0.9643763303756714,-6.777256488800049,-0.632984459400177,-0.34424155950546265,1.9460567235946655,4.077908515930176,0.2983742952346802,-1.3308378458023071,0.6620541214942932,1.9340612888336182
99,21511,21508,-0.0009373323409818113,-0.019961753860116005,0.9948610067367554,-4.418918132781982,-3.2776906490325928,-0.03601323068141937,1.945458173751831,4.077444076538086,0.29874974489212036,-1.3922560214996338,0.6526756882667542,1.9319860935211182
100,21521,21518,0.042022705078125,-0.03727513924241066,0.960637629032135,-0.795178234577179,-5.246228218078613,0.5961517095565796,1.9452866315841675,4.075523376464844,0.30036208033561707,-1.2591228485107422,0.6140788197517395,1.9481784105300903
101,21531,21528,0.043750613927841187,-0.06386137753725052,0.9495088458061218,0.9273970723152161,-6.472307205200195,0.8678299188613892,1.9430127143859863,4.073212623596191,0.3007214367389679,-1.2488861083984375,0.767008364200592,1.9779857397079468
102,21541,21538,-0.024024667218327522,-0.14466728270053864,1.0351558923721313,1.509183645248413,-6.718204975128174,1.1506016254425049,1.9440524578094482,4.072310447692871,0.300974577665329,-1.211776614189148,0.7722117900848389,1.9820218086242676
103,21551,21548,-0.03152400627732277,-0.17308273911476135,1.0217459201812744,-0.5158275365829468,-5.455921173095703,0.9369567632675171,1.9438279867172241,4.069775581359863,0.3000287413597107,-1.166442632675171,0.7656904458999634,1.983091115951538
104,21561,21558,-0.04611671715974808,-0.05896410718560219,0.9853416085243225,-5.083437442779541,-4.036422252655029,0.398406982421875,1.9448171854019165,4.069861888885498,0.30023327469825745,-1.1404355764389038,0.7776203155517578,1.989128589630127
105,21571,21568,-0.03957998380064964,-0.0036631363909691572,1.0207425355911255,-9.10953426361084,-1.6636488437652588,0.7807492017745972,1.9450160264968872,4.0672101974487305,0.3003847002983093,-1.0835233926773071,0.635779857635498,1.9838287830352783
106,21581,21578,-0.016786767169833183,0.021653950214385986,1.0147658586502075,-10.768306732177734,-2.424999237060547,0.40708306431770325,1.9443974494934082,4.065979480743408,0.3006441593170166,-0.9525002241134644,0.6088255047798157,2.0153844356536865
107,21591,21588,-0.04513312876224518,0.03280375897884369,1.0583717823028564,-10.798933982849121,-2.891679286956787,0.6866967082023621,1.9440933465957642,4.064371109008789,0.30001509189605713,-1.0473370552062988,0.48335400223731995,2.0026917457580566
108,21601,21598,-0.05256831645965576,0.01546965166926384,1.0060486793518066,-9.02427864074707,-3.6200289726257324,0.7979422211647034,1.945021629333496,4.06190824508667,0.3001554012298584,-0.8932539224624634,0.37289199233055115,2.018150806427002
109,21611,21608,-0.02338799089193344,0.01875169388949871,1.0221476554870605,-6.7726006507873535,-4.438555717468262,0.6907590627670288,1.9441134929656982,4.062078952789307,0.3005830645561218,-0.8958077430725098,0.2969553768634796,2.0231411457061768
110,21621,21618,0.030876414850354195,-0.04687081277370453,0.967751681804657,-3.7691726684570312,-4.6826605796813965,0.5237400531768799,1.9445496797561646,4.0601935386657715,0.2981586158275604,-0.8796261548995972,0.3417474031448364,2.0415074825286865
111,21631,21628,-0.005545699968934059,-0.016277939081192017,0.9882120490074158,-1.5048006772994995,-4.272546291351318,0.25729483366012573,1.9458637237548828,4.059494972229004,0.2982448637485504,-0.8627585768699646,0.2637961506843567,2.03340482711792
112,21641,21638,-0.008111933246254921,0.00042204721830785275,1.0242775678634644,-0.5982481241226196,-5.017149448394775,0.4040958285331726,1.9469232559204102,4.057940483093262,0.29834750294685364,-0.8315193057060242,0.21296200156211853,2.0338833332061768
113,21651,21648,-0.022516800090670586,-0.02189759351313114,1.017831802368164,-1.7381300926208496,-4.718931198120117,1.4340068101882935,1.9472851753234863,4.056242942810059,0.29895415902137756,-0.8714724183082581,0.24660004675388336,2.038132667541504
114,21661,21658,-0.026287132874131203,-0.019321514293551445,1.010401964187622,-5.331854343414307,-2.6468825340270996,1.7784841060638428,1.948606252670288,4.055389404296875,0.2990645170211792,-0.7721493244171143,0.23048155009746552,2.0566582679748535
115,21671,21668,0.024578440934419632,-0.0508890338242054,0.969028890132904,-5.992020130157471,-3.9977591037750244,1.629189133644104,1.9482084512710571,4.054502010345459,0.29927322268486023,-0.6045392751693726,0.10389725863933563,2.0724527835845947
116,21681,21678,-0.011202514171600342,-0.06310310959815979,1.0458247661590576,-7.149322986602783,-4.6460795402526855,1.4845234155654907,1.9481663703918457,4.0562262535095215,0.29964762926101685,-0.6567972898483276,0.12273566424846649,2.092074155807495
117,21691,21688,0.04856676608324051,-0.08307812362909317,0.9622790217399597,-7.565977096557617,-3.3889968395233154,1.0308550596237183,1.9494043588638306,4.05418062210083,0.2977408766746521,-0.47437363862991333,-0.03369675576686859,2.1027629375457764
118,21701,21698,-0.0646420270204544,0.06625422090291977,1.0235157012939453,-6.900043964385986,-3.4362449645996094,1.3097569942474365,1.9491727352142334,4.05449914932251,0.29800012707710266,-0.5304288268089294,-0.09809067100286484,2.115090847015381
119,21711,21708,-0.07937166839838028,0.0636000707745552,1.0300878286361694,-5.5043840408325195,-2.6188149452209473,1.5796390771865845,1.950713038444519,4.054903984069824,0.2980061173439026,-0.513336181640625,-0.07556332647800446,2.1348299980163574
120,21721,21718,-0.015133388340473175,0.0018597044982016087,1.0292589664459229,-3.6321117877960205,-2.384965419769287,1.5714446306228638,1.9515278339385986,4.053629398345947,0.2977382242679596,-0.5151863098144531,-0.11039227247238159,2.151724338531494
121,21731,21728,-0.008486474864184856,0.009500272572040558,1.0275306701660156,-2.2370188236236572,-2.954416275024414,1.9667974710464478,1.952883005142212,4.053686141967773,0.2978367805480957,-0.4346995949745178,-0.1226121038198471,2.168649673461914
122,21741,21738,0.004421560559421778,-0.020547043532133102,1.0366023778915405,-3.527545213699341,-1.6100455522537231,2.316262722015381,1.9528497457504272,4.053112506866455,0.2980389893054962,-0.586783230304718,-0.2061367928981781,2.187129259109497
123,21751,21748,0.06217954680323601,-0.06408818066120148,1.0515717267990112,-3.3179616928100586,-3.593075752258301,1.9950919151306152,1.9558942317962646,4.0535712242126465,0.299093633890152,-0.3975416421890259,-0.2109784185886383,2.207848310470581
124,21761,21758,0.05354801565408707,-0.06037876754999161,0.9874147772789001,-4.06871223449707,-7.386234283447266,2.110166549682617,1.9550399780273438,4.05203914642334,0.2995763123035431,-0.254108726978302,-0.30361875891685486,2.2252509593963623
125,21771,21768,-0.019722992554306984,0.009801729582250118,1.0520262718200684,-4.334719657897949,-8.589118003845215,2.3092384338378906,1.9552077054977417,4.0516815185546875,0.2999652624130249,-0.312208354473114,-0.39797714352607727,2.255265474319458
126,21781,21778,0.016820378601551056,-0.01850658655166626,1.0050028562545776,-3.2285709381103516,-10.60482120513916,2.653326988220215,1.957253098487854,4.052476406097412,0.3002053499221802,-0.028003046289086342,-0.32331499457359314,2.273867130279541
127,21791,21788,-0.0939476266503334,0.17934070527553558,0.9978504776954651,-1.4622859954833984,-6.593665599822998,2.5989458560943604,1.9568599462509155,4.052236557006836,0.29990455508232117,-0.09615691751241684,-0.3115789592266083,2.3033483028411865
128,21801,21798,-0.042980752885341644,0.045381348580121994,0.9779430031776428,-0.7717938423156738,-3.384204149246216,2.951540470123291,1.9593887329101562,4.051482200622559,0.30009740591049194,0.10114087909460068,-0.3620359003543854,2.3228108882904053
129,21811,21808,0.019451117143034935,-0.05791007727384567,0.9703593850135803,-0.8415448665618896,0.34753382205963135,3.013645648956299,1.9590364694595337,4.050710201263428,0.3005176782608032,0.06800585985183716,-0.33007559180259705,2.355945587158203
130,21821,21818,0.061254482716321945,-0.08361627161502838,0.9723847508430481,-3.102478265762329,4.5630645751953125,3.26723313331604,1.9601998329162598,4.049091815948486,0.30125734210014343,-0.1069658026099205,-0.4029320180416107,2.39705753326416
131,21831,21828,-0.023605354130268097,0.07198493927717209,1.011984944343567,-3.227238178253174,2.149531364440918,3.2998225688934326,1.962664008140564,4.048748970031738,0.3014388382434845,-0.021271521225571632,-0.47872450947761536,2.4269776344299316
132,21841,21838,0.00746193015947938,-0.014024723321199417,0.9801509380340576,-3.241271495819092,0.5161539316177368,3.8613672256469727,1.9618642330169678,4.049068927764893,0.3015791177749634,-0.08733431249856949,-0.48190850019454956,2.4641170501708984
133,21851,21848,0.04125486686825752,-0.02814916893839836,0.9509708881378174,-1.5187486410140991,-2.001439332962036,3.111846923828125,1.9636090993881226,4.049036026000977,0.30548128485679626,-0.1803949773311615,-0.46254295110702515,2.5071489810943604
134,21861,21858,0.041180506348609924,-0.03235440328717232,0.9879140853881836,-1.7753630876541138,-3.4820048809051514,3.156564235687256,1.9658209085464478,4.047725200653076,0.3059127628803253,-0.08833146095275879,-0.5216968059539795,2.5317089557647705
135,21871,21868,0.00181919289752841,0.002800695365294814,1.0024757385253906,-1.3818364143371582,-6.552402496337891,3.187819004058838,1.9664828777313232,4.047302722930908,0.3064585030078888,-0.029271768406033516,-0.5671948790550232,2.5583643913269043
136,21881,21878,-0.0028478458989411592,-0.03580748662352562,0.992974579334259,-0.6960020065307617,-8.90052604675293,3.1543619632720947,1.9686678647994995,4.04730224609375,0.3063459098339081,0.07081672549247742,-0.5999233722686768,2.590142250061035
137,21891,21888,0.06252387911081314,-0.0495930016040802,0.9838677644729614,0.5087649822235107,-9.271302223205566,3.1384196281433105,1.9700605869293213,4.047580242156982,0.30676791071891785,0.17481353878974915,-0.6171824932098389,2.6239309310913086
138,21901,21898,0.015825998038053513,-0.0020380886271595955,0.994598388671875,1.9201644659042358,-8.071404457092285,3.00704026222229,1.9692988395690918,4.047169208526611,0.3068033456802368,0.27747684717178345,-0.604739248752594,2.6458868980407715
139,21911,21908,0.022132130339741707,-0.03723866865038872,0.9748456478118896,2.7920773029327393,-5.794267177581787,2.8946855068206787,1.970928430557251,4.045483112335205,0.307576984167099,0.3471371829509735,-0.5755678415298462,2.676403045654297
140,21921,21918,-0.07372064888477325,0.01604621484875679,1.0229685306549072,3.435074806213379,-2.1547348499298096,2.8633792400360107,1.9708020687103271,4.044618129730225,0.30980178713798523,0.5259947180747986,-0.45670634508132935,2.683260202407837
141,21931,21928,-0.13263407349586487,0.08382830768823624,0.9703581929206848,3.507866144180298,1.9588165283203125,3.0659046173095703,1.9716320037841797,4.043521881103516,0.3109034597873688,0.3889518678188324,-0.41435837745666504,2.723665475845337
142,21941,21938,-0.048454880714416504,0.10609707236289978,0.904532790184021,0.7618023157119751,4.88505744934082,2.798368215560913,1.9732567071914673,4.0431599617004395,0.3113119900226593,0.3454004228115082,-0.47860732674598694,2.752553701400757
143,21951,21948,-0.021727880463004112,0.03353063389658928,0.9623613357543945,-1.5279313325881958,4.801171779632568,2.168818712234497,1.9750338792800903,4.043265342712402,0.3130233585834503,0.27854645252227783,-0.5037689208984375,2.7738680839538574
144,21961,21958,-0.011581572704017162,-0.02744811587035656,0.9720609784126282,-2.33959698677063,3.2783961296081543,2.6662049293518066,1.9750186204910278,4.042925834655762,0.31302571296691895,0.32176345586776733,-0.5449087023735046,2.7914133071899414
145,21971,21968,0.04846625775098801,-0.16151556372642517,0.9850949048995972,-2.2475790977478027,0.264333575963974,2.661498785018921,1.9750959873199463,4.041810035705566,0.31353265047073364,0.3253873288631439,-0.4360800087451935,2.791813373565674
146,21981,21978,0.025945032015442848,-0.08558359742164612,0.9959465861320496,-0.3372776508331299,-0.8745416402816772,2.5296077728271484,1.9760043621063232,4.0413713455200195,0.3120272755622864,0.4284079968929291,-0.4712601900100708,2.81622576713562
147,21991,21988,0.01994292438030243,-0.059273771941661835,0.9519064426422119,2.2831597328186035,-2.9449782371520996,2.4260945320129395,1.9751206636428833,4.040877819061279,0.3123796880245209,0.30838990211486816,-0.46997764706611633,2.8555097579956055
148,22001,21998,-0.01903447136282921,0.10185405611991882,0.9062085151672363,1.399234652519226,0.5449345111846924,2.719513416290283,1.9770523309707642,4.040992736816406,0.3125971257686615,0.40507423877716064,-0.5325140953063965,2.875415325164795
149,22011,22008,-0.029855802655220032,0.001993398880586028,0.9858763813972473,1.0917247533798218,1.9212050437927246,2.758497476577759,1.9770162105560303,4.040604114532471,0.31289994716644287,0.320883572101593,-0.5135546326637268,2.9107065200805664
150,22021,22018,-0.12015336751937866,-0.036594390869140625,1.0377799272537231,0.9310560822486877,3.194091320037842,2.9115047454833984,1.9785451889038086,4.039836406707764,0.31229814887046814,0.38060617446899414,-0.5009652376174927,2.919870376586914
151,22031,22028,-0.030150625854730606,-0.042813196778297424,0.9797321557998657,0.3667018413543701,5.419735431671143,3.1473608016967773,1.978474736213684,4.0394287109375,0.3124624490737915,0.24280433356761932,-0.4952584207057953,2.9596548080444336
152,22041,22038,0.009750010445713997,-0.036147814244031906,0.9642008543014526,1.1334433555603027,5.368719577789307,3.195852518081665,1.979790210723877,4.039524078369141,0.3125084936618805,0.2458828240633011,-0.4811123013496399,2.9825222492218018
153,22051,22048,-0.09154127538204193,-0.03003581054508686,0.9733546376228333,1.6964884996414185,3.021392345428467,3.0612189769744873,1.9800546169281006,4.039271354675293,0.3114401698112488,0.20545002818107605,-0.45577824115753174,3.0102670192718506
154,22061,22058,0.04729505255818367,-0.11205548793077469,0.9852846264839172,1.191545844078064,2.7326202392578125,3.5425515174865723,1.980486273765564,4.03807258605957,0.3114495873451233,0.23614846169948578,-0.515177845954895,3.0352559089660645
155,22071,22068,0.005440093576908112,-0.16013401746749878,0.9855661392211914,2.6643779277801514,0.8994658589363098,3.5686020851135254,1.9805964231491089,4.0388641357421875,0.31149107217788696,0.21589337289333344,-0.4736456871032715,3.0663866996765137
156,22081,22078,-0.016567768529057503,-0.11448287963867188,0.8956627249717712,2.566615343093872,-0.3115224540233612,3.8038523197174072,1.9807507991790771,4.03844690322876,0.3110415041446686,0.14516328275203705,-0.4985359013080597,3.1162831783294678
157,22091,22088,-0.013099203817546368,-0.01628282107412815,0.9640927314758301,2.0816292762756348,0.1084437295794487,3.9770047664642334,1.9819828271865845,4.0382513999938965,0.310912162065506,0.23313409090042114,-0.4473167657852173,3.1352577209472656
158,22101,22098,-0.012873532250523567,-0.013630827888846397,1.0055875778198242,1.6193079948425293,1.0174906253814697,3.876321792602539,1.98190438747406,4.037654399871826,0.3108117878437042,0.30304041504859924,-0.3320138156414032,3.1562507152557373
159,22111,22108,-0.010048715397715569,-0.025067757815122604,0.9801028966903687,1.8465750217437744,1.5867385864257812,4.069798469543457,1.9817858934402466,4.035690784454346,0.31068429350852966,0.20049533247947693,-0.3770936131477356,3.197695732116699
160,22121,22118,0.004490504041314125,-0.029855994507670403,0.9874745607376099,2.328489303588867,2.7845523357391357,4.55812406539917,1.9833256006240845,4.036175727844238,0.3120627701282501,0.2362535148859024,-0.3354986310005188,3.2266249656677246
161,22131,22128,-0.07158499211072922,0.010335804894566536,1.0950247049331665,1.9567043781280518,5.671975612640381,3.756340742111206,1.9835904836654663,4.035799026489258,0.31200844049453735,0.24220629036426544,-0.2985028624534607,3.265671730041504
162,22141,22138,0.007486189715564251,-0.11734748631715775,1.0962539911270142,1.0779672861099243,6.590816020965576,4.461719036102295,1.9834506511688232,4.034756183624268,0.3119519352912903,0.04537379369139671,-0.2823267877101898,3.3146603107452393
163,22151,22148,0.06913287192583084,-0.14419706165790558,1.055701732635498,1.6458048820495605,6.276934623718262,4.045637607574463,1.9852361679077148,4.03488826751709,0.31325942277908325,0.09581992030143738,-0.3275631368160248,3.3467674255371094
164,22161,22158,0.014175056479871273,-0.03416954353451729,0.9950025677680969,0.490233451128006,6.812018394470215,3.8200128078460693,1.9835892915725708,4.034699440002441,0.3134942948818207,-0.031221900135278702,-0.3080623149871826,3.3935811519622803
165,22171,22168,-0.01327608898282051,-0.01580076850950718,0.9859824180603027,0.7821556925773621,5.9570722579956055,3.9032928943634033,1.984381079673767,4.034164905548096,0.3136700689792633,-0.1354047954082489,-0.3649560809135437,3.4437332153320312
166,22181,22178,-0.03423458710312843,0.1408751904964447,0.9744434356689453,1.7280646562576294,3.822521686553955,3.9969043731689453,1.9850183725357056,4.035085201263428,0.3151838779449463,-0.37163257598876953,-0.3291260302066803,3.492465019226074
167,22191,22188,-0.04356532171368599,0.048258520662784576,1.0243686437606812,2.7749598026275635,-0.4866165816783905,3.3800454139709473,1.987168312072754,4.03493070602417,0.3153075873851776,-0.2603428363800049,-0.2670190930366516,3.5231895446777344
168,22201,22198,-0.016255244612693787,-0.008416460826992989,1.0194218158721924,3.0796637535095215,-1.890539526939392,3.898837089538574,1.9872164726257324,4.034735679626465,0.3156841993331909,-0.15292546153068542,-0.20670130848884583,3.5493481159210205
169,22211,22208,-0.033480431884527206,-0.1014929711818695,1.0287761688232422,3.163745164871216,-2.461578130722046,3.6545331478118896,1.9866647720336914,4.034478664398193,0.31539830565452576,-0.10250671207904816,-0.29714474081993103,3.5963804721832275
170,22221,22218,-0.022071730345487595,-0.07104891538619995,1.0562148094177246,3.1858973503112793,-2.876591920852661,3.403351068496704,1.9870491027832031,4.035556316375732,0.31564781069755554,-0.2173188179731369,-0.3067625164985657,3.62983775138855
171,22231,22228,-0.012894670478999615,-0.07061479240655899,1.018273949623108,2.754016637802124,-2.0060782432556152,3.507507562637329,1.9888172149658203,4.036839962005615,0.3158193826675415,-0.09095121920108795,-0.23487263917922974,3.678341865539551
172,22241,22238,0.007112844847142696,-0.04056642949581146,0.9936167597770691,3.764713764190674,-1.440471887588501,2.071932792663574,1.9886623620986938,4.036078453063965,0.316260427236557,0.0020846824627369642,-0.24489377439022064,3.6939830780029297
173,22251,22248,0.07702745497226715,-0.21960611641407013,1.0001806020736694,4.144436359405518,0.3376201093196869,2.675886631011963,1.9886410236358643,4.036534786224365,0.3140072226524353,-0.09932541102170944,-0.24398840963840485,3.722813606262207
174,22261,22258,0.02311183698475361,-0.07763015478849411,0.9952094554901123,4.506266117095947,1.6131902933120728,2.447899580001831,1.9899853467941284,4.036402702331543,0.3141140639781952,-0.028996393084526062,-0.21725372970104218,3.7380595207214355
175,22271,22268,-0.10379195958375931,-0.02971539832651615,1.001198649406433,3.5515682697296143,3.9677977561950684,2.25104022026062,1.9898157119750977,4.0366902351379395,0.31432071328163147,0.0018463185988366604,-0.11984019726514816,3.7398569583892822
176,22281,22278,-0.028991660103201866,-0.03212185949087143,0.9940683245658875,4.066004276275635,5.541163444519043,3.2633073329925537,1.9898263216018677,4.036471366882324,0.31168168783187866,-0.09203659743070602,-0.10976153612136841,3.7809176445007324
177,22291,22288,-0.007033537607640028,-0.010342961177229881,0.9864010810852051,3.9218852519989014,6.886316776275635,2.5542545318603516,1.9908899068832397,4.036336421966553,0.3116322457790375,-0.27370092272758484,-0.016570324078202248,3.8242738246917725
178,22301,22298,0.08541932702064514,-0.0871487632393837,0.9965819120407104,5.050390243530273,5.9469099044799805,1.9977715015411377,1.9923689365386963,4.037105560302734,0.3115217089653015,-0.38305532932281494,0.0022883780766278505,3.8488621711730957
179,22311,22308,0.022906318306922913,-0.14987614750862122,1.0056957006454468,4.505704402923584,4.502721309661865,1.7339433431625366,1.9931365251541138,4.037761211395264,0.30899685621261597,-0.4529954195022583,0.02970348671078682,3.8714213371276855
180,22321,22318,-0.01576361060142517,-0.10717150568962097,0.9215322732925415,3.624591827392578,0.888237714767456,1.9589893817901611,1.9938527345657349,4.037883758544922,0.3087669014930725,-0.39667508006095886,0.1255314201116562,3.874579906463623
181,22331,22328,-0.023590967059135437,-0.006200803443789482,0.9622413516044617,2.620516061782837,-2.044342517852783,1.9930671453475952,1.9937126636505127,4.0381083488464355,0.3086305558681488,-0.370412677526474,0.12386962026357651,3.9182653427124023
182,22341,22338,-0.1542184054851532,0.06654760241508484,1.1144248247146606,1.7337231636047363,-2.7090513706207275,1.6358813047409058,1.993836522102356,4.037993907928467,0.3084166646003723,-0.2981809377670288,0.18981176614761353,3.924504280090332
183,22351,22348,-0.11820092797279358,0.11516277492046356,0.983445942401886,1.5748541355133057,-1.6236541271209717,1.9941223859786987,1.9943962097167969,4.0377044677734375,0.30637454986572266,-0.32309502363204956,0.08974642306566238,3.936979293823242
184,22361,22358,-0.058296218514442444,0.12455680966377258,0.9329183101654053,0.3087625503540039,-0.10604570806026459,1.705815315246582,1.9954688549041748,4.038459777832031,0.30601125955581665,-0.3962517976760864,0.05485419183969498,3.9424006938934326
185,22371,22368,0.042497120797634125,-0.0474664606153965,1.0232913494110107,-0.37756216526031494,2.454633951187134,2.4404544830322266,1.996332049369812,4.0391316413879395,0.3056294023990631,-0.33507513999938965,0.08389680832624435,3.964078426361084
186,22381,22378,0.0492507629096508,-0.08040162920951843,1.0604268312454224,1.4763833284378052,0.7912039160728455,1.7582186460494995,1.9967925548553467,4.0389084815979,0.306947261095047,-0.43074971437454224,0.12716862559318542,3.989722490310669
187,22391,22388,0.0382283553481102,-0.04527822881937027,0.9446044564247131,3.477268934249878,2.1753122806549072,1.5378139019012451,1.9989086389541626,4.038682460784912,0.30668866634368896,-0.5191872119903564,0.130452960729599,3.990767478942871
188,22401,22398,0.015038850717246532,-0.020677443593740463,0.9879063963890076,4.7413787841796875,1.0094656944274902,1.8230770826339722,2.000404119491577,4.039011001586914,0.30640485882759094,-0.44023868441581726,0.2338351458311081,4.010497093200684
189,22411,22408,0.029265424236655235,-0.15268148481845856,1.0664231777191162,4.675806045532227,-0.07479063421487808,1.8707456588745117,1.9997167587280273,4.038760185241699,0.30584195256233215,-0.4896698296070099,0.25705236196517944,4.039737224578857
190,22421,22418,-0.006163049954921007,-0.04915237799286842,1.0545175075531006,4.840035915374756,-1.7476016283035278,1.5845988988876343,2.0011351108551025,4.039276599884033,0.3055157959461212,-0.4483960270881653,0.2919665277004242,4.036722660064697
191,22431,22428,-0.01894708350300789,0.06629107892513275,0.9578426480293274,3.159264087677002,-3.137998342514038,1.6456202268600464,2.0018012523651123,4.038844585418701,0.30531764030456543,-0.43079233169555664,0.3401568531990051,4.052326679229736
192,22441,22438,-0.07543563842773438,0.016622526571154594,1.0699914693832397,1.0904861688613892,-2.8399901390075684,1.6448553800582886,2.002117156982422,4.038489818572998,0.30574554204940796,-0.2478535920381546,0.42780616879463196,4.075850486755371
193,22451,22448,0.011636343784630299,-0.04242318123579025,1.0134040117263794,-0.13817857205867767,-3.903017282485962,1.375794529914856,2.0016205310821533,4.038515567779541,0.30568307638168335,-0.2544390559196472,0.3036293387413025,4.084108352661133
194,22461,22458,-0.014994706958532333,-0.003462533000856638,1.0317648649215698,-1.2625596523284912,-3.783926248550415,1.4903616905212402,2.0022356510162354,4.039860725402832,0.3055585026741028,-0.25767984986305237,0.318302720785141,4.096485137939453
195,22471,22468,0.016546012833714485,-0.037640973925590515,1.0043206214904785,-0.631499171257019,-1.720314383506775,0.9736498594284058,2.003441333770752,4.040046691894531,0.3054608404636383,-0.1299104243516922,0.33197373151779175,4.114020347595215
196,22481,22478,-0.01584072783589363,-0.0017727490048855543,1.0513023138046265,-0.7328369617462158,-0.5228864550590515,1.369526982307434,2.00307035446167,4.039913654327393,0.3077522814273834,-0.26048681139945984,0.343722939491272,4.117445945739746
197,22491,22488,0.01065197866410017,-0.03268861398100853,0.9973005652427673,0.5693937540054321,1.1813697814941406,0.8284112215042114,2.0048301219940186,4.039590835571289,0.3077777624130249,-0.1775970160961151,0.36559587717056274,4.1228227615356445
198,22501,22498,-0.05629926174879074,0.03636007755994797,1.0334672927856445,0.57342529296875,0.8534202575683594,0.9219831228256226,2.0042293071746826,4.039801597595215,0.3080241084098816,-0.18591716885566711,0.390320360660553,4.152332305908203
199,22511,22508,-0.03647509962320328,0.011612857691943645,1.0298048257827759,0.10149777680635452,-0.47845298051834106,0.2958362400531769,2.0046021938323975,4.038414001464844,0.309438019990921,-0.19614939391613007,0.39251601696014404,4.134550094604492
200,22521,22518,0.017884012311697006,-0.14642848074436188,0.9745851159095764,-0.3302667438983917,0.4672197699546814,0.8626514673233032,2.0057873725891113,4.039468288421631,0.309673011302948,-0.16201189160346985,0.3582969903945923,4.150542259216309
201,22531,22528,0.048141513019800186,-0.16063565015792847,1.026328206062317,-0.7682678699493408,-0.3369975984096527,0.5107996463775635,2.006063938140869,4.039509296417236,0.31003251671791077,-0.14342135190963745,0.3660444915294647,4.162472248077393
202,22541,22538,0.028443116694688797,-0.056774064898490906,0.9931904077529907,-2.091540813446045,0.4863954484462738,0.39565080404281616,2.00667667388916,4.039322376251221,0.3131406307220459,-0.2861027121543884,0.2789669632911682,4.137886047363281
203,22551,22548,0.003513479372486472,-0.012666678056120872,0.9889541864395142,-1.5840932130813599,0.3134952187538147,0.4122576415538788,2.008819103240967,4.039576053619385,0.3135010004043579,-0.19244378805160522,0.27591970562934875,4.131080150604248
204,22561,22558,-0.020470313727855682,0.001517985831014812,0.9953405857086182,-0.7079024910926819,-0.752056896686554,-0.02943817712366581,2.0093066692352295,4.038555145263672,0.3140607476234436,-0.17256535589694977,0.3512793183326721,4.122140407562256
205,22571,22568,-0.023594221100211143,0.06797263771295547,1.0742504596710205,0.6130983233451843,-1.7339866161346436,-0.33472928404808044,2.0100836753845215,4.037982940673828,0.314534455537796,-0.28493502736091614,0.3644433617591858,4.113815784454346
206,22581,22578,-0.035785119980573654,0.03780991956591606,1.0575181245803833,0.3091152310371399,-4.763099193572998,0.8254777193069458,2.0116100311279297,4.037837028503418,0.3163015842437744,-0.13603271543979645,0.3812519907951355,4.122955799102783
207,22591,22588,0.04825836047530174,-0.09765568375587463,0.9848592877388,-0.22622939944267273,-1.7879371643066406,-0.34928226470947266,2.0106985569000244,4.037646293640137,0.3170613646507263,-0.3114238977432251,0.38411110639572144,4.111316680908203
208,22601,22598,0.09845340996980667,-0.06782332807779312,1.0196837186813354,-2.5492992401123047,0.32562318444252014,-0.17961619794368744,2.013495922088623,4.0381011962890625,0.31757351756095886,-0.27931347489356995,0.28084540367126465,4.120960712432861
209,22611,22608,0.03493116796016693,-0.11904936283826828,1.0813817977905273,-3.7234959602355957,-1.3082654476165771,-0.5430459976196289,2.0141758918762207,4.039030075073242,0.31516894698143005,-0.2165037840604782,0.09118976444005966,4.136208534240723
210,22621,22618,0.036311108618974686,-0.06243985891342163,0.9602141380310059,-5.14004373550415,-2.1256842613220215,-1.208511233329773,2.0142059326171875,4.040874004364014,0.3156847357749939,-0.1541387438774109,0.1987643986940384,4.128668785095215
211,22631,22628,0.005705231335014105,-0.005266442429274321,0.9545108079910278,-2.420715808868408,-3.6554794311523438,-0.7751884460449219,2.0153706073760986,4.040114402770996,0.31683236360549927,-0.08268994837999344,0.15497975051403046,4.122252941131592
212,22641,22638,4.01437864638865e-05,-0.024714060127735138,0.9572462439537048,-2.1873557567596436,-2.8796873092651367,-1.7048449516296387,2.0147223472595215,4.039495944976807,0.31952884793281555,0.05981002375483513,0.2109411060810089,4.095712661743164
213,22651,22648,0.024844493716955185,-0.0997968465089798,0.9779475331306458,-2.263488531112671,-2.7557272911071777,-1.9867618083953857,2.014824151992798,4.038937091827393,0.3208632171154022,-0.1917080134153366,0.09846590459346771,4.082685470581055
214,22661,22658,-0.026998722925782204,-0.011879711411893368,0.9328182935714722,-0.6689832806587219,-1.3093712329864502,-1.7966760396957397,2.0170061588287354,4.038812160491943,0.3207273781299591,-0.05414045602083206,0.10127914696931839,4.063873767852783
215,22671,22668,0.023573553189635277,0.010003644973039627,0.8892632126808167,-0.5626866817474365,-0.018648050725460052,-2.0877199172973633,2.016737699508667,4.039905548095703,0.32141992449760437,-0.11230283230543137,0.10455689579248428,4.0583977699279785
216,22681,22678,0.028870796784758568,-0.01387547142803669,0.9110448360443115,0.10334456712007523,-2.2588741779327393,-1.6000826358795166,2.0174872875213623,4.040002346038818,0.3184144198894501,-0.21574020385742188,0.11913419514894485,4.041766166687012
217,22691,22688,0.007803041022270918,-0.09956882148981094,1.1071197986602783,-0.2897048592567444,-1.0946335792541504,-2.1942505836486816,2.0190510749816895,4.04000186920166,0.3185427784919739,-0.13912354409694672,0.12683287262916565,4.007662296295166
218,22701,22698,0.02763601392507553,-0.05122344195842743,0.9705994725227356,0.4533405005931854,-0.21459920704364777,-3.2818899154663086,2.0194437503814697,4.04028844833374,0.31874287128448486,-0.09936483204364777,0.21102206408977509,4.006221294403076
219,22711,22708,0.012108933180570602,0.026852624490857124,0.9102715253829956,-1.8091603517532349,-1.4135547876358032,-2.644998788833618,2.0204033851623535,4.039161682128906,0.3179875314235687,-0.12170998752117157,0.1984296441078186,3.9846582412719727
220,22721,22718,0.0001340576563961804,-0.014836033806204796,0.9469101428985596,-3.2401106357574463,-2.9852328300476074,-3.3299765586853027,2.021576166152954,4.040140151977539,0.31805017590522766,-0.043532274663448334,0.15780183672904968,3.970663547515869
221,22731,22728,0.008182071149349213,-0.03064029850065708,0.8854859471321106,-4.70664644241333,-3.527406692504883,-2.7579691410064697,2.0231263637542725,4.039858341217041,0.31806623935699463,-0.03681594133377075,0.020829102024435997,3.9118356704711914
222,22741,22738,-0.008226647041738033,0.0006540523027069867,0.9454020261764526,-3.7510204315185547,-4.264737606048584,-2.9363865852355957,2.0227344036102295,4.040442943572998,0.31542670726776123,-0.01654779724776745,-0.03804503008723259,3.883457899093628
223,22751,22748,0.05225915461778641,-0.04222778230905533,0.8897517919540405,-3.1095962524414062,-2.16510009765625,-3.030241012573242,2.023944616317749,4.039822578430176,0.31512001156806946,0.0572984553873539,-0.07896656543016434,3.8265645503997803
224,22761,22758,0.01360789593309164,0.04003986716270447,1.0314056873321533,-0.9255962371826172,-3.890486240386963,-2.619870662689209,2.0244805812835693,4.038928985595703,0.31479236483573914,0.004408617038279772,-0.022015415132045746,3.76434063911438
225,22771,22768,-0.029601125046610832,0.07776877284049988,0.9916231632232666,1.4297871589660645,-1.8821539878845215,-2.138840436935425,2.0262622833251953,4.038080215454102,0.312892884016037,0.00575711764395237,-0.0036552941892296076,3.7290470600128174
226,22781,22778,-0.017821205779910088,0.00324073014780879,0.962483286857605,2.4806110858917236,-1.366503119468689,-2.150482654571533,2.0270586013793945,4.037786960601807,0.3123457431793213,0.14179396629333496,0.03738122060894966,3.723606824874878
227,22791,22788,-0.02005097270011902,0.04384886100888252,1.0611430406570435,2.3715245723724365,0.288066565990448,-2.59568452835083,2.02707839012146,4.037930965423584,0.3119578957557678,0.03208265081048012,0.006617103237658739,3.7002077102661133
228,22801,22798,-0.012599356472492218,-0.0023947067093104124,1.0270802974700928,0.31768542528152466,1.6904875040054321,-3.0019285678863525,2.029254674911499,4.037827968597412,0.31134262681007385,-0.02079547382891178,0.03215532377362251,3.6550333499908447
229,22811,22808,0.007074085064232349,-0.04524190351366997,0.9736985564231873,-1.244160771369934,1.255122423171997,-3.065716505050659,2.0310745239257812,4.037692546844482,0.310190886259079,0.08277647942304611,0.03093012236058712,3.6129300594329834
230,22821,22818,-0.05074528232216835,4.923230517306365e-05,0.9667834043502808,-0.8424021005630493,-1.8279188871383667,-3.1181163787841797,2.0311782360076904,4.0380706787109375,0.30982840061187744,0.13796241581439972,-0.12507566809654236,3.594007730484009
231,22831,22828,-0.03428000584244728,-0.023332636803388596,0.9667454361915588,-1.347747802734375,-2.35366153717041,-2.827928066253662,2.031336545944214,4.039483070373535,0.30935147404670715,0.2753017842769623,-0.1191880851984024,3.5792810916900635
232,22841,22838,-0.008996293880045414,0.03263365104794502,0.9720853567123413,0.41314172744750977,-0.09186983108520508,-3.327268123626709,2.031456232070923,4.039247989654541,0.31233125925064087,0.2987630367279053,-0.10369905084371567,3.523810863494873
233,22851,22848,0.030474679544568062,0.0071845934726297855,1.0315985679626465,1.0874948501586914,0.5562906861305237,-2.2155601978302,2.0320801734924316,4.038660526275635,0.31203997135162354,0.08658149093389511,-0.07123202085494995,3.483696460723877
234,22861,22858,-0.05010918900370598,0.062108173966407776,0.9940382242202759,5.463994026184082,0.5731484293937683,-2.361152172088623,2.0350325107574463,4.039056301116943,0.311594694852829,0.19341400265693665,0.020688261836767197,3.4342451095581055
235,22871,22868,-0.039540845900774,0.034369051456451416,1.0188168287277222,3.901003122329712,4.798101425170898,-2.399322748184204,2.0353684425354004,4.038424015045166,0.3139127492904663,0.1724977195262909,0.11046357452869415,3.4208850860595703
236,22881,22878,-0.02603002078831196,0.0855979174375534,1.056514024734497,4.470012664794922,1.404090166091919,-3.14453387260437,2.036416530609131,4.037778854370117,0.3137371242046356,0.012218417599797249,0.11719005554914474,3.396430492401123
237,22891,22888,-0.04353957995772362,0.07421603798866272,0.9994056820869446,1.4401414394378662,1.2757844924926758,-2.939518690109253,2.038905143737793,4.0387139320373535,0.3134829103946686,0.010497302748262882,0.1554565131664276,3.3618574142456055
238,22901,22898,-0.09816820174455643,0.12486729770898819,0.9692789316177368,-0.8879995346069336,0.3418917953968048,-3.0758721828460693,2.0394392013549805,4.039000034332275,0.31351807713508606,0.09352846443653107,0.18054437637329102,3.3358564376831055
239,22911,22908,-0.05606939271092415,0.08079946041107178,1.0147396326065063,-1.3010907173156738,-2.215256690979004,-3.9558773040771484,2.0407581329345703,4.039758682250977,0.3107403516769409,0.04843415319919586,0.09012254327535629,3.2811920642852783
240,22921,22918,-0.05731954425573349,0.09674129635095596,1.138320803642273,-3.412400484085083,-2.4410200119018555,-3.342308521270752,2.0404577255249023,4.039471626281738,0.3105533719062805,0.16610291600227356,-0.01029705349355936,3.2640717029571533
241,22931,22928,-0.01741255819797516,0.008168220520019531,1.0621131658554077,-1.282317876815796,-2.619934558868408,-2.6905524730682373,2.041776418685913,4.039552211761475,0.3102725148200989,0.18874458968639374,-0.03646170720458031,3.225848913192749
242,22941,22938,-0.04032129421830177,0.08695214241743088,1.0038063526153564,1.1596732139587402,-1.6604106426239014,-3.090630054473877,2.0422215461730957,4.040472984313965,0.3070710003376007,0.22921235859394073,-0.023970389738678932,3.1938016414642334
243,22951,22948,0.0102698290720582,0.01850113458931446,0.9763185381889343,2.2544147968292236,2.594780445098877,-2.483704090118408,2.042668104171753,4.039482116699219,0.3068006634712219,0.26272329688072205,0.029634298756718636,3.137744665145874
244,22961,22958,-9.414587839273736e-05,0.010179992765188217,1.0227662324905396,6.966006278991699,0.34247130155563354,-2.2525722980499268,2.0424294471740723,4.039468765258789,0.3065846562385559,0.1006738692522049,0.022016962990164757,3.1015267372131348
245,22971,22968,-0.025043543428182602,-0.03729027509689331,1.0583540201187134,6.45741605758667,1.0577566623687744,-1.8770742416381836,2.044919729232788,4.040619850158691,0.30742552876472473,0.09865754842758179,0.0917634665966034,3.1296091079711914
246,22981,22978,0.025043686851859093,-0.07327844947576523,1.0135505199432373,5.651560306549072,2.9825878143310547,-3.1381239891052246,2.046091079711914,4.041235446929932,0.307282954454422,0.07026265561580658,0.14284475147724152,3.134115695953369
247,22991,22988,0.016127606853842735,-0.006766241509467363,0.9935389161109924,3.4853804111480713,2.0716867446899414,-3.0367021560668945,2.0465214252471924,4.041835308074951,0.3071833848953247,0.0481632761657238,0.24872653186321259,3.09967041015625
248,23001,22998,0.050662845373153687,-0.07152407616376877,1.0168647766113281,1.9382660388946533,0.14544567465782166,-2.2713725566864014,2.0473830699920654,4.0422682762146,0.30707740783691406,0.05416987091302872,0.24300603568553925,3.0713274478912354
249,23011,23008,0.03848700597882271,-0.08891972154378891,0.9794189929962158,-0.14259445667266846,-0.4862411916255951,-2.601029634475708,2.048098087310791,4.042540073394775,0.306302011013031,0.0707407221198082,0.28962254524230957,3.022758960723877
250,23021,23018,0.039907149970531464,-0.06549559533596039,0.9714662432670593,-0.9114513397216797,-1.2497817277908325,-2.5219311714172363,2.0475878715515137,4.042428016662598,0.30621522665023804,0.1657605916261673,0.296764075756073,3.043107509613037
251,23031,23028,0.05150424316525459,-0.08777641505002975,1.0337166786193848,-1.3058663606643677,-2.2697715759277344,-1.690560221672058,2.0487334728240967,4.043311595916748,0.3060121238231659,0.12819857895374298,0.14112652838230133,3.0237655639648438
252,23041,23038,0.1283557415008545,-0.21017365157604218,1.0452070236206055,0.36056292057037354,-1.1836211681365967,-2.1642820835113525,2.048275947570801,4.044351577758789,0.30732327699661255,0.2709042429924011,0.16399289667606354,3.027313470840454
253,23051,23048,0.03708798810839653,-0.027500933036208153,1.060249924659729,2.2627077102661133,1.0903899669647217,-2.3277902603149414,2.051159381866455,4.045681476593018,0.3072150945663452,0.05112481862306595,0.13193251192569733,3.0203638076782227
254,23061,23058,-0.0071603283286094666,0.058919623494148254,1.1215295791625977,3.1096441745758057,2.1869680881500244,-2.951158046722412,2.0511128902435303,4.045402526855469,0.30734410881996155,0.15758797526359558,0.21628479659557343,2.982243061065674
255,23071,23068,-0.03889873996376991,0.025848787277936935,1.06563138961792,3.4812605381011963,4.137721538543701,-2.4381468296051025,2.051163911819458,4.0461225509643555,0.3070388436317444,0.2070883959531784,0.22329656779766083,2.9747567176818848
256,23081,23078,0.02494349144399166,-0.06508791446685791,0.9659209847450256,4.163522720336914,4.521198749542236,-2.5563225746154785,2.0530965328216553,4.045251846313477,0.3071579039096832,0.07755190879106522,0.318064421415329,2.9331512451171875
257,23091,23088,-0.01955796591937542,0.003397604450583458,1.0308294296264648,3.725250005722046,3.3744754791259766,-2.338606595993042,2.0549235343933105,4.045299053192139,0.30720898509025574,-0.12425146251916885,0.4140637218952179,2.903148651123047
258,23101,23098,-0.016291402280330658,0.005623645149171352,1.029219627380371,2.190187931060791,2.0084378719329834,-2.2128500938415527,2.055415630340576,4.045772552490234,0.3075146973133087,-0.062393829226493835,0.41254401206970215,2.8758533000946045
259,23111,23108,-0.033020760864019394,0.052971769124269485,1.0082979202270508,0.15406151115894318,1.0799349546432495,-2.5884757041931152,2.0552499294281006,4.045768737792969,0.3093145787715912,0.0022375998087227345,0.380013108253479,2.8447399139404297
260,23121,23118,0.02067657746374607,0.0008712477865628898,0.9863299131393433,-0.7729958295822144,-2.5367584228515625,-2.041332483291626,2.05540132522583,4.045804023742676,0.3097090423107147,0.10376283526420593,0.32151350378990173,2.7989821434020996
261,23131,23128,-0.04863839969038963,0.06291500478982925,0.9787614345550537,-0.7636176347732544,-3.718564510345459,-2.174114227294922,2.0551161766052246,4.045818328857422,0.31010618805885315,0.1630193591117859,0.34434986114501953,2.7488083839416504
262,23141,23138,-0.05977275222539902,0.045678094029426575,1.0190274715423584,-0.6509175300598145,-2.077366590499878,-2.2324461936950684,2.055899143218994,4.045802593231201,0.3099597096443176,0.22094738483428955,0.3578490614891052,2.7495064735412598
263,23151,23148,0.02005717344582081,-0.09977247565984726,0.957930326461792,0.019265467301011086,2.342277765274048,-2.31213641166687,2.0568082332611084,4.04655122756958,0.310217022895813,0.17300701141357422,0.30589500069618225,2.741584539413452
264,23161,23158,0.02457015961408615,-0.060913849622011185,1.012747049331665,1.3252350091934204,4.961677551269531,-2.965379238128662,2.0569841861724854,4.0469865798950195,0.31056421995162964,0.18875618278980255,0.3405778706073761,2.7244505882263184
265,23171,23168,-0.0391542874276638,0.07443324476480484,1.0069838762283325,1.4301906824111938,6.721203804016113,-3.1268575191497803,2.0591037273406982,4.047666549682617,0.3115321397781372,0.00961602758616209,0.3107406795024872,2.677170515060425
266,23181,23178,0.0009705184493213892,0.003060571849346161,0.9374180436134338,1.20162034034729,6.78364896774292,-3.016835927963257,2.060479164123535,4.047624588012695,0.31182461977005005,-0.17614102363586426,0.3584970533847809,2.6256661415100098
267,23191,23188,0.021580124273896217,-0.003990532364696264,0.9905073642730713,1.1078180074691772,5.579195976257324,-2.5664589405059814,2.060847282409668,4.047973155975342,0.31231603026390076,-0.12458525598049164,0.39877501130104065,2.6267900466918945
268,23201,23198,0.00920117273926735,-0.012296387925744057,0.9917017817497253,1.1920413970947266,2.5332512855529785,-2.9003117084503174,2.061544418334961,4.047792434692383,0.3130485415458679,-0.18659839034080505,0.44170984625816345,2.6101274490356445
269,23211,23208,0.053295690566301346,-0.0855470597743988,0.9878411293029785,-0.355613648891449,-0.822198748588562,-3.230117082595825,2.0623269081115723,4.049006462097168,0.3133876621723175,-0.18960785865783691,0.39644354581832886,2.5943379402160645
270,23221,23218,0.003670538542792201,-0.0006539524183608592,1.0380213260650635,-1.349942922592163,-3.889763116836548,-3.10321307182312,2.0627474784851074,4.048435688018799,0.313707560300827,-0.13816706836223602,0.4065176248550415,2.5510447025299072
271,23231,23228,-0.029329443350434303,-0.01878838799893856,0.9590023756027222,-1.4392534494400024,-3.371473550796509,-3.1925580501556396,2.0631000995635986,4.048754692077637,0.3140607178211212,-0.06390827894210815,0.4092150330543518,2.505453586578369
272,23241,23238,-0.0369575060904026,-0.008534731343388557,0.9906569719314575,-1.8297321796417236,-2.2726478576660156,-3.0017495155334473,2.0633432865142822,4.048371315002441,0.31426510214805603,-0.003292389679700136,0.40145009756088257,2.4751551151275635
273,23251,23248,0.011457040905952454,-0.009972811676561832,0.9531570076942444,-1.392417073249817,-2.2070558071136475,-3.11630916595459,2.0631561279296875,4.047939300537109,0.31460249423980713,0.11642859876155853,0.3849358856678009,2.4429755210876465
274,23261,23258,-0.018143625929951668,0.015605874359607697,1.0058964490890503,-1.3772661685943604,2.205122470855713,-3.2472946643829346,2.063751697540283,4.0489912033081055,0.3148738443851471,0.12172690778970718,0.30024391412734985,2.394530773162842
275,23271,23268,-0.058777231723070145,0.018574412912130356,0.990874171257019,-0.5788904428482056,5.340404510498047,-3.4436089992523193,2.0641753673553467,4.049427509307861,0.3147120773792267,0.05293194577097893,0.22502455115318298,2.3705174922943115
276,23281,23278,-0.04706212133169174,0.01955607905983925,1.0086249113082886,0.21776410937309265,7.28411865234375,-3.411614179611206,2.064882516860962,4.04951810836792,0.31495219469070435,-0.060095421969890594,0.2468840628862381,2.3244714736938477
277,23291,23288,-0.0060774763114750385,-0.0051768203265964985,0.9838374257087708,1.098537564277649,7.914797306060791,-3.642547369003296,2.065457820892334,4.049985885620117,0.31523436307907104,-0.11840759217739105,0.27783167362213135,2.3170926570892334
278,23301,23298,-0.009374449029564857,-0.025525318458676338,0.9750971794128418,1.8939476013183594,6.429990768432617,-3.811807870864868,2.0671327114105225,4.0495171546936035,0.31294217705726624,-0.31794363260269165,0.32048243284225464,2.2699031829833984
279,23311,23308,0.0605698898434639,0.012299059890210629,0.9569125771522522,3.0694756507873535,3.514665126800537,-3.8984813690185547,2.068135976791382,4.049617290496826,0.3129631280899048,-0.4072481691837311,0.37460410594940186,2.2188336849212646
280,23321,23318,0.015902338549494743,0.0032252795062959194,0.9789069890975952,0.9800646305084229,0.4073207974433899,-3.8891100883483887,2.0680127143859863,4.0497870445251465,0.31303268671035767,-0.35410916805267334,0.35695043206214905,2.182586193084717
281,23331,23328,0.03264761343598366,-0.11437199264764786,0.9767721891403198,0.5911234617233276,-4.632014751434326,-3.780115842819214,2.0678153038024902,4.049893856048584,0.3131313621997833,-0.25715503096580505,0.3856769800186157,2.133045196533203
282,23341,23338,-0.0007114779436960816,0.05007045343518257,0.9844392538070679,-0.9373282194137573,-4.827896595001221,-3.1668248176574707,2.0695810317993164,4.049187183380127,0.31467634439468384,-0.323662132024765,0.4050167500972748,2.09344220161438
283,23351,23348,-0.015956372022628784,0.007350094150751829,0.9905279874801636,-1.1885510683059692,-4.12135124206543,-3.4044721126556396,2.0701448917388916,4.049394130706787,0.3148050904273987,-0.22329860925674438,0.3281096816062927,2.041616439819336
284,23361,23358,-0.017106762155890465,0.034108154475688934,0.9771663546562195,-2.0755608081817627,-2.874565362930298,-3.094667911529541,2.0706281661987305,4.049588203430176,0.3148614466190338,-0.13336923718452454,0.32327187061309814,2.0056633949279785
285,23371,23368,-0.0022261717822402716,0.020079586654901505,0.99750816822052,-1.646520972251892,-0.25705692172050476,-3.251662015914917,2.0711493492126465,4.049814224243164,0.3152789771556854,-0.09331066906452179,0.3092285394668579,1.9715718030929565
286,23381,23378,0.005650879815220833,-0.027150215581059456,0.9678611755371094,-0.8072025775909424,1.9105936288833618,-3.3905951976776123,2.072283983230591,4.049867153167725,0.3152702748775482,-0.18272747099399567,0.3015306293964386,1.914843201637268
287,23391,23388,-0.013739805668592453,-0.006569975987076759,1.0120184421539307,0.15033651888370514,4.331629276275635,-3.5782299041748047,2.072331428527832,4.050117015838623,0.3153342306613922,-0.14820797741413116,0.3116224706172943,1.926543116569519
288,23401,23398,-0.05145992338657379,-0.02253485657274723,1.0318400859832764,0.8575512766838074,4.518357276916504,-3.8410544395446777,2.074664831161499,4.049895763397217,0.3182065188884735,-0.29371002316474915,0.32818296551704407,1.8852324485778809
289,23411,23408,-0.055071279406547546,-0.016169453039765358,1.0458277463912964,1.136396884918213,3.4122822284698486,-3.4435830116271973,2.0750765800476074,4.05045223236084,0.31845566630363464,-0.2754741609096527,0.3564433753490448,1.8498766422271729
290,23421,23418,-0.007993794046342373,0.006192921660840511,0.9700034260749817,1.3917906284332275,1.9563568830490112,-3.0856587886810303,2.076838254928589,4.049788475036621,0.3186165392398834,-0.4069663882255554,0.385246217250824,1.7841742038726807
291,23431,23428,-0.0012305924901738763,0.1677970141172409,0.9856810569763184,0.8681656718254089,-1.0721580982208252,-3.2925546169281006,2.0767366886138916,4.049758434295654,0.3153949975967407,-0.34969401359558105,0.41044843196868896,1.7167840003967285
292,23441,23438,0.06385091692209244,0.06783479452133179,0.9270023107528687,-1.0104039907455444,-4.067147731781006,-3.3480887413024902,2.0770833492279053,4.048394680023193,0.3154444396495819,-0.3337462544441223,0.4194943904876709,1.6818253993988037
293,23451,23448,0.0001447367249056697,0.01422430481761694,1.0006861686706543,-2.9147636890411377,-3.354992389678955,-2.9963881969451904,2.077694892883301,4.048583507537842,0.3154776096343994,-0.25518107414245605,0.316767156124115,1.6187684535980225
294,23461,23458,0.0672183409333229,-0.2352355420589447,0.9864487051963806,-3.1103813648223877,-5.288156032562256,-2.6343178749084473,2.0781285762786865,4.048855304718018,0.31546691060066223,-0.18431006371974945,0.2706221640110016,1.5939936637878418
295,23471,23468,-0.00952716264873743,-0.1248675063252449,1.0516488552093506,-2.64266300201416,-3.749926805496216,-2.5425972938537598,2.0794296264648438,4.0488176345825195,0.31448084115982056,-0.24181461334228516,0.15270070731639862,1.5198314189910889
296,23481,23478,0.059257395565509796,0.03772331774234772,0.933292031288147,-0.06958498060703278,-0.6878200173377991,-2.592271327972412,2.0803589820861816,4.048576831817627,0.31434181332588196,-0.26361915469169617,0.1408490091562271,1.4530247449874878
297,23491,23488,0.04516662284731865,0.00703798420727253,0.9549553990364075,0.8271536827087402,5.032369136810303,-2.144202709197998,2.0809786319732666,4.047991752624512,0.31418660283088684,-0.3243672549724579,0.16752000153064728,1.4492124319076538
298,23501,23498,0.059010859578847885,-0.03253989666700363,0.9430025815963745,3.134472608566284,2.132958173751831,-2.5154809951782227,2.0812294483184814,4.047083377838135,0.3147440552711487,-0.28154200315475464,0.21423953771591187,1.3931976556777954
299,23511,23508,0.03063257597386837,-0.055018648505210876,0.9668357372283936,3.9301493167877197,-2.42227840423584,-1.8831143379211426,2.082709789276123,4.04688835144043,0.31454190611839294,-0.34733256697654724,0.2902812063694,1.3703120946884155
300,23521,23518,0.01364973559975624,-0.22740595042705536,1.0435452461242676,3.135847568511963,-1.6533650159835815,-1.3832635879516602,2.0826754570007324,4.04606819152832,0.31445664167404175,-0.20217250287532806,0.36310654878616333,1.334004521369934
301,23531,23528,-0.0070735979825258255,-0.1896021068096161,1.0693379640579224,1.2839488983154297,-1.9274539947509766,-2.1393446922302246,2.0831172466278076,4.046045303344727,0.3158329427242279,-0.1278758943080902,0.41417959332466125,1.3201707601547241
302,23541,23538,-0.01972956955432892,-0.05686807259917259,0.9798833131790161,-1.4973293542861938,0.5290932655334473,-1.995570421218872,2.0847063064575195,4.046995639801025,0.3157787322998047,-0.15095604956150055,0.3505164086818695,1.3035396337509155
303,23551,23548,0.010260336101055145,0.02896556630730629,0.9140528440475464,-3.004147529602051,2.6123838424682617,-1.8252156972885132,2.0854971408843994,4.047118186950684,0.31576523184776306,-0.15163542330265045,0.32898232340812683,1.2539687156677246
304,23561,23558,0.05540337786078453,-0.030409498140215874,0.9109004735946655,-4.528763294219971,1.874322772026062,-2.294189691543579,2.0865049362182617,4.046919822692871,0.3157005310058594,-0.18428485095500946,0.26811546087265015,1.2398707866668701
305,23571,23568,0.014732349663972855,-0.10335354506969452,1.0344260931015015,-4.818737030029297,0.8966824412345886,-2.3392493724823,2.087475538253784,4.047468185424805,0.3139539957046509,-0.19271041452884674,0.19375847280025482,1.2368587255477905
306,23581,23578,0.014969180338084698,-0.07262111455202103,0.9793218374252319,-2.140842914581299,1.9903995990753174,-2.7894673347473145,2.088135004043579,4.047792434692383,0.3136928677558899,-0.20698055624961853,0.1414569914340973,1.2037429809570312
307,23591,23588,0.021979553624987602,0.019306175410747528,0.9545992016792297,-0.22390028834342957,3.1319377422332764,-3.0445101261138916,2.089423418045044,4.047818660736084,0.31336885690689087,-0.3066255450248718,0.12520629167556763,1.1764016151428223
308,23601,23598,0.018311001360416412,0.05025220289826393,0.8972359895706177,2.996964693069458,-0.2513534128665924,-2.54105281829834,2.0901365280151367,4.047918796539307,0.3141174912452698,-0.2860414981842041,0.1621231734752655,1.1464570760726929
309,23611,23608,0.06824276596307755,-0.09778798371553421,0.960089385509491,4.13288688659668,-1.7138928174972534,-2.2401158809661865,2.0899534225463867,4.04725980758667,0.31392109394073486,-0.2113553285598755,0.2192591279745102,1.1135426759719849
310,23621,23618,0.07382898032665253,-0.12496282905340195,0.9707003831863403,5.545064926147461,-3.651820421218872,-2.0198910236358643,2.092768669128418,4.047722339630127,0.3134474456310272,-0.3955412209033966,0.2220895141363144,1.0920621156692505
311,23631,23628,-0.0010084756650030613,-0.1278906613588333,1.0636565685272217,3.6591808795928955,-4.096969127655029,-2.323936700820923,2.0923614501953125,4.047215461730957,0.312860906124115,-0.20918425917625427,0.31396040320396423,1.074797511100769
312,23641,23638,0.019068609923124313,-0.12184827774763107,0.998802900314331,2.209137439727783,-5.9600749015808105,-2.0779647827148438,2.093020439147949,4.04651403427124,0.31253013014793396,-0.11126511543989182,0.37154117226600647,0.9953024983406067
313,23651,23648,-0.07142647355794907,-0.04569205269217491,1.0851092338562012,-0.8410035371780396,-1.4985244274139404,-2.4295151233673096,2.0917162895202637,4.045376777648926,0.3122771382331848,0.0909276008605957,0.3956691324710846,0.9404972791671753
314,23661,23658,-0.013616522774100304,0.02414271980524063,0.9683644771575928,-4.092601776123047,3.0160183906555176,-2.152967691421509,2.0936379432678223,4.045217990875244,0.3119499087333679,-0.06515684723854065,0.3685089945793152,0.9436597228050232
315,23671,23668,0.011991382576525211,0.05145713686943054,0.940649151802063,-6.020568370819092,6.958056449890137,-2.344423532485962,2.0939061641693115,4.0447998046875,0.31281208992004395,-0.04638375714421272,0.2949661910533905,0.8914522528648376
316,23681,23678,-0.020571518689393997,0.05447825416922569,1.0361491441726685,-6.897043228149414,5.924838542938232,-2.0047781467437744,2.0947492122650146,4.0451483726501465,0.3126200735569,-0.14748398959636688,0.18117550015449524,0.8490669131278992
317,23691,23688,-0.00990297831594944,-0.15712162852287292,1.0814579725265503,-5.455587387084961,6.975674629211426,-2.963846445083618,2.0950257778167725,4.044505596160889,0.3124110698699951,-0.14180432260036469,0.07706455141305923,0.7932515740394592
318,23701,23698,-0.02640838362276554,-0.03870181739330292,1.07611083984375,-1.178628921508789,4.835302352905273,-2.934906005859375,2.0966832637786865,4.043976783752441,0.3152691423892975,-0.3147381544113159,0.09043806791305542,0.7190199494361877
319,23711,23708,0.021576207131147385,-0.020074650645256042,0.9975587725639343,2.4118905067443848,2.395165205001831,-2.1382904052734375,2.0963046550750732,4.043851375579834,0.31549161672592163,-0.1978149563074112,0.1082320585846901,0.7354629635810852
320,23721,23718,0.026259837672114372,-0.00524903042241931,0.954440176486969,4.945110321044922,-0.36858078837394714,-2.6668922901153564,2.09854793548584,4.0431013107299805,0.3154970109462738,-0.36662596464157104,0.13288666307926178,0.6996254920959473
321,23731,23728,0.06819961965084076,-0.13376186788082123,0.9744904041290283,6.03233003616333,-2.571544647216797,-1.9665721654891968,2.0984997749328613,4.0435709953308105,0.31550881266593933,-0.2914588451385498,0.1345374882221222,0.6661415696144104
322,23741,23738,0.0404311902821064,-0.200022891163826,1.037379264831543,4.318656921386719,-4.35740852355957,-1.99272620677948,2.099768877029419,4.042455673217773,0.31553179025650024,-0.3304413855075836,0.22773970663547516,0.6140693426132202
323,23751,23748,0.01807190291583538,-0.09033242613077164,1.0306801795959473,2.42037296295166,-4.691704273223877,-1.925472378730774,2.1001126766204834,4.0426764488220215,0.31565994024276733,-0.24091017246246338,0.22288548946380615,0.5528967380523682
324,23761,23758,0.004636080469936132,-0.019052723422646523,0.9500377178192139,0.42482423782348633,-3.4425017833709717,-2.3875558376312256,2.1015372276306152,4.042295455932617,0.3124438226222992,-0.30024051666259766,0.2742774486541748,0.569624662399292
325,23771,23768,0.05494916811585426,-0.03256423771381378,0.8685315251350403,-2.0357794761657715,-2.753878355026245,-2.6651525497436523,2.101780652999878,4.042078971862793,0.31237131357192993,-0.19579851627349854,0.21429023146629333,0.5289760231971741
326,23781,23778,0.06811375916004181,0.01302547100931406,0.9000787138938904,-3.7089624404907227,-0.7332801818847656,-2.5007333755493164,2.101461172103882,4.042736530303955,0.3122718334197998,-0.05288955196738243,0.19879506528377533,0.5117111802101135
327,23791,23788,0.014111381955444813,-0.07018090039491653,1.0054128170013428,-4.066586494445801,-0.6552169919013977,-2.5068862438201904,2.1038289070129395,4.042479038238525,0.3118860125541687,-0.18281607329845428,0.15532837808132172,0.4470369815826416
328,23801,23798,-0.05261032655835152,-0.026524458080530167,1.0515193939208984,-2.8762664794921875,0.5973911881446838,-2.257596731185913,2.103757381439209,4.04244327545166,0.3144398033618927,-0.07110758870840073,0.10049368441104889,0.36027994751930237
329,23811,23808,-0.0033672722056508064,-0.14565616846084595,1.0250415802001953,0.15202972292900085,2.514920234680176,-1.7803441286087036,2.1042654514312744,4.04144287109375,0.3142660856246948,-0.07541414350271225,0.06675606966018677,0.35082387924194336
330,23821,23818,-0.013857128098607063,-0.12659572064876556,1.0625098943710327,2.1894631385803223,0.9547781944274902,-1.8426542282104492,2.1042652130126953,4.040147304534912,0.314177006483078,-0.08257313072681427,0.0727468878030777,0.2722321152687073
331,23831,23828,-0.036504361778497696,-0.1401291936635971,1.0407037734985352,3.733109712600708,5.307157039642334,-2.0254719257354736,2.105839729309082,4.040096282958984,0.3168583810329437,-0.13777756690979004,0.12127303332090378,0.2508447766304016
332,23841,23838,0.008060764521360397,-0.03454548120498657,0.9282807111740112,3.4256556034088135,6.161978721618652,-1.7976785898208618,2.10556697845459,4.039016246795654,0.3170483112335205,-0.10553744435310364,0.18683500587940216,0.22321990132331848
333,23851,23848,0.008128988556563854,0.01401793397963047,0.9228687286376953,2.1371676921844482,6.159304141998291,-1.5514968633651733,2.1074376106262207,4.039821147918701,0.317134290933609,-0.26104575395584106,0.17802457511425018,0.2037971317768097
334,23861,23858,0.08085186034440994,-0.11972006410360336,0.9385814666748047,1.1429096460342407,0.13874609768390656,-1.4174443483352661,2.108738422393799,4.040830135345459,0.3188401162624359,-0.320692241191864,0.1502828150987625,0.20553213357925415
335,23871,23868,0.049985941499471664,-0.18990102410316467,1.0153474807739258,0.5313726663589478,-3.802236795425415,-1.29416823387146,2.1102192401885986,4.040801048278809,0.31889808177948,-0.3918478488922119,0.18153372406959534,0.17903922498226166
336,23881,23878,0.009934999980032444,-0.20844030380249023,1.0324923992156982,0.891237735748291,-5.81981897354126,-1.4593631029129028,2.109652519226074,4.040242671966553,0.3191496431827545,-0.23004932701587677,0.20559878647327423,0.16198596358299255
337,23891,23888,-0.04401518031954765,-0.032716646790504456,1.0557746887207031,1.1765774488449097,-5.559860706329346,-1.3791980743408203,2.1089725494384766,4.039560794830322,0.31938207149505615,-0.036637891083955765,0.23174630105495453,0.1441086232662201
338,23901,23898,0.01496920920908451,-0.04563654959201813,0.9398881793022156,1.545918345451355,-2.375276803970337,-1.6760727167129517,2.1105799674987793,4.040637016296387,0.32115933299064636,-0.0918671265244484,0.18216675519943237,0.11989802867174149
339,23911,23908,0.062416672706604004,0.012817592360079288,0.9005470871925354,1.221664547920227,0.5691028237342834,-1.30073881149292,2.110788583755493,4.041131019592285,0.321429967880249,-0.020757639780640602,0.14625322818756104,0.10279413312673569
340,23921,23918,0.017598066478967667,0.04365807771682739,0.9393210411071777,0.13257451355457306,4.167474746704102,-0.9948627948760986,2.1118836402893066,4.04032564163208,0.3215635418891907,-0.08206398040056229,0.19078707695007324,0.09562680870294571
341,23931,23928,0.10938151180744171,-0.07705630362033844,0.8853468298912048,-0.7179468274116516,4.063721179962158,-0.5930743217468262,2.113215923309326,4.0407257080078125,0.3203437924385071,-0.18306416273117065,0.2182997316122055,0.10051125288009644
342,23941,23938,0.06778287142515182,-0.16549693048000336,0.96868497133255,0.3249437212944031,2.1004202365875244,-0.31933853030204773,2.1118667125701904,4.037606239318848,0.3202797472476959,-0.14754560589790344,0.3052290380001068,-0.0012374037178233266
343,23951,23948,0.02179901860654354,-0.10082926601171494,0.9566701054573059,0.617948055267334,-0.1403261423110962,0.23274314403533936,2.1139156818389893,4.037628650665283,0.32005083560943604,-0.3282243609428406,0.31177330017089844,0.003494588891044259
344,23961,23958,-0.003670924110338092,-0.18598341941833496,0.9998340606689453,0.16166652739048004,-0.8386263251304626,-0.27052101492881775,2.1131179332733154,4.038563251495361,0.3207539916038513,-0.2327597588300705,0.243121936917305,0.029767272993922234
345,23971,23968,-0.014266816899180412,-0.058169521391391754,1.0305432081222534,-0.13450226187705994,-1.3248600959777832,-1.0537807941436768,2.114567518234253,4.03855562210083,0.320608913898468,-0.26826581358909607,0.2570885419845581,-0.0079718716442585
346,23981,23978,-0.0012045262847095728,-0.02196153998374939,0.96504145860672,0.5307053923606873,-2.753542423248291,-1.0317779779434204,2.115328550338745,4.037895202636719,0.3205602467060089,-0.21514718234539032,0.2653721868991852,-0.016561884433031082
347,23991,23988,0.07353510707616806,-0.05687794089317322,0.9086409211158752,-0.42664581537246704,-0.747726321220398,-0.7599417567253113,2.115679979324341,4.036708831787109,0.32048460841178894,-0.13294625282287598,0.27500253915786743,-0.08823028951883316
348,24001,23998,0.059511661529541016,-0.07417967915534973,0.9765452742576599,-0.40027517080307007,-2.4978766441345215,-0.45549458265304565,2.1170074939727783,4.037450790405273,0.31978094577789307,-0.16125428676605225,0.19859272241592407,-0.1136816069483757
349,24011,24008,-0.009311622940003872,-0.026653127744793892,0.9867841005325317,7.351896783802658e-05,-4.715169906616211,-0.41855233907699585,2.1172802448272705,4.036114692687988,0.3195635676383972,-0.09061502665281296,0.20020389556884766,-0.17862868309020996
350,24021,24018,-0.015386221930384636,-0.025580288842320442,0.9833247065544128,0.3742580711841583,-1.034063458442688,0.35413649678230286,2.1186366081237793,4.035524368286133,0.31920379400253296,-0.15824845433235168,0.20305082201957703,-0.2411625236272812
351,24031,24028,-0.02671709470450878,0.043332625180482864,0.9760280251502991,-0.5398877859115601,1.882885456085205,0.2631801962852478,2.1192450523376465,4.034676551818848,0.32040515542030334,-0.11609688401222229,0.20922832190990448,-0.23657847940921783
352,24041,24038,-0.012747511267662048,0.07223626971244812,0.9294648766517639,1.1116160154342651,3.8938043117523193,-0.49880412220954895,2.118730306625366,4.032412528991699,0.3201119899749756,-0.11491892486810684,0.21178331971168518,-0.3362323045730591
353,24051,24048,0.03874910622835159,0.15042254328727722,0.8762266635894775,1.4730321168899536,1.7775390148162842,0.32644134759902954,2.1192214488983154,4.032331943511963,0.3198842704296112,-0.13742579519748688,0.2347789853811264,-0.3546728193759918
354,24061,24058,2.111130925186444e-05,0.06071395054459572,0.9588403701782227,1.7605957984924316,-1.6376090049743652,0.6079181432723999,2.119785785675049,4.031980991363525,0.31699350476264954,-0.13517171144485474,0.19170425832271576,-0.3730791509151459
355,24071,24068,0.06727095693349838,-0.03898167237639427,0.934406042098999,1.1022766828536987,0.528576672077179,0.7745537161827087,2.1206960678100586,4.031089782714844,0.31636661291122437,-0.14990799129009247,0.2303045243024826,-0.4381088316440582
356,24081,24078,0.038591764867305756,-0.047299593687057495,1.0265109539031982,0.47963547706604004,-2.8728268146514893,1.6819307804107666,2.1215262413024902,4.030436038970947,0.31574758887290955,-0.1351962834596634,0.25213050842285156,-0.43089112639427185
357,24091,24088,0.050354134291410446,-0.08167542517185211,0.9648529291152954,-1.2160969972610474,-2.617249011993408,0.9417749047279358,2.123270034790039,4.029870986938477,0.3140225410461426,-0.13736489415168762,0.3437451422214508,-0.41438600420951843
358,24101,24098,-0.018278421834111214,-0.07488153129816055,1.0333415269851685,-3.3309690952301025,-2.8484292030334473,1.0590895414352417,2.1250433921813965,4.029956817626953,0.31316709518432617,-0.21021080017089844,0.3192622661590576,-0.3960147500038147
359,24111,24108,-0.009816181845963001,-0.15290257334709167,1.0597474575042725,-1.7538485527038574,-2.595392942428589,1.597147822380066,2.1246745586395264,4.030021667480469,0.31257766485214233,-0.05850432813167572,0.26482564210891724,-0.38424983620643616
360,24121,24118,0.01783772185444832,-0.17441774904727936,1.0885759592056274,-1.6326484680175781,-1.0255002975463867,1.3334996700286865,2.1248772144317627,4.03000545501709,0.3119857609272003,0.000994099653325975,0.2263476848602295,-0.36944645643234253
361,24131,24128,-0.003153732977807522,0.04616979509592056,0.9992966651916504,-1.6022071838378906,2.31870436668396,0.2650589942932129,2.1270434856414795,4.030734539031982,0.3099382817745209,-0.09911943227052689,0.20097514986991882,-0.31249818205833435
362,24141,24138,0.010391523130238056,0.0395691953599453,0.9763492941856384,-1.2986280918121338,5.3656792640686035,-0.08919288218021393,2.1271591186523438,4.030051231384277,0.3094034790992737,-0.016360251232981682,0.17846602201461792,-0.33834028244018555
363,24151,24148,0.037217944860458374,0.1092754453420639,0.9692611694335938,-0.9797773957252502,2.7489004135131836,0.5068546533584595,2.127070188522339,4.030323028564453,0.30883562564849854,0.02502795122563839,0.16100597381591797,-0.34180375933647156
364,24161,24158,-0.011876643635332584,0.022590963169932365,1.0535321235656738,0.5289055109024048,-2.9478776454925537,0.7895807027816772,2.129746913909912,4.029980182647705,0.31007781624794006,-0.23703543841838837,0.14942608773708344,-0.32543784379959106
365,24171,24168,-0.02606520801782608,-0.04389476403594017,1.0220123529434204,-0.7424526214599609,1.2842490673065186,0.5656000971794128,2.1294169425964355,4.030156135559082,0.3097063899040222,-0.09181219339370728,0.15644913911819458,-0.32145699858665466
366,24181,24178,0.01667027734220028,-0.02257663942873478,1.0329350233078003,0.1528538465499878,-1.7380297183990479,0.8186503052711487,2.130805253982544,4.030387878417969,0.30916187167167664,-0.14857012033462524,0.1495923101902008,-0.30383890867233276
367,24191,24188,0.0167270228266716,-0.010531592182815075,1.0213112831115723,-0.7427272796630859,0.0589183084666729,1.0338242053985596,2.131545066833496,4.02908182144165,0.3098280727863312,-0.08275685459375381,0.15386533737182617,-0.3293856382369995
368,24201,24198,0.0007092541782185435,-0.024545300751924515,1.0062432289123535,0.15775856375694275,-2.826660633087158,1.077911376953125,2.1318893432617188,4.029615879058838,0.3094812333583832,-0.033406052738428116,0.15364588797092438,-0.30555078387260437
369,24211,24208,0.0161546990275383,-0.09162520617246628,1.0903242826461792,0.6443275809288025,-3.8603384494781494,1.1066169738769531,2.132819175720215,4.0294108390808105,0.30908605456352234,-0.04277028143405914,0.16187283396720886,-0.2897651195526123
370,24221,24218,-0.0020388022530823946,-0.06944165378808975,1.0582820177078247,0.5017449855804443,-2.8206849098205566,0.9493718147277832,2.1333353519439697,4.029366970062256,0.3088277578353882,0.038860391825437546,0.17069195210933685,-0.2798917591571808
371,24231,24228,0.02029070258140564,-0.04912514239549637,0.9457156658172607,0.6084627509117126,2.760347366333008,0.33184173703193665,2.133526563644409,4.028977870941162,0.31083816289901733,0.1691252589225769,0.17791834473609924,-0.29839757084846497
372,24241,24238,0.025091012939810753,0.01708899810910225,0.9683674573898315,-0.7523377537727356,1.3236545324325562,0.4043213129043579,2.136519432067871,4.028337001800537,0.3106147050857544,-0.0769323781132698,0.18225006759166718,-0.33267587423324585
373,24251,24248,0.022446755319833755,-0.049648113548755646,1.0544078350067139,-1.8828494548797607,2.435086727142334,0.9489861130714417,2.1365089416503906,4.028609275817871,0.3105950653553009,0.02070649527013302,0.1699882596731186,-0.31202206015586853
374,24261,24258,0.04669129475951195,-0.1619485765695572,1.0388362407684326,-2.4102349281311035,0.8599008321762085,0.8178262114524841,2.136378765106201,4.02846622467041,0.3113389015197754,0.08116650581359863,0.1382281482219696,-0.320438951253891
375,24271,24268,-0.01260304730385542,-0.01927688904106617,1.0306687355041504,-0.8776546120643616,-0.5020695328712463,0.6419825553894043,2.137650966644287,4.028532981872559,0.31127193570137024,-0.007434050086885691,0.0922776386141777,-0.31120699644088745
376,24281,24278,-0.03324044123291969,0.14160461723804474,0.9941156506538391,-0.38421356678009033,0.7851930260658264,0.773746907711029,2.1402370929718018,4.027587413787842,0.3110864758491516,-0.20145516097545624,0.08018944412469864,-0.370236873626709
377,24291,24288,-0.05344904586672783,0.20663154125213623,0.9776344895362854,0.3792148232460022,-3.5686609745025635,1.5978262424468994,2.1403024196624756,4.027332782745361,0.31045055389404297,-0.09954662621021271,0.0795583501458168,-0.3978000283241272
378,24301,24298,0.006970840506255627,0.02819267101585865,0.9655227661132812,2.860924482345581,-4.2104268074035645,0.9717139005661011,2.1427154541015625,4.026907920837402,0.31025639176368713,-0.23962824046611786,0.08968230336904526,-0.37370023131370544
379,24311,24308,-0.003968294709920883,0.02908683568239212,1.0218753814697266,2.23235821723938,-7.088784694671631,0.955614447593689,2.142136335372925,4.0263352394104,0.3103894591331482,-0.03546938672661781,0.13918818533420563,-0.37990105152130127
380,24321,24318,0.02466672845184803,-0.0043815081007778645,1.0444368124008179,0.5159175992012024,-6.252113342285156,1.293950080871582,2.1420016288757324,4.026218891143799,0.3104400932788849,0.11181461811065674,0.17303238809108734,-0.37865525484085083
381,24331,24328,0.03448488190770149,0.018251027911901474,0.976516842842102,-0.9362079501152039,-4.905259132385254,1.3180595636367798,2.143674373626709,4.025428771972656,0.3083900511264801,0.07632120698690414,0.1761011779308319,-0.394802987575531
382,24341,24338,-0.020062005147337914,0.09615333378314972,0.9252936244010925,-1.7740334272384644,-3.8455071449279785,1.640956997871399,2.143929958343506,4.025341033935547,0.3082611858844757,0.19278307259082794,0.15322627127170563,-0.42714938521385193
383,24351,24348,-0.05863329395651817,0.08317258954048157,0.9856122732162476,-3.9337918758392334,-0.3607643246650696,1.8500057458877563,2.144944190979004,4.024866104125977,0.30803462862968445,0.20655681192874908,0.11487185955047607,-0.4079817831516266
384,24361,24358,-0.05434790998697281,0.06222914531826973,1.0040013790130615,-3.602860450744629,5.704564094543457,0.534494161605835,2.1461710929870605,4.0243024826049805,0.30528524518013,0.1726730614900589,0.05028185620903969,-0.44110107421875
385,24371,24368,-0.02849341742694378,0.10533975809812546,0.9482210278511047,-0.7908775806427002,2.9399096965789795,0.8716143369674683,2.1467087268829346,4.02382755279541,0.3048667311668396,0.13655997812747955,-0.008363469503819942,-0.4709884822368622
386,24381,24378,-0.010192842222750187,0.0849199891090393,0.9727320671081543,1.603186845779419,3.1971395015716553,0.9860826134681702,2.147528648376465,4.023767948150635,0.30454692244529724,0.1989694982767105,-0.020432263612747192,-0.47922664880752563
387,24391,24388,-0.0010588037548586726,0.06509005278348923,1.005674123764038,1.5575801134109497,2.7883427143096924,2.242396354675293,2.150163173675537,4.022164344787598,0.30501028895378113,-0.07093212008476257,0.16454291343688965,-0.4605180025100708
388,24401,24398,-0.01593816466629505,0.01728108897805214,1.066397786140442,2.637908935546875,-0.2615586817264557,2.1186535358428955,2.1501898765563965,4.0217366218566895,0.304714560508728,-0.0032651387155056,0.17931139469146729,-0.45563238859176636
389,24411,24408,-0.046390581876039505,0.04265347123146057,1.11248779296875,0.3410769999027252,-2.1914758682250977,2.1636672019958496,2.151111125946045,4.020845890045166,0.3043786287307739,0.027056289836764336,0.19937348365783691,-0.4616362452507019
390,24421,24418,-0.06347478926181793,0.14029371738433838,1.0571706295013428,-2.5286216735839844,-1.1129863262176514,2.057910680770874,2.1508944034576416,4.021167755126953,0.3051847815513611,0.17381742596626282,0.18593770265579224,-0.4549969732761383
391,24431,24428,-0.054061148315668106,0.16670763492584229,0.9667503237724304,-4.280918598175049,-1.3610343933105469,2.3839049339294434,2.1512582302093506,4.021096706390381,0.30505067110061646,0.22346900403499603,0.136027529835701,-0.43655234575271606
392,24441,24438,-0.048385124653577805,0.14330269396305084,0.9648261666297913,-6.955303192138672,1.8509268760681152,1.8414403200149536,2.1514692306518555,4.020877838134766,0.30491533875465393,0.2531515657901764,0.054413195699453354,-0.46872198581695557
393,24451,24448,0.00454439502209425,0.00662560760974884,1.003251075744629,-4.453886032104492,1.1982945203781128,1.6138793230056763,2.153226613998413,4.020384311676025,0.3047164976596832,0.1512748748064041,-0.0632128044962883,-0.46575266122817993
394,24461,24458,-0.03163154423236847,-0.010856840759515762,1.1013339757919312,-1.675371766090393,2.4651217460632324,1.0640300512313843,2.1545519828796387,4.021533489227295,0.3088338375091553,0.13655120134353638,-0.1433361917734146,-0.40354812145233154
395,24471,24468,0.0017522581620141864,-0.05324407294392586,0.9876747727394104,2.2040560245513916,4.986241817474365,0.6112733483314514,2.1554081439971924,4.0207953453063965,0.30896899104118347,0.1105705052614212,-0.09851447492837906,-0.40189844369888306
396,24481,24478,-0.000868682807777077,-0.03923764079809189,0.9928122162818909,4.24948787689209,2.4486005306243896,0.9636402726173401,2.157010078430176,4.021360874176025,0.30905213952064514,-0.02631155028939247,-0.0737352967262268,-0.3583366870880127
397,24491,24488,-0.009171716868877411,0.02075345069169998,0.9936626553535461,4.400125503540039,2.2173879146575928,1.0538828372955322,2.156870126724243,4.02089786529541,0.30852189660072327,0.03567470610141754,-0.01014732662588358,-0.38454920053482056
398,24501,24498,0.01976999267935753,-0.05094023048877716,1.035683512687683,3.4028468132019043,-0.7309057712554932,0.7440499663352966,2.158151865005493,4.020220756530762,0.30859556794166565,-0.05128214880824089,0.06245796009898186,-0.350130558013916
399,24511,24508,0.04496432840824127,-0.07786907255649567,1.0177987813949585,1.7370109558105469,-1.7271441221237183,0.13168686628341675,2.158567428588867,4.019588947296143,0.30884218215942383,0.06428880244493484,0.11814676225185394,-0.3409898579120636
400,24521,24518,-0.006140285637229681,-0.09913958609104156,1.0512804985046387,-1.1032899618148804,-2.4122064113616943,-0.03944757953286171,2.1589395999908447,4.019763946533203,0.3120462894439697,0.10427293181419373,0.13684317469596863,-0.3530346751213074
401,24531,24528,0.00438271276652813,-0.17208880186080933,1.038109302520752,-2.4738919734954834,-0.8818144202232361,-0.6638020873069763,2.1607978343963623,4.020500659942627,0.3123457729816437,0.006042862311005592,0.03061491996049881,-0.3443649113178253
402,24541,24538,0.005137296859174967,-0.0756416991353035,0.9868085384368896,-3.6968071460723877,1.4652506113052368,-0.7606447339057922,2.1603989601135254,4.020617485046387,0.3128775656223297,0.1300138384103775,-0.01274605467915535,-0.392381876707077
403,24551,24548,-0.012564671225845814,0.025621142238378525,0.954317033290863,-3.062312126159668,1.8032437562942505,-0.3216966986656189,2.161872386932373,4.020047664642334,0.3132439851760864,0.0497695617377758,0.003724717302247882,-0.35523998737335205
404,24561,24558,0.015792520716786385,0.05366166681051254,0.8989326357841492,-2.3497064113616943,3.201317548751831,-0.10935546457767487,2.1622817516326904,4.019291877746582,0.3160621225833893,0.12169525027275085,0.025635920464992523,-0.34634870290756226
405,24571,24568,0.005062229465693235,0.044991351664066315,0.9496155977249146,-0.07748080790042877,2.164229154586792,-0.652758777141571,2.1622674465179443,4.020183563232422,0.3165760338306427,0.16441889107227325,-0.017219191417098045,-0.3148522675037384
406,24581,24578,-0.037643853574991226,0.0932350903749466,0.9219345450401306,0.5507508516311646,1.4943965673446655,-1.0861074924468994,2.1634156703948975,4.019532203674316,0.3170210123062134,0.12265248596668243,0.050571635365486145,-0.3292846083641052
407,24591,24588,-0.0017931339098140597,-0.020559722557663918,0.9506294131278992,1.1990140676498413,1.8130358457565308,-1.2735614776611328,2.1639018058776855,4.019618988037109,0.3153146505355835,0.09347601234912872,0.045962072908878326,-0.3212670683860779
408,24601,24598,-0.03152524307370186,-0.018140964210033417,1.0209641456604004,1.1509854793548584,-1.3605207204818726,-0.8684482574462891,2.165041208267212,4.019704818725586,0.31546252965927124,0.06142742931842804,0.05215909332036972,-0.3405284881591797
409,24611,24608,-0.08312751352787018,-0.08359217643737793,1.1025770902633667,0.7722575068473816,3.9207711219787598,-1.7344813346862793,2.165916681289673,4.019553184509277,0.3156384527683258,0.0511968657374382,-0.023926403373479843,-0.3590168058872223
410,24621,24618,-0.09749558568000793,-0.020395148545503616,1.063014030456543,-0.49672290682792664,5.3866353034973145,-1.5538445711135864,2.167160749435425,4.020496368408203,0.3180283010005951,-0.09933080524206161,-0.02189023792743683,-0.3237195611000061
411,24631,24628,-0.021514510735869408,0.036974262446165085,0.9420092105865479,-0.9107705354690552,6.018767356872559,-1.9159542322158813,2.167492628097534,4.020894527435303,0.31846192479133606,-0.1062999740242958,-0.036145877093076706,-0.31337758898735046
412,24641,24638,-0.03382548689842224,0.11737804114818573,0.9392891526222229,-0.8372844457626343,2.8768577575683594,-2.1550962924957275,2.1673834323883057,4.021030426025391,0.31891554594039917,-0.11552629619836807,-0.05988983064889908,-0.31965020298957825
413,24651,24648,-0.05898236110806465,0.17924143373966217,0.956167995929718,-0.5219303965568542,1.3248515129089355,-1.7839667797088623,2.1676981449127197,4.019968032836914,0.3193240761756897,-0.07975775003433228,-0.0033598749432712793,-0.38482746481895447
414,24661,24658,-0.01619037613272667,0.17622047662734985,0.9303375482559204,0.16332301497459412,1.3874889612197876,-1.2815479040145874,2.1678013801574707,4.020530700683594,0.3209989368915558,-0.02291209250688553,-0.09633830934762955,-0.4302830696105957
415,24671,24668,-0.011066905222833157,0.14830754697322845,0.9219961166381836,0.6505758762359619,0.8708851337432861,-1.556264877319336,2.1707406044006348,4.020218849182129,0.32118311524391174,-0.27459919452667236,-0.08974148333072662,-0.4246504306793213
416,24681,24678,-0.0022758585400879383,0.05562566593289375,0.9487607479095459,0.8565250635147095,2.2053098678588867,-2.2162132263183594,2.16965651512146,4.019087791442871,0.3212783932685852,-0.18057416379451752,-0.07555830478668213,-0.47020280361175537
417,24691,24688,0.04254968836903572,0.0023225422482937574,0.904508113861084,1.8412517309188843,0.4256131947040558,-1.476711630821228,2.1711442470550537,4.0186686515808105,0.3214471936225891,-0.185750350356102,0.020341763272881508,-0.4941490590572357
418,24701,24698,0.054283272475004196,-0.004329639952629805,0.8924476504325867,1.45717191696167,1.6777530908584595,-1.5563793182373047,2.1709296703338623,4.018719673156738,0.32145699858665466,-0.19803914427757263,0.041178327053785324,-0.5025686621665955
419,24711,24708,0.09318838268518448,-0.039105724543333054,0.8794576525688171,0.2221352756023407,1.171064019203186,-1.4013874530792236,2.1715457439422607,4.017843723297119,0.3215025067329407,-0.21391510963439941,0.1340242177248001,-0.5158033967018127
420,24721,24718,0.03194506838917732,-0.0561072900891304,0.9430645704269409,-0.9911139607429504,-1.286683201789856,-1.2437853813171387,2.1722075939178467,4.018368244171143,0.3213251531124115,-0.2068333476781845,0.039044320583343506,-0.52448570728302
421,24731,24728,0.005496322177350521,-0.13399161398410797,0.9890343546867371,-2.8343453407287598,0.7420654892921448,-0.8625736832618713,2.1734440326690674,4.018852233886719,0.3211005926132202,-0.28007879853248596,-0.00824953243136406,-0.5108116865158081
422,24741,24738,0.027491630986332893,-0.1965193897485733,0.9643083810806274,-2.8739421367645264,-0.01242478471249342,-1.7845790386199951,2.1728551387786865,4.019942283630371,0.32102692127227783,-0.19090129435062408,-0.1340884417295456,-0.5086584091186523
423,24751,24748,0.012905127368867397,-0.22757184505462646,0.9743872880935669,-2.045612335205078,0.07048662006855011,-2.308681011199951,2.174433946609497,4.019859313964844,0.3191639482975006,-0.2598530054092407,-0.17708776891231537,-0.5684969425201416
424,24761,24758,-0.011347795836627483,-0.21973635256290436,0.9962736964225769,-0.03846593201160431,0.3727859556674957,-1.76265549659729,2.1759395599365234,4.019743919372559,0.31871676445007324,-0.32818999886512756,-0.19692909717559814,-0.6213759183883667
425,24771,24768,-0.019127855077385902,-0.19673818349838257,1.009218454360962,2.1340625286102295,-0.026574425399303436,-1.7010533809661865,2.175258159637451,4.019036293029785,0.3185015916824341,-0.16001251339912415,-0.1789800077676773,-0.6320960521697998
426,24781,24778,-0.019351255148649216,-0.13905027508735657,1.0189282894134521,4.070622444152832,0.6786764860153198,-1.3281073570251465,2.175494432449341,4.018124580383301,0.31807827949523926,-0.16648411750793457,-0.11960849165916443,-0.696243941783905
427,24791,24788,-0.029195860028266907,-0.06167488545179367,1.0332216024398804,4.373446941375732,1.3319692611694336,-1.551003098487854,2.175281286239624,4.0178399085998535,0.31679728627204895,-0.10006755590438843,-0.03378929942846298,-0.7161480784416199
428,24801,24798,-0.024127881973981857,0.0036495511885732412,1.008269190788269,3.7892842292785645,3.8059475421905518,-1.1926765441894531,2.1760787963867188,4.017146110534668,0.3163585960865021,-0.1530752331018448,-0.039692655205726624,-0.8101099729537964
429,24811,24808,0.042081426829099655,0.033366020768880844,0.8834030032157898,2.272789239883423,5.096420764923096,-0.5638612508773804,2.1767661571502686,4.015665054321289,0.3159506618976593,-0.2341810017824173,0.09667875617742538,-0.904811441898346
430,24821,24818,0.059284843504428864,0.05243140831589699,0.8743273615837097,-0.07383989542722702,5.339301109313965,0.33212873339653015,2.1776962280273438,4.0147318840026855,0.31634482741355896,-0.31990906596183777,0.11385112255811691,-0.8809517621994019
431,24831,24828,0.050471436232328415,0.04449228197336197,0.901519775390625,-2.439819812774658,4.908423900604248,0.6220290064811707,2.178079605102539,4.01395845413208,0.3159039616584778,-0.30975088477134705,0.09916310757398605,-0.8858674764633179
432,24841,24838,0.0051204445771873,0.09971586614847183,0.9262442588806152,-0.9979502558708191,0.9265173077583313,0.2103756219148636,2.179384231567383,4.015505790710449,0.31526800990104675,-0.4341977834701538,-0.015108141116797924,-0.8704648613929749
433,24851,24848,-0.026399901136755943,0.05632549151778221,0.992476761341095,-2.3637709617614746,0.2003251016139984,-0.2141454815864563,2.1800215244293213,4.016207695007324,0.3133993148803711,-0.4250403046607971,-0.0371047668159008,-0.8285603523254395
434,24861,24858,-0.006386070512235165,-0.13576214015483856,1.0199977159500122,-3.633152723312378,0.06098765507340431,-0.6062930226325989,2.180478811264038,4.015987873077393,0.31260281801223755,-0.41684475541114807,-0.08653692156076431,-0.8900271654129028
435,24871,24868,0.01973627135157585,-0.142876997590065,0.9967079758644104,-1.1967827081680298,-0.09373369812965393,-1.0300582647323608,2.1812427043914795,4.014808654785156,0.31180718541145325,-0.4041478633880615,-0.04569453001022339,-0.8974406123161316
436,24881,24878,-0.016183903440833092,-0.060823503881692886,1.055463194847107,-1.0834147930145264,-0.7392092943191528,-0.6962412595748901,2.182631492614746,4.01395320892334,0.3109183609485626,-0.46364453434944153,-0.06755560636520386,-0.9638121128082275
437,24891,24888,-0.009599975310266018,-0.06872130930423737,0.9889066815376282,0.39371946454048157,-0.07596998661756516,-0.8262198567390442,2.1827220916748047,4.014988899230957,0.30698034167289734,-0.3647700548171997,-0.15415164828300476,-0.947275698184967
438,24901,24898,0.009354052133858204,0.02703765034675598,0.975950300693512,2.05734920501709,1.3225650787353516,-0.9086704850196838,2.1838746070861816,4.0144147872924805,0.30607596039772034,-0.37144017219543457,-0.050615862011909485,-0.972069263458252
439,24911,24908,-0.0017673515249043703,0.0801888257265091,1.0189611911773682,2.4981436729431152,-0.09356898069381714,-0.04872477054595947,2.1845695972442627,4.014066696166992,0.30512601137161255,-0.36377033591270447,-0.01065511628985405,-0.9778823852539062
440,24921,24918,0.03751206398010254,0.010203726589679718,0.9288637042045593,1.0326367616653442,2.038754940032959,-0.1611698567867279,2.185824394226074,4.01466178894043,0.30140581727027893,-0.39287954568862915,-0.04182054102420807,-0.9831449389457703
441,24931,24928,-0.012725286185741425,0.015175809152424335,1.0334802865982056,1.5612006187438965,0.7774327993392944,-0.02537951059639454,2.188408374786377,4.013704776763916,0.3000952899456024,-0.6471378803253174,-0.02565857395529747,-1.0326777696609497
442,24941,24938,0.029275164008140564,-0.022129686549305916,1.0240193605422974,-0.3599761426448822,2.134305953979492,0.0854729562997818,2.18843674659729,4.013669013977051,0.29907116293907166,-0.5402308702468872,-0.004271211102604866,-1.0334630012512207
443,24951,24948,0.01067908201366663,-0.034306757152080536,1.0292354822158813,-1.1926254034042358,-3.325150966644287,0.4662238657474518,2.1895594596862793,4.013277530670166,0.2992091476917267,-0.5722024440765381,-0.016323093324899673,-1.0497474670410156
444,24961,24958,0.01687963679432869,-0.029765350744128227,1.100594162940979,-0.9941775798797607,-4.335572242736816,0.917427659034729,2.189197063446045,4.012874603271484,0.29830095171928406,-0.3850633203983307,-0.032538194209337234,-1.0731425285339355
445,24971,24968,-0.014441185630857944,-0.025301292538642883,1.0424314737319946,-1.3405659198760986,-3.878706216812134,1.3509069681167603,2.189898729324341,4.012151718139648,0.29731425642967224,-0.36200836300849915,-0.04732333496212959,-1.110074758529663
446,24981,24978,-0.02114606648683548,0.04933060705661774,1.1184719800949097,0.09973589330911636,-4.9491143226623535,1.7564632892608643,2.191100835800171,4.012860298156738,0.29637235403060913,-0.340602308511734,-0.13566873967647552,-1.0404170751571655
447,24991,24988,-0.03122589737176895,0.005429297685623169,1.0764133930206299,-0.14791344106197357,-0.6668939590454102,1.177465796470642,2.1906702518463135,4.013361930847168,0.29318490624427795,-0.35576093196868896,-0.12667682766914368,-1.022404670715332
448,25001,24998,0.0019408946391195059,0.022146860137581825,1.0823830366134644,1.4642549753189087,1.1535663604736328,0.8049832582473755,2.1914923191070557,4.012619495391846,0.2923358380794525,-0.3217535614967346,-0.104103684425354,-1.0668128728866577
449,25011,25008,-0.029713625088334084,-0.004668884444981813,1.0759296417236328,4.964166641235352,0.983613908290863,0.6923404932022095,2.1934850215911865,4.01305627822876,0.29142212867736816,-0.46203815937042236,-0.12166777998209,-1.056721568107605
450,25021,25018,0.01860126666724682,-0.012455841526389122,1.078914999961853,5.256125450134277,1.6458323001861572,0.8212878108024597,2.1937954425811768,4.012204647064209,0.29192453622817993,-0.36129382252693176,-0.02046632394194603,-1.0888895988464355
451,25031,25028,0.022318944334983826,-0.1384563446044922,1.0979759693145752,4.837032318115234,-1.101441502571106,1.4395763874053955,2.194580554962158,4.011874198913574,0.2913718521595001,-0.33457469940185547,0.07900707423686981,-1.0538204908370972
452,25041,25038,-0.001283354009501636,-0.060044508427381516,1.1325335502624512,5.888226509094238,-2.466153860092163,0.18003903329372406,2.195175886154175,4.012322425842285,0.2907969355583191,-0.36012163758277893,0.1844673603773117,-0.9865567088127136
453,25051,25048,0.007693224120885134,-0.012063408270478249,1.0739529132843018,3.9200546741485596,-2.1646950244903564,-0.18760690093040466,2.1956751346588135,4.012277126312256,0.2931472361087799,-0.3687036335468292,0.2717512547969818,-0.9596914649009705
454,25061,25058,0.0031031956896185875,-0.0422997809946537,1.0868847370147705,1.1811212301254272,-5.679895401000977,-0.4704059958457947,2.1961400508880615,4.0126118659973145,0.2931172847747803,-0.25782710313796997,0.23607710003852844,-0.9719559550285339
455,25071,25068,-0.03392345458269119,-0.05318745970726013,1.2081283330917358,-0.6531103253364563,-4.611514568328857,-1.0067625045776367,2.197404384613037,4.012475490570068,0.2930949926376343,-0.22773978114128113,0.1705615371465683,-1.0125195980072021
456,25081,25078,0.008631564676761627,-0.08846259862184525,1.0422871112823486,-1.761048436164856,-3.8701491355895996,-1.0417529344558716,2.197981357574463,4.012762069702148,0.29675790667533875,-0.12915731966495514,0.15628445148468018,-1.000415563583374
457,25091,25088,-0.0007290096837095916,0.043713364750146866,1.0128304958343506,-1.3470045328140259,-8.519329071044922,-0.8405195474624634,2.198312282562256,4.012738227844238,0.29718017578125,-0.10124459862709045,0.20698881149291992,-0.9801375269889832
458,25101,25098,-0.006784056778997183,-0.01625990681350231,1.0407532453536987,-1.9992116689682007,-1.7139801979064941,-1.4391041994094849,2.2001383304595947,4.01189661026001,0.29760509729385376,-0.15734194219112396,0.17262637615203857,-1.0593761205673218
459,25111,25108,0.02999033033847809,-0.04088743403553963,0.9767301082611084,0.48121005296707153,0.15153813362121582,-0.6524044275283813,2.200934886932373,4.012608051300049,0.29814836382865906,-0.1884550005197525,0.0795956552028656,-1.0576261281967163
460,25121,25118,0.0412910021841526,-0.014885423704981804,1.0102825164794922,2.0855653285980225,-3.401632070541382,-0.15800507366657257,2.200819969177246,4.0126051902771,0.29820507764816284,-0.03610739856958389,0.10957089811563492,-1.053179383277893
461,25131,25128,0.0021548024378716946,0.09584084153175354,0.9429002404212952,3.136125087738037,-0.07802749425172806,0.5987010598182678,2.201890468597412,4.012150764465332,0.29866528511047363,-0.11175767332315445,0.1656460464000702,-1.1165167093276978
462,25141,25138,0.02536684460937977,-0.012517581693828106,0.9331222176551819,5.4220733642578125,-2.638319253921509,0.7634547352790833,2.2026679515838623,4.011105060577393,0.2992011308670044,-0.035686999559402466,0.25322237610816956,-1.109494924545288
463,25151,25148,-0.04670815169811249,0.03802739083766937,1.013882040977478,6.476027965545654,-4.054065227508545,0.9454272389411926,2.204509973526001,4.009391784667969,0.3010118901729584,-0.09525126218795776,0.438432514667511,-1.1516512632369995
464,25161,25158,-0.011599011719226837,0.016965102404356003,0.9885030388832092,3.521878242492676,-1.9716826677322388,0.7352828979492188,2.2056314945220947,4.009671688079834,0.3015131950378418,-0.08239257335662842,0.4378667175769806,-1.1432873010635376
465,25171,25168,-0.01762111857533455,0.08937426656484604,1.0023871660232544,-0.20118273794651031,-1.026425838470459,0.7950881719589233,2.206348180770874,4.00955867767334,0.3020475208759308,-0.017524998635053635,0.4512447416782379,-1.1345090866088867
466,25181,25178,-0.023519981652498245,0.05636390298604965,1.0272196531295776,-3.5341739654541016,-2.0054500102996826,-0.3297329545021057,2.2082724571228027,4.009765625,0.3052358627319336,-0.10154999047517776,0.4115178883075714,-1.1187498569488525
467,25191,25188,-0.007437585387378931,0.003608929691836238,0.9587143659591675,-4.985812664031982,-1.3292236328125,-0.1422683447599411,2.208972454071045,4.009981632232666,0.30594736337661743,-0.016795430332422256,0.33157703280448914,-1.0896186828613281
468,25201,25198,-0.034760553389787674,-0.08009932190179825,0.9412789940834045,-4.766056537628174,-5.239593029022217,-0.19288571178913116,2.2091891765594482,4.009400367736816,0.3066173791885376,0.08592373132705688,0.24069634079933167,-1.1491789817810059
469,25211,25208,0.01203194446861744,-0.05945362523198128,0.9376272559165955,-4.478830337524414,-6.359253883361816,-0.40449050068855286,2.2100203037261963,4.009250640869141,0.3072163760662079,0.1270342767238617,0.24603711068630219,-1.1587955951690674
470,25221,25218,0.006939609535038471,-0.04278239980340004,0.9432985782623291,-2.132861614227295,-3.7013607025146484,0.01686229556798935,2.21142840385437,4.00803804397583,0.3060266971588135,0.11658458411693573,0.1806125044822693,-1.2580543756484985
471,25231,25228,-0.008989711292088032,-0.005996078252792358,0.9540572762489319,-0.121760793030262,-3.707190990447998,0.686275064945221,2.2124240398406982,4.007937431335449,0.30640071630477905,0.14344286918640137,0.1523147076368332,-1.3335868120193481
472,25241,25238,-0.01409947220236063,0.0656595304608345,0.9554867148399353,2.3557615280151367,-2.398371458053589,1.4592732191085815,2.2134811878204346,4.006918430328369,0.3066962957382202,0.18518291413784027,0.16243025660514832,-1.300584077835083
473,25251,25248,0.012204629369080067,0.014257206581532955,0.9366720914840698,3.122906446456909,-1.7054108381271362,1.4729117155075073,2.213568925857544,4.0053181648254395,0.3083968460559845,0.256533145904541,0.27136290073394775,-1.3487547636032104
474,25261,25258,-0.04897315427660942,-0.06355994194746017,0.9939866662025452,3.1077792644500732,-1.8432472944259644,2.157196521759033,2.214172840118408,4.005459308624268,0.3087541460990906,0.32799801230430603,0.31866973638534546,-1.3072993755340576
475,25271,25268,-0.06928450614213943,0.062165502458810806,1.0038061141967773,0.5591105818748474,-0.18897148966789246,1.942801833152771,2.2159862518310547,4.004769325256348,0.3090374767780304,0.3014773428440094,0.33814820647239685,-1.3246419429779053
476,25281,25278,-0.032524943351745605,0.09133312106132507,0.9675130844116211,-2.0024924278259277,0.28022900223731995,2.0222702026367188,2.217179775238037,4.005221366882324,0.30788442492485046,0.25999191403388977,0.3142237663269043,-1.3227202892303467
477,25291,25288,0.00015843026631046087,-0.04330013319849968,0.9394999742507935,-5.1223907470703125,0.3400346040725708,1.9503512382507324,2.2181248664855957,4.004602909088135,0.3080710172653198,0.2924465537071228,0.2469334900379181,-1.3175594806671143
478,25301,25298,0.03263444826006889,-0.06029682606458664,0.8983409404754639,-4.479305744171143,-2.5858190059661865,2.1914007663726807,2.2181203365325928,4.002222061157227,0.30803415179252625,0.2496194690465927,0.15296302735805511,-1.444289207458496
479,25311,25308,0.0754324197769165,-0.11248104274272919,0.9061644077301025,-3.8811333179473877,-0.9737598896026611,2.399714708328247,2.218707799911499,4.00225305557251,0.3080950081348419,0.3105447292327881,0.07288960367441177,-1.443123459815979
