,timestamp_start,timestamp_end,acc.x,acc.y,acc.z,gyro.x,gyro.y,gyro.z,stateEstimate.x,stateEstimate.y,stateEstimate.z,stabilizer.pitch,stabilizer.roll,stabilizer.yaw
0,20198,20196,0.05117381736636162,-0.07912237197160721,1.0326738357543945,-0.2393784075975418,6.63339900970459,1.658231258392334,2.0018882751464844,4.019986629486084,0.1690833866596222,0.7499269843101501,0.5542211532592773,2.5914924144744873
1,20208,20206,0.002289514522999525,0.01277511939406395,1.0690984725952148,-3.416687488555908,12.138474464416504,1.856264352798462,2.0002245903015137,4.018272399902344,0.17114807665348053,0.5712846517562866,0.5418171882629395,2.594682455062866
2,20218,20216,0.020420178771018982,-0.0607168972492218,1.1000874042510986,-4.818861961364746,14.316568374633789,1.5687594413757324,1.9965691566467285,4.019423484802246,0.1728673279285431,0.6505988836288452,0.6215310096740723,2.638695001602173
3,20228,20226,0.05279150605201721,-0.0026879555080085993,1.08677077293396,-4.412944793701172,15.610433578491211,1.1579219102859497,1.9952669143676758,4.017960548400879,0.17480918765068054,0.5144547820091248,0.6731867790222168,2.656067371368408
4,20238,20236,-0.007880402728915215,0.0843500941991806,1.0923371315002441,-4.324277400970459,15.547329902648926,1.2037887573242188,1.9937366247177124,4.020590782165527,0.17684052884578705,0.48184654116630554,0.570609986782074,2.692078113555908
5,20248,20246,0.03670346364378929,-0.0227096825838089,1.0093238353729248,-4.7868876457214355,13.314226150512695,1.1417784690856934,1.9943079948425293,4.021138668060303,0.17946580052375793,0.16193708777427673,0.4676859676837921,2.681856870651245
6,20258,20256,0.004726140294224024,0.0019307254115119576,1.048064112663269,-5.307107448577881,11.641450881958008,0.7581098675727844,1.9921525716781616,4.020923614501953,0.1818469911813736,-0.0020894904155284166,0.4440774619579315,2.688371419906616
7,20268,20266,-0.022340280935168266,-0.03939240425825119,0.9770215749740601,-4.813505172729492,9.778704643249512,1.233174204826355,1.991666316986084,4.020644187927246,0.1845579743385315,-0.16571545600891113,0.3321973383426666,2.6915223598480225
8,20278,20276,0.012976368889212608,-0.03998634219169617,0.9814457893371582,-4.413861274719238,7.64511251449585,1.7009975910186768,1.9905273914337158,4.020258903503418,0.18684223294258118,-0.2235737144947052,0.3839084506034851,2.7143092155456543
9,20288,20286,0.048607632517814636,-0.1598062962293625,1.0359240770339966,-4.006369113922119,4.604262828826904,1.7398293018341064,1.9880520105361938,4.019693374633789,0.1891956478357315,-0.30289599299430847,0.3492487967014313,2.7336974143981934
10,20298,20296,0.011975331231951714,-0.04755847528576851,1.02496337890625,-4.020356178283691,2.419186592102051,1.460744857788086,1.9874236583709717,4.018762111663818,0.1915125995874405,-0.48383626341819763,0.25443795323371887,2.730940103530884
11,20308,20306,-0.004516914952546358,0.018802501261234283,1.0311403274536133,-3.8485350608825684,1.8863815069198608,1.3047351837158203,1.987345814704895,4.018893718719482,0.19384092092514038,-0.5400974750518799,0.23212876915931702,2.7425460815429688
12,20318,20316,0.022701574489474297,0.043125756084918976,0.8996137380599976,-2.6483781337738037,0.8163926005363464,1.1934993267059326,1.9863924980163574,4.016079425811768,0.19614848494529724,-0.765133798122406,0.22798538208007812,2.736297130584717
13,20328,20326,-0.005677808076143265,0.05739668384194374,1.0113717317581177,-2.169651746749878,0.6261628270149231,1.044459342956543,1.9882397651672363,4.016552925109863,0.19806088507175446,-1.1546509265899658,0.22751866281032562,2.7143616676330566
14,20338,20336,0.052515335381031036,-0.013861360028386116,1.0137003660202026,-3.2763848304748535,-2.130667209625244,1.3156635761260986,1.9846080541610718,4.017099380493164,0.19994992017745972,-0.8683576583862305,-0.010446322150528431,2.72160005569458
15,20348,20346,0.05660024285316467,-0.007362712640315294,0.9827338457107544,-4.647806167602539,-6.491664886474609,0.6952811479568481,1.991550326347351,4.015743255615234,0.2014974057674408,-1.919735074043274,-0.007531060837209225,2.650634765625
16,20358,20356,0.030097508803009987,-0.023070648312568665,0.9547690749168396,-4.047190189361572,-14.686675071716309,1.3204880952835083,2.0018253326416016,4.022701740264893,0.1939259022474289,-3.3577523231506348,-1.081809639930725,2.320056200027466
17,20368,20366,3.657270281109959e-05,-0.003476243931800127,0.9990866184234619,-0.5362036824226379,-26.1253604888916,2.3239529132843018,2.0016510486602783,4.023181438446045,0.2035895586013794,-2.7715487480163574,-0.9925531148910522,2.396634578704834
18,20378,20376,0.015231505036354065,-0.018451521173119545,0.976103663444519,7.20783805847168,-40.18440246582031,2.3423848152160645,1.9999501705169678,4.023528099060059,0.2100510597229004,-1.9630852937698364,-0.8379403948783875,2.481356620788574
19,20388,20386,-0.0069427285343408585,-0.008810847997665405,1.022026538848877,15.406826972961426,-52.31085205078125,2.1900744438171387,1.999096155166626,4.023073196411133,0.2137734740972519,-1.3679579496383667,-0.49717578291893005,2.591574192047119
20,20398,20396,0.004238135647028685,-0.032034579664468765,0.9692102670669556,20.992921829223633,-54.71750259399414,1.583504319190979,1.9977977275848389,4.023222923278809,0.21593588590621948,-0.5594087839126587,-0.27483123540878296,2.628355026245117
21,20408,20406,0.002961833728477359,-0.052365511655807495,0.93590247631073,22.870080947875977,-51.50900650024414,2.078617811203003,1.9972176551818848,4.023491382598877,0.2187536656856537,0.2845720648765564,0.08437301963567734,2.6832480430603027
22,20418,20416,-0.005694269202649593,0.003462708555161953,0.9958972334861755,19.790136337280273,-40.32267379760742,2.287067413330078,1.9945818185806274,4.021524429321289,0.22101189196109772,0.8471105098724365,0.3441774547100067,2.7118310928344727
23,20428,20426,-0.022262398153543472,0.023859979584813118,1.0268049240112305,11.884333610534668,-22.67040252685547,2.375105142593384,1.9906835556030273,4.015588760375977,0.22163613140583038,1.3727859258651733,0.6557590961456299,2.7685844898223877
24,20438,20436,-0.0284337867051363,0.05348473787307739,0.9592614769935608,0.6540772318840027,-4.3399977684021,1.0211280584335327,1.9890176057815552,4.017282962799072,0.22362080216407776,1.693967342376709,0.7241274118423462,2.7793846130371094
25,20448,20446,-0.0381048358976841,0.03263644501566887,0.9837421774864197,-8.018733024597168,8.401631355285645,1.1296148300170898,1.988424301147461,4.018327236175537,0.22588932514190674,1.639755368232727,0.7050917744636536,2.791536808013916
26,20458,20456,0.022193768993020058,-0.013329069130122662,0.9559357762336731,-14.196069717407227,18.143550872802734,1.3408465385437012,1.9870669841766357,4.017923355102539,0.22784681618213654,1.661873698234558,0.620206892490387,2.811967372894287
27,20468,20466,0.01364154927432537,-0.013532368466258049,0.9492909908294678,-16.435993194580078,20.845144271850586,1.5266591310501099,1.987086296081543,4.0196943283081055,0.23309609293937683,1.4776304960250854,0.45609337091445923,2.833312511444092
28,20478,20476,-0.009942861273884773,-0.007940106093883514,0.9633886814117432,-14.039830207824707,18.74869728088379,1.9085805416107178,1.981104850769043,4.017148017883301,0.2347365766763687,1.8597338199615479,0.5027315020561218,2.883239984512329
29,20488,20486,-0.012446092441678047,0.009146862663328648,0.964763343334198,-9.9327392578125,13.792107582092285,1.5112651586532593,1.9811655282974243,4.01832389831543,0.23727554082870483,1.5590200424194336,0.35521233081817627,2.9019832611083984
30,20498,20496,-0.02058965340256691,0.11226984113454819,0.9054470062255859,-4.3545684814453125,9.946952819824219,1.407792568206787,1.9795804023742676,4.017622470855713,0.2412337213754654,1.4860628843307495,0.28116855025291443,2.917914390563965
31,20508,20506,0.0028498948086053133,0.028868243098258972,0.9508547782897949,0.07159886509180069,6.643064498901367,1.2845925092697144,1.9766101837158203,4.014910697937012,0.2428564578294754,1.6978462934494019,0.5183918476104736,2.9288487434387207
32,20518,20516,-0.011369234882295132,0.056011538952589035,0.988586962223053,3.6744723320007324,5.046001434326172,1.1392667293548584,1.9753094911575317,4.015834808349609,0.24518565833568573,1.6832537651062012,0.27909502387046814,2.974494218826294
33,20528,20526,-0.011323066428303719,0.03171774372458458,1.0042527914047241,2.9674768447875977,6.1598358154296875,0.546524167060852,1.9730825424194336,4.014199733734131,0.24841918051242828,1.6868704557418823,0.3222828805446625,2.988145589828491
34,20538,20536,-0.011513139121234417,-0.06593777984380722,0.9850746989250183,0.8106666803359985,10.451334953308105,0.6930522322654724,1.972733736038208,4.015047550201416,0.2506885528564453,1.5562702417373657,0.34191346168518066,2.991302967071533
35,20548,20546,-0.07593310624361038,0.05001949146389961,0.907135009765625,-2.079089879989624,15.107171058654785,0.48126667737960815,1.9723913669586182,4.014065265655518,0.2528243958950043,1.439544916152954,0.4062782824039459,2.985996961593628
36,20558,20556,-0.012377501465380192,-0.052845221012830734,0.8764010667800903,-4.935347080230713,18.826303482055664,0.2098759263753891,1.9714164733886719,4.014627933502197,0.25488317012786865,1.3070414066314697,0.3270237445831299,3.001804828643799
37,20568,20566,0.06027466431260109,-0.10605376958847046,0.9023987650871277,-6.6018829345703125,21.607017517089844,0.16201640665531158,1.9700454473495483,4.013787269592285,0.2561614513397217,1.1080050468444824,0.20721480250358582,3.0174460411071777
38,20578,20576,0.00012783371494151652,-0.007301595062017441,0.952233076095581,-7.904788017272949,25.824682235717773,-0.0918918326497078,1.9682694673538208,4.01262903213501,0.2581503689289093,0.784034252166748,0.15103554725646973,3.010175943374634
39,20588,20586,-0.001966266194358468,-0.03216660022735596,0.931220531463623,-6.377133369445801,21.235565185546875,0.0034417524002492428,1.9657533168792725,4.010473251342773,0.25977104902267456,0.7333452701568604,0.23086005449295044,2.997561454772949
40,20598,20596,0.07361456751823425,0.06118454411625862,0.8745107054710388,-4.9126434326171875,17.840890884399414,-0.06267348676919937,1.964624285697937,4.011703014373779,0.25987163186073303,0.4440685212612152,0.10164421796798706,3.0046541690826416
41,20608,20606,-0.019497038796544075,0.04156973958015442,0.9496631622314453,-3.3087031841278076,14.711349487304688,-0.19238927960395813,1.965177059173584,4.013327598571777,0.2614886164665222,0.14032991230487823,-0.0035482088569551706,3.0042173862457275
42,20618,20616,-0.02229779027402401,0.007325794547796249,0.9520363211631775,-1.9283649921417236,12.402896881103516,0.11162205040454865,1.962604284286499,4.011812210083008,0.2629041373729706,0.19592945277690887,0.07824578136205673,3.0011038780212402
43,20628,20626,0.012852340936660767,-0.0121127525344491,0.9320586919784546,-0.7934034466743469,8.807185173034668,-0.40096303820610046,1.9624768495559692,4.011919975280762,0.26580384373664856,-0.014849684201180935,0.024514466524124146,3.000256061553955
44,20638,20636,-0.06543862074613571,0.02593139559030533,0.9741315245628357,-0.16861280798912048,6.56161642074585,-0.5592158436775208,1.9607845544815063,4.011293411254883,0.2672082483768463,-0.011956246569752693,-0.008778167888522148,2.9997332096099854
45,20648,20646,-0.030177434906363487,0.060580845922231674,0.9416558742523193,-0.42305248975753784,6.485091686248779,-0.7225884199142456,1.9588816165924072,4.008627414703369,0.26858383417129517,-0.07308508455753326,0.1123107299208641,2.9828004837036133
46,20658,20656,-0.010939358733594418,0.03691990301012993,0.966180682182312,-1.2026828527450562,6.553948402404785,-0.81409752368927,1.9595115184783936,4.011120319366455,0.27002835273742676,-0.20669271051883698,0.0675281435251236,2.9748637676239014
47,20668,20666,-0.047941654920578,0.06971342861652374,0.9732666611671448,-2.9446773529052734,8.539844512939453,-1.0836564302444458,1.9593952894210815,4.011966705322266,0.27247780561447144,-0.3624042272567749,-0.00083278922829777,2.9627814292907715
48,20678,20676,0.04130091890692711,-0.007146733812987804,0.8657869696617126,-3.654130458831787,10.388033866882324,-1.6330492496490479,1.956516146659851,4.0114359855651855,0.273979514837265,-0.4257206916809082,-0.025822263211011887,2.9491963386535645
49,20688,20686,0.1492823362350464,-0.0743512213230133,0.8237535357475281,-3.625971794128418,9.143632888793945,-1.7300649881362915,1.9545419216156006,4.010940074920654,0.2751065194606781,-0.4240725040435791,-0.053735386580228806,2.935908555984497
50,20698,20696,0.04605818912386894,-0.025070369243621826,0.9269425868988037,-4.182641506195068,7.8357110023498535,-1.7946494817733765,1.9546022415161133,4.01194953918457,0.27871543169021606,-0.6631568670272827,-0.14753924310207367,2.9148943424224854
51,20708,20706,0.07201636582612991,-0.1541728675365448,0.9556958675384521,-3.815446138381958,7.824169635772705,-1.6852378845214844,1.950689673423767,4.011559009552002,0.2798789143562317,-0.586158275604248,-0.17269320785999298,2.903116226196289
52,20718,20716,0.029552871361374855,-0.21244661509990692,0.9880773425102234,-2.8412041664123535,6.788791656494141,-1.8206888437271118,1.9508038759231567,4.010634422302246,0.28102490305900574,-0.7862898111343384,-0.17448188364505768,2.888749122619629
53,20728,20726,-0.03378406539559364,-0.18906719982624054,1.0256403684616089,-1.0022451877593994,7.42680549621582,-1.8958808183670044,1.9502183198928833,4.011499404907227,0.2796465754508972,-0.8876127600669861,-0.23228605091571808,2.8694701194763184
54,20738,20736,0.011414194479584694,-0.047381509095430374,0.9390608668327332,0.9968557953834534,8.668473243713379,-2.0304112434387207,1.9485909938812256,4.011754989624023,0.2804935872554779,-0.8722598552703857,-0.259025514125824,2.848355531692505
55,20748,20746,-0.032588548958301544,0.0010841750772669911,0.9744598865509033,0.950859010219574,7.338237285614014,-2.214345693588257,1.9484922885894775,4.010613441467285,0.2814095616340637,-1.0381300449371338,-0.1840420812368393,2.8339130878448486
56,20758,20756,-0.002992981346324086,0.015773359686136246,0.9740142226219177,0.6350305676460266,7.045846939086914,-2.12931752204895,1.9465160369873047,4.010829925537109,0.28313109278678894,-1.0103349685668945,-0.12640506029129028,2.817471742630005
57,20768,20766,0.012113405391573906,0.007004265673458576,0.9603687524795532,-0.5139601826667786,5.138238906860352,-2.5229270458221436,1.9451465606689453,4.010219097137451,0.2839716374874115,-1.0417697429656982,-0.1596585065126419,2.78786039352417
58,20778,20776,-0.001210625865496695,0.10429660975933075,0.9798501133918762,-1.5491596460342407,2.3760225772857666,-2.407010793685913,1.945763111114502,4.011789798736572,0.2848455607891083,-1.1750695705413818,-0.2053413689136505,2.7614612579345703
59,20788,20786,0.008234972134232521,0.09278395771980286,0.9815208911895752,-2.3619658946990967,0.8426623344421387,-2.356843948364258,1.9428389072418213,4.011142253875732,0.2847953140735626,-1.0466485023498535,-0.19183789193630219,2.738750696182251
60,20798,20796,0.019384140148758888,-0.004988362547010183,0.9643781781196594,-1.9932410717010498,0.9913305044174194,-2.082810878753662,1.9419082403182983,4.011570453643799,0.2826748192310333,-1.1481773853302002,-0.25777876377105713,2.7106587886810303
61,20808,20806,0.019701892510056496,-0.03767919912934303,0.9461222290992737,-2.8273813724517822,0.6028822064399719,-2.937883138656616,1.9403293132781982,4.013376712799072,0.28325095772743225,-1.0807348489761353,-0.32189255952835083,2.674802303314209
62,20818,20816,-0.02672695927321911,0.08539468795061111,0.954274594783783,-1.4252703189849854,0.6992038488388062,-2.0223259925842285,1.9393929243087769,4.01306676864624,0.28388699889183044,-1.1828354597091675,-0.29680517315864563,2.6572861671447754
63,20828,20826,-0.016753312200307846,0.04263753443956375,0.983147919178009,-0.7537035346031189,1.7473652362823486,-2.2700350284576416,1.9384527206420898,4.013425827026367,0.2852833867073059,-1.1946392059326172,-0.33826014399528503,2.63044810295105
64,20838,20836,-0.02273327112197876,0.03721081092953682,0.9933432936668396,0.9876814484596252,1.7509994506835938,-2.148979902267456,1.936874270439148,4.014791011810303,0.2858080565929413,-1.22147536277771,-0.35557758808135986,2.604949712753296
65,20848,20846,0.015402240678668022,0.08119551837444305,0.969927966594696,1.0185205936431885,1.0127331018447876,-1.7830793857574463,1.936076283454895,4.014880657196045,0.2863045632839203,-1.203787922859192,-0.35497230291366577,2.5799872875213623
66,20858,20856,0.007879970595240593,0.0014562724390998483,0.9900010824203491,2.1458258628845215,-2.8281350135803223,-0.9094767570495605,1.9357854127883911,4.0157318115234375,0.2875187397003174,-1.266636848449707,-0.3431324064731598,2.566818952560425
67,20868,20866,-0.055333200842142105,-0.052935682237148285,1.1575735807418823,3.1600871086120605,-1.2299405336380005,-1.753950834274292,1.934765100479126,4.015014171600342,0.28802573680877686,-1.2845405340194702,-0.3076149821281433,2.5582733154296875
68,20878,20876,0.002674101386219263,-0.009841030463576317,1.0140323638916016,2.45098876953125,-1.2304452657699585,-1.434338092803955,1.9342519044876099,4.015418529510498,0.2892528176307678,-1.3098108768463135,-0.271034300327301,2.544489860534668
69,20888,20886,-0.03526138886809349,-0.004559800028800964,1.0300092697143555,1.393460750579834,-2.3001410961151123,-1.4600534439086914,1.933398723602295,4.0164408683776855,0.28923386335372925,-1.3017150163650513,-0.2524699568748474,2.5261261463165283
70,20898,20896,-0.06493817269802094,0.05867224559187889,1.039122462272644,1.2893682718276978,-2.822219133377075,-1.5420273542404175,1.9332576990127563,4.016300201416016,0.2853310704231262,-1.2945213317871094,-0.23430092632770538,2.511772632598877
71,20908,20906,0.016357680782675743,0.16961432993412018,0.9542765021324158,0.5622342228889465,-4.627808570861816,-1.72751784324646,1.9324010610580444,4.01664400100708,0.2857569754123688,-1.2757930755615234,-0.2324981391429901,2.4945790767669678
72,20918,20916,0.04890057072043419,0.1936456561088562,0.9911590218544006,0.046756450086832047,-6.37336540222168,-1.5620136260986328,1.9317265748977661,4.017271041870117,0.286217600107193,-1.2339810132980347,-0.25010946393013,2.474281072616577
73,20928,20926,0.015892399474978447,0.026360921561717987,0.9965964555740356,-0.34635087847709656,-8.231693267822266,-1.5925965309143066,1.931215763092041,4.017283916473389,0.28572750091552734,-1.1329946517944336,-0.26564157009124756,2.4543704986572266
74,20938,20936,0.008984101936221123,-0.03122091107070446,0.9694798588752747,-0.3548314869403839,-9.3173828125,-1.6221668720245361,1.9305436611175537,4.016697406768799,0.28609010577201843,-1.0093022584915161,-0.2778228223323822,2.433357000350952
75,20948,20946,-0.047914013266563416,0.07614976912736893,0.9865174293518066,0.05190838500857353,-8.461220741271973,-1.596968650817871,1.9291942119598389,4.015501976013184,0.2864092290401459,-0.894154965877533,-0.2863624691963196,2.4109079837799072
76,20958,20956,-0.04494021460413933,0.06562722474336624,0.9825974702835083,0.370931476354599,-6.508608341217041,-1.244193434715271,1.9294623136520386,4.015401363372803,0.2864990532398224,-0.8687738180160522,-0.2913457155227661,2.398970127105713
77,20968,20966,0.03460698947310448,-0.05996048077940941,0.9899516701698303,0.944929301738739,-2.374488592147827,-1.652583122253418,1.9288382530212402,4.015241622924805,0.28712594509124756,-0.8210427761077881,-0.20636852085590363,2.4005298614501953
78,20978,20976,0.04460347443819046,-0.061143435537815094,0.9683323502540588,0.2033919095993042,0.36872658133506775,-1.672216534614563,1.9283941984176636,4.016086578369141,0.28719258308410645,-0.8294171094894409,-0.20632097125053406,2.381936550140381
79,20988,20986,0.008306285366415977,-0.014581012539565563,1.0050078630447388,1.2390271425247192,-0.2637598514556885,-2.1060993671417236,1.9287649393081665,4.016632080078125,0.28748637437820435,-0.9655401110649109,-0.19637243449687958,2.3688013553619385
80,20998,20996,-0.06298721581697464,0.040444448590278625,1.0710999965667725,0.42739763855934143,-0.3837883472442627,-1.7752453088760376,1.9267483949661255,4.017416477203369,0.2875674366950989,-0.8583534955978394,-0.26814207434654236,2.3301589488983154
81,21008,21006,-0.05527859181165695,0.08646075427532196,1.0416477918624878,1.5711846351623535,-3.6971452236175537,-1.2684013843536377,1.925959825515747,4.017544269561768,0.28785812854766846,-0.8179273009300232,-0.23769350349903107,2.317401170730591
82,21018,21016,-0.011801782995462418,0.02793693356215954,1.0059466361999512,1.7565280199050903,-4.1279497146606445,-0.9122531414031982,1.925924301147461,4.01734733581543,0.28823113441467285,-0.8366798162460327,-0.2109689712524414,2.311396837234497
83,21028,21026,-0.013088316656649113,0.12107431143522263,0.9901093244552612,2.68479323387146,-6.250680923461914,-1.0349290370941162,1.9257659912109375,4.018101692199707,0.28773990273475647,-0.7622657418251038,-0.10278724879026413,2.3134357929229736
84,21038,21036,0.03057055175304413,-0.02540541999042034,0.9516494870185852,3.865650177001953,-8.77504825592041,-1.1741515398025513,1.9260197877883911,4.01834774017334,0.28804996609687805,-0.7124314308166504,-0.06709856539964676,2.3041794300079346
85,21048,21046,-0.011751317419111729,-0.01180466078221798,1.0426948070526123,2.5888001918792725,-8.295877456665039,-0.7818418741226196,1.9249634742736816,4.0188117027282715,0.2887038290500641,-0.5621605515480042,-0.17220254242420197,2.271134853363037
86,21058,21056,-0.02133335918188095,-0.13293735682964325,1.03701651096344,1.2673648595809937,-8.969337463378906,-0.6473134756088257,1.9246177673339844,4.019834518432617,0.28946012258529663,-0.4515160322189331,-0.13895900547504425,2.2672810554504395
87,21068,21066,-0.06646863371133804,-0.09749997407197952,1.0406659841537476,0.6733745336532593,-11.05462646484375,-1.4740984439849854,1.9225581884384155,4.018147945404053,0.28981801867485046,-0.25998586416244507,-0.11534049361944199,2.257089853286743
88,21078,21076,-0.14570170640945435,-0.019670801237225533,1.0655477046966553,-0.6643754839897156,-4.843323707580566,-1.7274528741836548,1.9233922958374023,4.020486831665039,0.2903544306755066,-0.30538618564605713,-0.1219741627573967,2.24509596824646
89,21088,21086,0.0057692257687449455,-0.03393292799592018,1.011374592781067,-0.21196196973323822,-2.012543201446533,-1.3851220607757568,1.9236844778060913,4.02049446105957,0.28825637698173523,-0.2555241882801056,-0.13555589318275452,2.2327401638031006
90,21098,21096,0.030113184824585915,0.010437908582389355,1.018568754196167,-1.1750552654266357,0.36943215131759644,-1.7035303115844727,1.9233397245407104,4.019871234893799,0.2886245846748352,-0.24943974614143372,-0.1441444754600525,2.216049909591675
91,21108,21106,0.029772525653243065,-0.12720277905464172,0.985838770866394,1.909474492073059,-0.28160083293914795,-1.6541963815689087,1.9237502813339233,4.02009916305542,0.28901734948158264,-0.2549847364425659,-0.14377903938293457,2.199986696243286
92,21118,21116,0.0027365093119442463,-0.1707468181848526,0.9986793398857117,3.1572935581207275,0.3476635217666626,-1.0552080869674683,1.922661542892456,4.018815994262695,0.2894122898578644,-0.2473200112581253,-0.09413136541843414,2.189591646194458
93,21128,21126,0.0014477610820904374,-0.0077069345861673355,1.0147535800933838,2.6333539485931396,4.927089691162109,-1.2208937406539917,1.922629952430725,4.021260738372803,0.2870596647262573,-0.29255980253219604,-0.049432672560214996,2.1791203022003174
94,21138,21136,0.02389805018901825,0.06984153389930725,1.058894157409668,2.120711326599121,10.16899299621582,-1.300432562828064,1.922154426574707,4.019063949584961,0.28723806142807007,-0.3521624207496643,-0.03228423371911049,2.1826751232147217
95,21148,21146,0.08130396157503128,-0.04482842609286308,1.0250589847564697,-0.4049322307109833,13.894682884216309,-1.5468063354492188,1.922467589378357,4.018692970275879,0.28752756118774414,-0.5146094560623169,-0.002392386319115758,2.1720070838928223
96,21158,21156,-0.01894518919289112,0.048873305320739746,1.0298361778259277,-2.1259608268737793,14.023795127868652,-1.146053671836853,1.9229891300201416,4.018790245056152,0.2898908853530884,-0.7071324586868286,-0.08457699418067932,2.155306339263916
97,21168,21166,0.030633442103862762,-0.07709614932537079,0.9825688004493713,-2.671373128890991,12.433659553527832,-1.6903700828552246,1.9217790365219116,4.017355442047119,0.29035910964012146,-0.8390389680862427,-0.10773995518684387,2.1428468227386475
98,21178,21176,0.0032842489890754223,0.04898788034915924,1.012736439704895,-1.595555305480957,8.543572425842285,-1.6768012046813965,1.9222092628479004,4.017463207244873,0.2907414436340332,-1.0305274724960327,-0.14060595631599426,2.125432014465332
99,21188,21186,0.0035545341670513153,0.003565950319170952,0.9837042093276978,1.3811328411102295,2.962674140930176,-1.5010974407196045,1.9218813180923462,4.016938209533691,0.2881816029548645,-1.0619735717773438,-0.15190427005290985,2.109063148498535
100,21198,21196,0.026512660086154938,0.0031318804249167442,0.9902724623680115,4.023672580718994,-1.8592724800109863,-1.3114259243011475,1.9222333431243896,4.017131328582764,0.28846269845962524,-1.102041482925415,-0.12456967681646347,2.094466209411621
101,21208,21206,0.032142654061317444,-0.009617893025279045,1.0079048871994019,4.881448745727539,-5.90903902053833,-0.9458268880844116,1.9230111837387085,4.017929553985596,0.288635790348053,-1.2148655652999878,-0.06098911538720131,2.0841453075408936
102,21218,21216,-0.016387177631258965,-0.004385832697153091,1.0723375082015991,5.173724174499512,-5.445798873901367,-0.9067152738571167,1.9214426279067993,4.0172576904296875,0.28896766901016235,-1.072754979133606,-0.049811165779829025,2.068716049194336
103,21228,21226,-0.02765113115310669,0.0698430985212326,0.9838002324104309,5.904908180236816,-5.262512683868408,-1.0404971837997437,1.9200326204299927,4.016968250274658,0.28758659958839417,-0.9244903922080994,0.05064362660050392,2.0650596618652344
104,21238,21236,-0.0709000900387764,0.20289082825183868,0.9514506459236145,1.76095449924469,-0.8249515891075134,-0.6463771462440491,1.9200012683868408,4.017066955566406,0.2878153622150421,-0.8903862237930298,0.13697563111782074,2.0582401752471924
105,21248,21246,-0.020024742931127548,0.16968287527561188,0.9690393209457397,-2.910694122314453,4.120110511779785,-0.3960488736629486,1.9214125871658325,4.017653465270996,0.2879861295223236,-0.9957126975059509,0.1657557338476181,2.0479116439819336
106,21258,21256,-0.009580910205841064,0.04886781424283981,1.0164393186569214,-4.450051307678223,9.403974533081055,-1.040343165397644,1.9217615127563477,4.0191168785095215,0.2898542284965515,-1.0124636888504028,0.12423243373632431,2.039443254470825
107,21268,21266,0.026138082146644592,0.11143040657043457,0.9858912825584412,-5.110825538635254,9.725131034851074,-0.9671300649642944,1.923181176185608,4.019637584686279,0.29004722833633423,-1.1581000089645386,0.04838079214096069,2.029639959335327
108,21278,21276,-0.042820803821086884,0.08204188197851181,1.1108824014663696,-4.345576286315918,2.8934221267700195,-0.8163825273513794,1.9225152730941772,4.018505573272705,0.2903093993663788,-1.200508952140808,-0.03046986646950245,2.0177223682403564
109,21288,21286,-0.05920601263642311,-0.06767533719539642,1.062483549118042,-1.665247917175293,-0.562985360622406,-0.8509052395820618,1.9225212335586548,4.018523216247559,0.2904582619667053,-1.1565937995910645,-0.08805117756128311,2.009599447250366
110,21298,21296,-0.030329598113894463,-0.0216596070677042,1.0479233264923096,0.12479566037654877,-2.5210204124450684,-1.0824817419052124,1.9224761724472046,4.018667221069336,0.2908366620540619,-1.0759549140930176,-0.11182548850774765,2.001580238342285
111,21308,21306,0.037035658955574036,0.022484254091978073,0.9993958473205566,3.430575132369995,-4.630063056945801,-0.632512629032135,1.9229130744934082,4.018548965454102,0.29124385118484497,-1.0605518817901611,-0.09678838402032852,1.9952462911605835
112,21318,21316,0.07020072638988495,-0.05170077458024025,1.0034654140472412,5.354228973388672,-4.391423225402832,-0.7941488027572632,1.9247773885726929,4.0194783210754395,0.2915742099285126,-1.1776505708694458,-0.11288390308618546,1.9838268756866455
113,21328,21326,0.01582508347928524,-0.04051642119884491,1.0257643461227417,4.6991777420043945,-3.7109286785125732,-0.7523412108421326,1.9245412349700928,4.018486976623535,0.2939649820327759,-1.041610836982727,-0.01767684519290924,1.9856517314910889
114,21338,21336,0.013023681938648224,-0.007332660723477602,1.0228365659713745,3.7028403282165527,-2.9461984634399414,-0.8601533770561218,1.9257773160934448,4.019515037536621,0.29450708627700806,-1.0686357021331787,-0.0024974686093628407,1.9738632440567017
115,21348,21346,0.015086638741195202,0.071119025349617,1.0176540613174438,3.8319506645202637,-3.1701650619506836,-1.1445976495742798,1.9254341125488281,4.0206685066223145,0.29513823986053467,-1.0224554538726807,0.07812096178531647,1.96933913230896
116,21358,21356,0.02356286160647869,0.05120032653212547,1.034771203994751,2.4560656547546387,-2.9347333908081055,-0.4079652726650238,1.9257978200912476,4.019756317138672,0.29406940937042236,-0.9762151837348938,0.1441664695739746,1.961685299873352
117,21368,21366,0.00908393319696188,0.04398442432284355,1.0291720628738403,-1.143983006477356,-2.6331589221954346,-1.5804632902145386,1.9272228479385376,4.019863128662109,0.29454341530799866,-1.0104072093963623,0.18206919729709625,1.9562631845474243
118,21378,21376,-0.054306138306856155,0.024942917749285698,1.0155272483825684,-1.9757194519042969,-3.2364108562469482,-0.9587406516075134,1.92716646194458,4.0206122398376465,0.29517877101898193,-0.8875155448913574,0.1716168075799942,1.9449306726455688
119,21388,21386,0.02864001877605915,-0.05805663391947746,0.9798740744590759,-4.655134677886963,-2.0718812942504883,-1.0099632740020752,1.9281971454620361,4.020322322845459,0.29714223742485046,-0.9337302446365356,0.13040035963058472,1.9332828521728516
120,21398,21396,-0.004112621303647757,0.008020970039069653,1.0413790941238403,-2.555946111679077,-2.8683536052703857,-0.5913134813308716,1.92838454246521,4.022775650024414,0.2978332042694092,-0.894415557384491,-0.00463119288906455,1.9098539352416992
121,21408,21406,0.03279939666390419,-0.0931699126958847,1.0138837099075317,-0.87941974401474,-3.365689516067505,-0.7641401290893555,1.9278912544250488,4.022875785827637,0.29849007725715637,-0.8392133712768555,-0.031584933400154114,1.9064555168151855
122,21418,21416,0.04064689576625824,-0.06455636769533157,0.9690967798233032,1.6399132013320923,-2.7600648403167725,-0.23346222937107086,1.9291932582855225,4.022244930267334,0.2987581789493561,-0.8632770776748657,0.04775421693921089,1.909226655960083
123,21428,21426,-0.010709541849792004,0.021588772535324097,1.0315755605697632,2.6168746948242188,-1.7341704368591309,0.07856784015893936,1.9292653799057007,4.023416996002197,0.29949018359184265,-0.7413116693496704,0.06909698247909546,1.9088770151138306
124,21438,21436,-0.010729529894888401,0.03382798284292221,1.0579595565795898,4.473149299621582,-3.069544553756714,-0.4287893772125244,1.9304344654083252,4.023362159729004,0.30012595653533936,-0.7784060835838318,0.043940845876932144,1.9002479314804077
125,21448,21446,-0.0033785614650696516,-0.006412902381271124,1.0088874101638794,4.669870376586914,-2.4931843280792236,-0.08620180189609528,1.9308744668960571,4.024159908294678,0.30078065395355225,-0.8017213940620422,0.12450769543647766,1.9009220600128174
126,21458,21456,0.01248746458441019,-0.03673621267080307,0.9722092151641846,4.126222610473633,-3.056706428527832,0.06175202876329422,1.9296687841415405,4.024988174438477,0.29756978154182434,-0.6648706197738647,0.12937091290950775,1.8987274169921875
127,21468,21466,-0.013850424438714981,0.06993455439805984,0.957270622253418,2.1329171657562256,-3.456665277481079,0.5148078799247742,1.9305181503295898,4.0242180824279785,0.2980254590511322,-0.6949656009674072,0.20349140465259552,1.8993830680847168
128,21478,21476,-0.004937199410051107,-0.09074332565069199,1.0059163570404053,1.0811049938201904,-5.219344139099121,0.2990429699420929,1.9322221279144287,4.023247241973877,0.2984130382537842,-0.7685526609420776,0.24369896948337555,1.9001433849334717
129,21488,21486,0.014394385740160942,-0.05754425376653671,1.0234405994415283,-0.6708575487136841,-2.6448066234588623,-0.3545718789100647,1.9331008195877075,4.023688793182373,0.29921218752861023,-0.7575096487998962,0.18182383477687836,1.8972471952438354
130,21498,21496,-0.015369217842817307,0.014100139029324055,1.0120991468429565,-1.7731484174728394,-3.1196770668029785,-0.5076219439506531,1.9328988790512085,4.024051666259766,0.29981526732444763,-0.5950125455856323,0.18768036365509033,1.8981177806854248
131,21508,21506,0.04235793650150299,-0.03295170143246651,1.0174674987792969,-2.067819356918335,-3.590538263320923,-0.9800180792808533,1.934773325920105,4.02452278137207,0.3002024292945862,-0.6955295205116272,0.08674626797437668,1.8837863206863403
132,21518,21516,0.013105708174407482,-0.0005190273514017463,1.0305639505386353,-1.3413175344467163,-5.268962860107422,-0.4724269509315491,1.9340888261795044,4.024257659912109,0.30026718974113464,-0.5458813309669495,0.06345847994089127,1.878811240196228
133,21528,21526,-0.02156774140894413,-0.07712772488594055,1.0347034931182861,0.24075503647327423,-6.091599941253662,-0.23414453864097595,1.9352037906646729,4.023782253265381,0.30075064301490784,-0.5143940448760986,0.061730898916721344,1.8746535778045654
134,21538,21536,-0.06730346381664276,-0.009798191487789154,1.059463620185852,1.8950709104537964,-5.885697364807129,-0.7211717963218689,1.9341156482696533,4.020556926727295,0.3012036085128784,-0.46376436948776245,0.08922625333070755,1.866063117980957
135,21548,21546,0.007137097418308258,0.05667303502559662,1.0024350881576538,3.9462711811065674,-4.15524959564209,0.007140174973756075,1.9335453510284424,4.021954536437988,0.3018476068973541,-0.27589476108551025,0.1360180675983429,1.8642584085464478
136,21558,21556,0.04902513325214386,0.12328359484672546,0.9354042410850525,4.709774494171143,-2.8561389446258545,-0.22582484781742096,1.9359638690948486,4.02293586730957,0.3040955066680908,-0.4400895833969116,0.13021023571491241,1.8559722900390625
137,21568,21566,0.048248209059238434,0.21050243079662323,0.9728622436523438,3.644246816635132,-1.7653131484985352,-0.6455075740814209,1.936570644378662,4.023866176605225,0.3048044443130493,-0.39677080512046814,0.14120885729789734,1.8526875972747803
138,21578,21576,0.06485894322395325,0.13625530898571014,0.9781755805015564,3.1122570037841797,-2.2608861923217773,-0.7248319983482361,1.9373143911361694,4.024497985839844,0.3054483234882355,-0.3862733244895935,0.2145494967699051,1.8509585857391357
139,21588,21586,0.045673441141843796,0.022608889266848564,0.9988097548484802,0.7832873463630676,-3.877561330795288,-0.9464681148529053,1.93720543384552,4.023952960968018,0.3057251572608948,-0.35649245977401733,0.26399099826812744,1.844241738319397
140,21598,21596,0.013462947681546211,-0.014168898575007915,0.9935198426246643,-0.1730499267578125,-5.040730953216553,-0.7896626591682434,1.9384897947311401,4.024096488952637,0.3062787353992462,-0.3630858063697815,0.28724226355552673,1.8349498510360718
141,21608,21606,-0.026117239147424698,0.030291037634015083,0.9842907786369324,-1.0952543020248413,-5.231297016143799,-0.9677661657333374,1.9397355318069458,4.023610591888428,0.30682459473609924,-0.341823548078537,0.29302000999450684,1.8246115446090698
142,21618,21616,-0.022280318662524223,0.04203803837299347,0.9537183046340942,-1.7353401184082031,-6.068481922149658,-0.9018831253051758,1.9392555952072144,4.0240020751953125,0.30670732259750366,-0.16464798152446747,0.2804426848888397,1.8157830238342285
143,21628,21626,-0.0058213165029883385,0.05802154541015625,0.9651660919189453,-1.7613246440887451,-5.32735538482666,-0.6738922595977783,1.9410232305526733,4.024284839630127,0.30720603466033936,-0.13566315174102783,0.2572835087776184,1.803541898727417
144,21638,21636,-0.0037231140304356813,-0.03476555645465851,0.9704734086990356,-1.0979504585266113,-2.9162299633026123,-0.7671234011650085,1.9420047998428345,4.024190425872803,0.3076951801776886,-0.10484708100557327,0.23101726174354553,1.7937763929367065
145,21648,21646,0.01956099085509777,-0.04798320680856705,0.9574107527732849,0.10704077035188675,-1.510467290878296,-0.8649924397468567,1.94281804561615,4.025247573852539,0.30806416273117065,-0.10804647207260132,0.1431761384010315,1.7861346006393433
146,21658,21656,0.008332223631441593,0.04986448958516121,1.0716930627822876,0.7104259133338928,-0.1651158332824707,-1.0844014883041382,1.9428224563598633,4.025217056274414,0.30817747116088867,0.01794118992984295,0.15477682650089264,1.7803685665130615
147,21668,21666,0.025720391422510147,-0.0014559437986463308,1.0201504230499268,1.7364604473114014,-0.7193990349769592,-1.0424449443817139,1.9420658349990845,4.023691177368164,0.30856338143348694,0.0299313273280859,0.17901268601417542,1.7700520753860474
148,21678,21676,0.08114978671073914,-0.14377252757549286,0.9877617955207825,1.513375997543335,0.2940129041671753,-1.5641862154006958,1.9446353912353516,4.024296283721924,0.308874249458313,-0.10974481701850891,0.21716034412384033,1.7520530223846436
149,21688,21686,-0.02507001906633377,0.04208948463201523,1.0096526145935059,0.7284339070320129,2.6748037338256836,-2.004075288772583,1.9446985721588135,4.023265838623047,0.30624088644981384,-0.09304001927375793,0.2537936270236969,1.7351906299591064
150,21698,21696,-0.003374921390786767,0.09310638904571533,0.921764612197876,0.11898386478424072,0.5898752212524414,-1.938833475112915,1.9456866979599,4.0230488777160645,0.30647581815719604,-0.12613458931446075,0.27214667201042175,1.7155334949493408
151,21708,21706,0.05464836210012436,0.013253715820610523,0.8923406004905701,0.5549383759498596,-1.6989737749099731,-1.7296550273895264,1.946846604347229,4.022388935089111,0.30666717886924744,-0.15342409908771515,0.27439117431640625,1.6874322891235352
152,21718,21716,0.004963820334523916,0.005694523919373751,0.9889004230499268,-0.14383116364479065,-3.1222736835479736,-1.6745766401290894,1.9482688903808594,4.022406101226807,0.30821874737739563,-0.19272162020206451,0.2820832431316376,1.6676663160324097
153,21728,21726,0.01263165008276701,-0.010223126038908958,1.0023270845413208,-1.4095760583877563,-4.497856616973877,-1.6586713790893555,1.947448492050171,4.023136615753174,0.30848270654678345,-0.03654177486896515,0.2766137719154358,1.6636083126068115
154,21738,21736,0.015278546139597893,0.005314711946994066,1.0079792737960815,-2.5323293209075928,-4.024448394775391,-1.712279200553894,1.9478932619094849,4.024043560028076,0.308663547039032,0.0505421981215477,0.17464043200016022,1.6540040969848633
155,21748,21746,-0.01623096503317356,-0.027811730280518532,1.039677381515503,-2.479825258255005,-2.5699386596679688,-1.7687376737594604,1.9487890005111694,4.024240493774414,0.30823788046836853,0.14007137715816498,0.1462082862854004,1.6391006708145142
156,21758,21756,-0.027127917855978012,0.008152337744832039,1.0368549823760986,-1.722490668296814,0.0571260005235672,-1.6823947429656982,1.9514094591140747,4.023524284362793,0.3082771301269531,-0.03383990004658699,0.12250686436891556,1.6064845323562622
157,21768,21766,-0.00011639585136435926,-0.027737585827708244,0.9715863466262817,0.7566648721694946,2.419241428375244,-1.9124549627304077,1.9519238471984863,4.024464130401611,0.30853089690208435,0.065131776034832,0.12143691629171371,1.5918529033660889
158,21778,21776,0.007678568363189697,-0.025238990783691406,1.0179154872894287,1.1789414882659912,3.6777148246765137,-1.613548755645752,1.952147126197815,4.023407459259033,0.30877193808555603,0.11072971671819687,0.2160407304763794,1.568986415863037
159,21788,21786,-0.020197739824652672,0.04093116894364357,1.0619926452636719,2.393200397491455,3.4943511486053467,-2.163111448287964,1.953474521636963,4.023134231567383,0.3103850185871124,-0.02285616844892502,0.2396203875541687,1.5475386381149292
160,21798,21796,0.02600112557411194,0.023542191833257675,0.9858229756355286,3.110217332839966,3.0417428016662598,-1.9778854846954346,1.9542791843414307,4.023108959197998,0.3107289671897888,-0.007951464504003525,0.2757987678050995,1.5203475952148438
161,21808,21806,-0.03650297224521637,-0.0035853979643434286,1.057601809501648,1.9237937927246094,0.9470954537391663,-1.087363839149475,1.9562400579452515,4.02477502822876,0.3110271096229553,-0.13939416408538818,0.16861113905906677,1.5151169300079346
162,21818,21816,-0.0854559987783432,-0.040807273238897324,1.0674004554748535,-0.02087719738483429,-1.014922022819519,-1.4073230028152466,1.9556025266647339,4.026108264923096,0.30922073125839233,-0.0515814833343029,0.13346922397613525,1.509411096572876
163,21828,21826,0.011016570031642914,-0.024400770664215088,1.0072661638259888,-1.381024718284607,0.05533624440431595,-1.417182445526123,1.9563453197479248,4.026275634765625,0.3094395101070404,-0.08835791051387787,0.14816662669181824,1.4968206882476807
164,21838,21836,0.06778628379106522,-0.04927660897374153,0.9913675785064697,-0.37933051586151123,-2.616955041885376,-1.8302863836288452,1.9568926095962524,4.0262837409973145,0.30977633595466614,-0.044296447187662125,0.14953552186489105,1.4817522764205933
165,21848,21846,0.0038624966982752085,-0.02301051840186119,0.9940338730812073,1.09705650806427,-2.6833298206329346,-1.3685615062713623,1.9571821689605713,4.026855945587158,0.3097247779369354,0.015134543180465698,0.16007675230503082,1.47132408618927
166,21858,21856,0.015537062659859657,0.07044462114572525,1.016135811805725,0.8356930017471313,-1.1038553714752197,-1.6757066249847412,1.958351492881775,4.027181625366211,0.3100351095199585,0.07764644920825958,0.19071140885353088,1.4564791917800903
167,21868,21866,0.0015255314065143466,-0.06006445363163948,1.004435420036316,2.210136651992798,-0.23824815452098846,-1.5952489376068115,1.95877206325531,4.026853561401367,0.3103180527687073,0.10755565017461777,0.2182520031929016,1.4423713684082031
168,21878,21876,-0.012901557609438896,-0.049231451004743576,1.0047271251678467,2.5570220947265625,1.161730408668518,-1.31859290599823,1.9590626955032349,4.026185035705566,0.3106499910354614,0.1869886815547943,0.25540414452552795,1.42050302028656
169,21888,21886,0.004667394794523716,-0.03901015222072601,0.9779975414276123,1.4481651782989502,3.4477486610412598,-1.3831180334091187,1.9599021673202515,4.0264410972595215,0.312104731798172,0.16078729927539825,0.2945042550563812,1.4081827402114868
170,21898,21896,-0.0016103998059406877,-0.011540724895894527,1.0000736713409424,1.0969165563583374,5.053779602050781,-1.3458367586135864,1.9615336656570435,4.027220249176025,0.3123610317707062,-0.04348502680659294,0.24927550554275513,1.3991923332214355
171,21908,21906,-0.03248227760195732,-1.4659441148978658e-05,0.9577333331108093,-0.5044068098068237,5.349702835083008,-2.035700559616089,1.9620177745819092,4.027285575866699,0.31275635957717896,-0.02928669936954975,0.271750807762146,1.385955572128296
172,21918,21916,-0.04581413418054581,0.007079239469021559,0.9897162914276123,-1.5344774723052979,4.929127216339111,-1.9254465103149414,1.9622141122817993,4.028504848480225,0.3109726309776306,-0.018067339435219765,0.2639833688735962,1.3857735395431519
173,21928,21926,-0.0419299341738224,0.04240468889474869,0.9445673823356628,-1.8219002485275269,3.5825586318969727,-2.3117785453796387,1.9617371559143066,4.028783798217773,0.31117841601371765,-0.0036329759750515223,0.2462197095155716,1.3748056888580322
174,21938,21936,-0.00511223403736949,-0.08632232993841171,1.0368993282318115,-2.2134063243865967,2.8510358333587646,-1.574385166168213,1.9632599353790283,4.029220104217529,0.31127357482910156,-0.11581884324550629,0.22024443745613098,1.3263940811157227
175,21948,21946,-0.014584866352379322,-0.13086040318012238,1.0776762962341309,0.45795753598213196,2.5565950870513916,-1.2596625089645386,1.9610720872879028,4.028111934661865,0.31093549728393555,-0.03537755832076073,0.20004703104496002,1.3311302661895752
176,21958,21956,0.0028291037306189537,-0.14487618207931519,1.0092551708221436,2.089521646499634,2.5901882648468018,-1.4029932022094727,1.96019446849823,4.027762413024902,0.31117212772369385,0.03622858598828316,0.21617650985717773,1.3216050863265991
177,21968,21966,-0.0008558439440093935,-0.07532552629709244,0.9688223004341125,1.2033545970916748,4.785051345825195,-1.8325670957565308,1.9628766775131226,4.028071403503418,0.31132110953330994,-0.15130110085010529,0.25852203369140625,1.3024334907531738
178,21978,21976,0.030126819387078285,-0.030385268852114677,0.9248072504997253,1.9155588150024414,5.197847366333008,-1.843550205230713,1.9632880687713623,4.027291774749756,0.31136223673820496,-0.15260140597820282,0.2928864061832428,1.275231957435608
179,21988,21986,0.02261396124958992,0.0046988558024168015,0.9819230437278748,0.8879915475845337,3.4988207817077637,-1.3671176433563232,1.964684009552002,4.027412414550781,0.31142619252204895,-0.3176134526729584,0.3207061290740967,1.254226565361023
180,21998,21996,-0.03731302171945572,0.07511954009532928,0.9692369699478149,-1.3193248510360718,2.384639263153076,-0.8073747754096985,1.9643687009811401,4.027327060699463,0.31167057156562805,-0.20997042953968048,0.3302040994167328,1.240848422050476
181,22008,22006,0.012691686861217022,-0.09793692827224731,1.004928708076477,-3.004549980163574,2.247807502746582,-1.0249998569488525,1.964563012123108,4.027418613433838,0.31177854537963867,-0.19615496695041656,0.29313477873802185,1.2235606908798218
182,22018,22016,0.045909471809864044,-0.18868312239646912,0.9976224303245544,-3.01924204826355,0.41113120317459106,-0.621906042098999,1.965114951133728,4.02804708480835,0.30912449955940247,-0.23637212812900543,0.23489616811275482,1.2335166931152344
183,22028,22026,0.0322694405913353,-0.26188328862190247,1.0123775005340576,-2.566781759262085,-0.13866376876831055,-0.8346293568611145,1.965194582939148,4.027945041656494,0.3090212643146515,-0.23912055790424347,0.184731125831604,1.2350131273269653
184,22038,22036,-0.028504787012934685,-0.06731430441141129,1.0472601652145386,-1.722846508026123,0.9926071763038635,-0.9818480610847473,1.9659359455108643,4.028449535369873,0.3089405596256256,-0.2299121916294098,0.15032576024532318,1.2268363237380981
185,22048,22046,0.02555125765502453,0.04552372917532921,0.9454995393753052,0.1822875738143921,2.0359947681427,-1.0786583423614502,1.9672058820724487,4.028534412384033,0.3077995181083679,-0.3251839578151703,0.13443295657634735,1.216242790222168
186,22058,22056,-0.03347489610314369,0.05515822023153305,1.0401962995529175,0.8324650526046753,2.701683521270752,-1.36259925365448,1.967870831489563,4.0284576416015625,0.3076454699039459,-0.3643515706062317,0.1385962963104248,1.1938707828521729
187,22068,22066,0.023356541991233826,0.061838433146476746,1.0337684154510498,1.0243654251098633,2.187220573425293,-1.5271415710449219,1.9683698415756226,4.02870512008667,0.3075695335865021,-0.3474622964859009,0.0816287100315094,1.1900477409362793
188,22078,22076,0.019840534776449203,-0.009737443178892136,1.0023846626281738,1.0555135011672974,1.008062481880188,-1.3928921222686768,1.970189094543457,4.027721881866455,0.3093110918998718,-0.4659152925014496,0.1871218979358673,1.1632028818130493
189,22088,22086,-0.0026368447579443455,0.007080866023898125,1.0287742614746094,1.7867988348007202,-0.052152372896671295,-1.0672377347946167,1.9700582027435303,4.027427673339844,0.3094206154346466,-0.3908365070819855,0.20820435881614685,1.1502050161361694
190,22098,22096,-0.005832512862980366,-0.005495309829711914,1.0129603147506714,0.3831019401550293,-4.016883850097656,-0.17831741273403168,1.9713892936706543,4.0277204513549805,0.30940139293670654,-0.45895710587501526,0.23332907259464264,1.1433237791061401
191,22108,22106,-0.08304332196712494,0.1509859263896942,1.0664972066879272,-0.5165379643440247,-1.2361403703689575,-1.0976834297180176,1.9705713987350464,4.027426719665527,0.30961889028549194,-0.3271692395210266,0.23493798077106476,1.128263235092163
192,22118,22116,-5.467594746733084e-05,0.04056965187191963,1.0472098588943481,-1.5898768901824951,-0.9738476276397705,-1.097702145576477,1.9704118967056274,4.0268683433532715,0.31028178334236145,-0.20102132856845856,0.2189839631319046,1.1220308542251587
193,22128,22126,-0.038292549550533295,0.0011509450851008296,1.1041334867477417,-2.707595109939575,-0.2416432946920395,-1.0634937286376953,1.9708762168884277,4.026429176330566,0.31047412753105164,-0.1578262448310852,0.18806307017803192,1.1045371294021606
194,22138,22136,-0.007778908126056194,-0.057542067021131516,1.0159138441085815,-2.295222043991089,1.1147453784942627,-0.4412175714969635,1.972245454788208,4.026702404022217,0.31070584058761597,-0.2298886775970459,0.14423991739749908,1.1005899906158447
195,22148,22146,-0.02301366627216339,-0.0321577787399292,1.0046470165252686,-1.5951247215270996,4.602111339569092,-0.4983275234699249,1.972898006439209,4.026138782501221,0.3102859556674957,-0.25559890270233154,0.10899748653173447,1.083250880241394
196,22158,22156,0.012540645897388458,-0.00513676879927516,1.001913070678711,-1.3099251985549927,5.8595781326293945,-0.02649545669555664,1.9744224548339844,4.027009010314941,0.3105025887489319,-0.40636733174324036,0.0054904380813241005,1.0755976438522339
197,22168,22166,0.04021969437599182,-0.06461161375045776,0.989983081817627,1.0656195878982544,3.6745517253875732,-0.2742244005203247,1.975000262260437,4.026536464691162,0.310864120721817,-0.4197259843349457,-0.005910259671509266,1.0637857913970947
198,22178,22176,0.059449922293424606,-0.15161000192165375,1.0081950426101685,2.073071241378784,1.0805031061172485,0.02170385606586933,1.9760799407958984,4.02639627456665,0.31282180547714233,-0.47703132033348083,0.010536672547459602,1.0712051391601562
199,22188,22186,0.009293565526604652,-0.035517264157533646,1.030235767364502,3.284783124923706,-1.125771164894104,-0.3833094537258148,1.976072072982788,4.026869297027588,0.3132355511188507,-0.4741598069667816,0.06260441243648529,1.0720878839492798
200,22198,22196,0.0057556782849133015,-0.06837797909975052,1.023449420928955,4.133927822113037,-2.8473050594329834,-0.31620824337005615,1.9760832786560059,4.026270866394043,0.31367573142051697,-0.42880314588546753,0.13419584929943085,1.0782209634780884
201,22208,22206,-0.028297321870923042,0.003890501568093896,1.0110721588134766,4.065539836883545,-3.6705126762390137,-0.06067179888486862,1.9755699634552002,4.026347637176514,0.3142620921134949,-0.2827988862991333,0.21401400864124298,1.0770844221115112
202,22218,22216,0.022821154445409775,0.12354589998722076,0.90269535779953,2.7241811752319336,0.14956223964691162,-0.8780508041381836,1.9767733812332153,4.026339530944824,0.3149784207344055,-0.3096010088920593,0.28296181559562683,1.0817127227783203
203,22228,22226,0.050102412700653076,0.2366262674331665,0.8995757102966309,-0.43057671189308167,0.5636072158813477,-0.07351353019475937,1.9781678915023804,4.025646209716797,0.31534916162490845,-0.3839379549026489,0.31277698278427124,1.074736475944519
204,22238,22236,0.09619695693254471,0.20104068517684937,0.9294648170471191,-3.65167498588562,1.1484270095825195,0.10845007747411728,1.9779218435287476,4.027048110961914,0.315787672996521,-0.302871435880661,0.29560497403144836,1.0885393619537354
205,22248,22246,0.01615116000175476,0.006160968914628029,0.9607630372047424,-5.203561305999756,-2.3190908432006836,0.1732550859451294,1.9774699211120605,4.025420188903809,0.31349292397499084,-0.4522375762462616,0.22936177253723145,1.0754687786102295
206,22258,22256,-0.034238964319229126,-0.07260390371084213,1.0272022485733032,-6.270609378814697,1.5070828199386597,0.15573890507221222,1.9779740571975708,4.026051998138428,0.31358128786087036,-0.4046226441860199,0.1312735676765442,1.0782251358032227
207,22268,22266,-0.01604721136391163,-0.12957191467285156,1.01673424243927,-3.5987730026245117,-2.738619804382324,0.7507930397987366,1.9790736436843872,4.025534629821777,0.3135732114315033,-0.4726654589176178,0.03464169055223465,1.0768989324569702
208,22278,22276,-0.005908653140068054,0.06180521100759506,0.9998063445091248,-2.3718810081481934,-3.2235801219940186,0.744367778301239,1.979491114616394,4.025402545928955,0.3134758174419403,-0.39452239871025085,0.06571421027183533,1.073915958404541
209,22288,22286,0.012715530581772327,0.05159737169742584,0.995507538318634,-0.1450856328010559,-3.33956241607666,1.5830028057098389,1.97984778881073,4.02439022064209,0.31355559825897217,-0.326263964176178,0.032994162291288376,1.0673829317092896
210,22298,22296,0.004400548990815878,-0.007130729965865612,0.9859764575958252,2.9211513996124268,-4.403537273406982,1.1680749654769897,1.9806506633758545,4.0245866775512695,0.3135955035686493,-0.32258543372154236,0.04860108345746994,1.1015304327011108
211,22308,22306,0.0009724392439238727,-0.04211694002151489,0.975068986415863,3.0878207683563232,-3.774233102798462,1.387120246887207,1.9801198244094849,4.024857997894287,0.3138153553009033,-0.1593024879693985,0.08849646896123886,1.1140192747116089
212,22318,22316,0.009560114704072475,0.05037422478199005,1.0276951789855957,3.0006585121154785,-2.409799575805664,1.2913143634796143,1.980383038520813,4.025618076324463,0.3139391541481018,-0.10169506818056107,0.13249154388904572,1.151463270187378
213,22328,22326,-0.03156018629670143,0.036253105849027634,1.020283579826355,0.6135599613189697,-0.9802665710449219,1.1240921020507812,1.9815744161605835,4.025153636932373,0.31395772099494934,-0.13889971375465393,0.16823114454746246,1.1487715244293213
214,22338,22336,-0.019794940948486328,-0.004845355171710253,1.0154510736465454,-1.13486647605896,1.0840708017349243,1.0116318464279175,1.9831570386886597,4.024164199829102,0.3140110969543457,-0.20360228419303894,0.16772013902664185,1.153533935546875
215,22348,22346,0.022948099300265312,-0.052592020481824875,0.9701486229896545,-2.886225700378418,2.0969107151031494,1.1691144704818726,1.9849728345870972,4.024297714233398,0.3158092796802521,-0.2920268476009369,0.13043460249900818,1.1650712490081787
216,22358,22356,-0.008838808164000511,0.0025330421049147844,1.0338064432144165,-3.3837428092956543,1.4195990562438965,0.9272556304931641,1.984494686126709,4.02508020401001,0.31613150238990784,-0.22514326870441437,-0.010152015835046768,1.1759055852890015
217,22368,22366,0.008963773027062416,-0.005424997769296169,0.9923036098480225,-4.7281622886657715,0.4940892159938812,0.7815026044845581,1.9846287965774536,4.0240583419799805,0.31642088294029236,-0.15061914920806885,0.00948871485888958,1.1721868515014648
218,22378,22376,0.027533896267414093,-0.017170416191220284,0.9871813058853149,-3.3389689922332764,0.30560237169265747,1.0518016815185547,1.9866001605987549,4.023863315582275,0.3146583139896393,-0.39058175683021545,-0.06469790637493134,1.1804090738296509
219,22388,22386,-0.082011379301548,0.03692923113703728,1.0679937601089478,0.07343780249357224,-2.473011016845703,0.8559171557426453,1.986645221710205,4.024054050445557,0.3149271309375763,-0.22381432354450226,-0.09029269218444824,1.1919043064117432
220,22398,22396,-0.014846866950392723,-0.009613833390176296,1.0010422468185425,2.4136855602264404,-2.6761221885681152,1.4454107284545898,1.9883456230163574,4.023663520812988,0.3150336444377899,-0.23957809805870056,-0.07415713369846344,1.1921323537826538
221,22408,22406,-0.029873257502913475,0.06696717441082001,0.9501017928123474,5.714710712432861,-3.8186378479003906,1.140759825706482,1.9891064167022705,4.023085117340088,0.31683871150016785,-0.2347603589296341,-0.0029490350279957056,1.205934762954712
222,22418,22416,-0.023326348513364792,0.017911743372678757,0.9775711297988892,5.0958147048950195,-3.167173147201538,1.7787730693817139,1.9893062114715576,4.023204326629639,0.31717604398727417,-0.06708995252847672,0.08641367405653,1.2260721921920776
223,22428,22426,0.003697847481817007,-0.03614857420325279,0.9874634742736816,2.620875120162964,-3.1866328716278076,1.4311227798461914,1.9894001483917236,4.023451805114746,0.31743231415748596,0.0004667610046453774,0.0803862139582634,1.2392622232437134
224,22438,22436,0.00935442466288805,-0.017147019505500793,1.0018973350524902,0.8444362878799438,-1.8026831150054932,1.0155035257339478,1.991639256477356,4.022860050201416,0.31752756237983704,-0.1832924485206604,0.11245979368686676,1.2477401494979858
225,22448,22446,0.022528382018208504,0.01710468903183937,0.9576416015625,-1.7394802570343018,0.22604532539844513,0.5109355449676514,1.9922864437103271,4.022238731384277,0.3178975284099579,-0.14734871685504913,0.1132393404841423,1.2398366928100586
226,22458,22456,-0.029407238587737083,-0.05164555460214615,1.01508367061615,-2.5983901023864746,-0.15205097198486328,0.6753392815589905,1.9922878742218018,4.02262020111084,0.318193644285202,-0.022791128605604172,0.08372362703084946,1.249111533164978
227,22468,22466,-0.08640309423208237,0.047605231404304504,1.028244972229004,-4.112757682800293,0.15258124470710754,0.9631065130233765,1.9936639070510864,4.022034168243408,0.31832975149154663,-0.05973343551158905,0.11899490654468536,1.2554854154586792
228,22478,22476,-0.03804027661681175,0.11687912791967392,0.9591374397277832,-4.934975624084473,0.854844868183136,1.087895393371582,1.9935739040374756,4.022455215454102,0.31951192021369934,0.051105398684740067,0.04775071516633034,1.2640794515609741
229,22488,22486,0.013092017732560635,-0.08578784763813019,0.9911376237869263,-4.250751972198486,0.7802058458328247,1.3458147048950195,1.9935208559036255,4.023005485534668,0.3197963833808899,0.12304331362247467,-0.034097593277692795,1.2826573848724365
230,22498,22496,0.044414255768060684,-0.13863301277160645,0.9373874068260193,-2.3603618144989014,1.0730279684066772,1.2370810508728027,1.9962767362594604,4.022709369659424,0.31990742683410645,-0.11999022215604782,-0.08966434746980667,1.287353754043579
231,22508,22506,-0.024152368307113647,-0.17274652421474457,1.0008999109268188,-0.10030239075422287,0.4240049123764038,1.3584133386611938,1.9978729486465454,4.022865295410156,0.3224692642688751,-0.1818051040172577,-0.11785765737295151,1.3013794422149658
232,22518,22516,-0.022401005029678345,-0.025593934580683708,1.0240819454193115,3.847527503967285,-0.9705925583839417,1.3358958959579468,1.9983967542648315,4.021011829376221,0.32281529903411865,-0.15822598338127136,-0.016971183940768242,1.2891035079956055
233,22528,22526,-0.04136047512292862,-0.051889028400182724,0.9900484085083008,3.730394124984741,-4.0228681564331055,0.9512679576873779,1.9985592365264893,4.020884990692139,0.3232114911079407,-0.08310036361217499,0.046450238674879074,1.3020576238632202
234,22538,22536,-0.09533592313528061,0.012592894956469536,0.9996542930603027,3.0879933834075928,-5.647796630859375,0.5309438705444336,1.9981064796447754,4.020257949829102,0.32360032200813293,0.03412149101495743,0.10726851224899292,1.3315415382385254
235,22548,22546,-0.16630922257900238,0.1486363261938095,0.9954543709754944,-0.3134080767631531,-4.775567531585693,0.8759320378303528,1.9984714984893799,4.020300388336182,0.32374438643455505,0.08163813501596451,0.059609293937683105,1.3363550901412964
236,22558,22556,-0.01828383095562458,0.013945786282420158,0.9540631771087646,-2.8183035850524902,-2.1896090507507324,0.7263592481613159,1.9989349842071533,4.021452903747559,0.3240710198879242,0.09106835722923279,0.04251895844936371,1.3585609197616577
237,22568,22566,0.009261689148843288,-0.02835695631802082,0.9816408157348633,-4.192187309265137,-0.11304064840078354,0.39094239473342896,1.9983874559402466,4.021378993988037,0.3244430720806122,0.20895960927009583,-0.01854074001312256,1.3720040321350098
238,22578,22576,-0.021182013675570488,-0.038161903619766235,1.000632643699646,-3.7439303398132324,0.7504748702049255,0.0031197932548820972,2.0007681846618652,4.022281646728516,0.3238260746002197,0.05332855135202408,-0.09267894178628922,1.3793736696243286
239,22588,22586,-0.07861432433128357,0.006323173176497221,0.984266996383667,-3.322223663330078,2.4009289741516113,-0.2921328544616699,2.00024151802063,4.021798610687256,0.32411280274391174,0.12040167301893234,-0.07520069181919098,1.4064472913742065
240,22598,22596,-0.03139832615852356,0.014527076855301857,0.9921073317527771,-1.3352457284927368,1.945997714996338,-0.48809465765953064,2.001249313354492,4.021870136260986,0.3243570029735565,0.09463915973901749,-0.047871410846710205,1.4326406717300415
241,22608,22606,0.04160637408494949,-0.07368040829896927,0.9552003145217896,0.5958371758460999,-0.7498758435249329,0.02838696725666523,2.0022335052490234,4.023049831390381,0.3222446143627167,0.009998723864555359,-0.0704401507973671,1.4545838832855225
242,22618,22616,0.07761409878730774,-0.11144132167100906,0.9630892276763916,-0.49171096086502075,1.2245941162109375,-0.8702907562255859,2.0017566680908203,4.022987365722656,0.32233238220214844,0.07789430767297745,-0.07799914479255676,1.4575012922286987
243,22628,22626,-0.007869972847402096,0.11700890958309174,0.9990856647491455,1.4306538105010986,0.5502474904060364,-1.0074434280395508,2.0025570392608643,4.023309230804443,0.32236242294311523,0.05843847617506981,-0.08055883646011353,1.446641206741333
244,22638,22636,-0.004836934618651867,0.04994921758770943,0.9837828874588013,1.7226396799087524,-0.3424287736415863,-0.6362036466598511,2.0029473304748535,4.02249002456665,0.32257723808288574,0.06416236609220505,-0.06145002692937851,1.4204347133636475
245,22648,22646,0.006030690856277943,-0.017947152256965637,1.0022200345993042,2.091357946395874,-1.1289379596710205,-1.0904439687728882,2.003960371017456,4.021859169006348,0.3225002884864807,0.004415480419993401,-0.03682554140686989,1.3931782245635986
246,22658,22656,0.008089553564786911,-0.007481766398996115,1.010870337486267,0.687820553779602,-0.18100117146968842,-0.4667488932609558,2.003993272781372,4.0212788581848145,0.3225513994693756,0.1113695576786995,-0.01757328398525715,1.3910279273986816
247,22668,22666,0.02000291459262371,-0.011411420069634914,0.9947410821914673,-0.7783360481262207,0.6037594676017761,-1.2336153984069824,2.0032217502593994,4.020967483520508,0.3225746750831604,0.19047830998897552,-0.019246336072683334,1.376866102218628
248,22678,22676,-0.046330537647008896,0.1153569445014,0.9868966341018677,-1.7423174381256104,2.6366076469421387,-0.9911597371101379,2.005208969116211,4.020459175109863,0.32053208351135254,0.02009889855980873,-0.039251040667295456,1.3540269136428833
249,22688,22686,0.00897445809096098,0.10229954868555069,0.9071506261825562,-3.5351500511169434,7.804991722106934,-2.0118842124938965,2.0057711601257324,4.021578788757324,0.32041892409324646,0.03984971344470978,-0.079685278236866,1.3736733198165894
250,22698,22696,0.049874044954776764,0.08434326201677322,0.8998383283615112,-2.924435615539551,4.688510417938232,-1.8531466722488403,2.006275177001953,4.021625518798828,0.3202129900455475,-0.024157388135790825,-0.13075201213359833,1.3368462324142456
251,22708,22706,-0.00769529165700078,0.09069778025150299,1.0215290784835815,-0.41467440128326416,0.01563045009970665,-2.062812089920044,2.006845474243164,4.021494388580322,0.3201359808444977,-0.04924046993255615,-0.16161181032657623,1.3381705284118652
252,22718,22716,0.03284704312682152,-0.018080269917845726,0.9531309604644775,-1.2149096727371216,1.2724933624267578,-1.4747167825698853,2.008207082748413,4.021241664886475,0.31975215673446655,-0.14029565453529358,-0.17672669887542725,1.305037021636963
253,22728,22726,0.02689381316304207,-0.1052127480506897,1.0265871286392212,0.05140766128897667,0.0006332840421237051,-1.2399563789367676,2.0086801052093506,4.021275520324707,0.31942683458328247,-0.1404455006122589,-0.1908794641494751,1.297716498374939
254,22738,22736,0.024446893483400345,-0.0548194944858551,1.005934238433838,1.1281789541244507,-0.8811560273170471,-1.2570996284484863,2.00978946685791,4.021838188171387,0.32117798924446106,-0.12275424599647522,-0.18332810699939728,1.2994487285614014
255,22748,22746,-0.04434926062822342,0.13026343286037445,1.0209389925003052,3.060497522354126,-2.0803780555725098,-0.7843121290206909,2.0110771656036377,4.021300315856934,0.3209179639816284,-0.15804466605186462,-0.13856859505176544,1.2836534976959229
256,22758,22756,-0.0024614310823380947,-0.015463005751371384,1.0011928081512451,3.1603355407714844,-0.4253803491592407,-0.9269865155220032,2.0117685794830322,4.022132873535156,0.32073262333869934,-0.12103557586669922,-0.09239285439252853,1.3087009191513062
257,22768,22766,0.018076300621032715,-0.029652461409568787,1.0013805627822876,2.222698450088501,-0.09891857206821442,-1.1736564636230469,2.013240098953247,4.021673679351807,0.32049912214279175,-0.1714802235364914,-0.05308528617024422,1.280981183052063
258,22778,22776,0.0345393531024456,0.0994453877210617,0.9790863394737244,1.0285125970840454,0.7634564638137817,-0.8128669857978821,2.013237714767456,4.021599292755127,0.3213021159172058,-0.09511218965053558,-0.0272204726934433,1.2670375108718872
259,22788,22786,0.05179496109485626,0.0270204059779644,0.9782200455665588,-0.7392026782035828,-0.5661139488220215,-1.4692555665969849,2.0143439769744873,4.021605014801025,0.32117781043052673,-0.09751586616039276,-0.02004323899745941,1.2563050985336304
260,22798,22796,-0.03965677693486214,-0.007506773807108402,1.0741461515426636,-1.2581294775009155,-2.655287504196167,-1.316576600074768,2.01497483253479,4.021486759185791,0.32104870676994324,-0.07062416523694992,-0.04023304954171181,1.2225708961486816
261,22808,22806,-0.011854905635118484,-0.04372100904583931,1.007918119430542,-2.5988190174102783,-1.7455544471740723,-0.5066667199134827,2.0163841247558594,4.022304534912109,0.3194151520729065,-0.1816469430923462,-0.15623147785663605,1.2298516035079956
262,22818,22816,-0.06183066591620445,0.06778378039598465,1.03948175907135,-2.818451166152954,-0.9743555188179016,-0.9626277089118958,2.0171194076538086,4.022407531738281,0.31931406259536743,-0.11844950914382935,-0.18619513511657715,1.2286111116409302
263,22828,22826,0.0066952514462172985,0.008220500312745571,0.9806100130081177,-1.667547583580017,0.6975588202476501,-0.4237903654575348,2.0176467895507812,4.022709846496582,0.31918975710868835,-0.09075437486171722,-0.21839308738708496,1.2191047668457031
264,22838,22836,0.00971262063831091,0.008707276545464993,1.0097920894622803,3.2628488540649414,-1.362785816192627,-0.6641975045204163,2.0179319381713867,4.022977828979492,0.31906357407569885,-0.07353417575359344,-0.21160300076007843,1.2211393117904663
265,22848,22846,0.010947764851152897,-0.0038739119190722704,0.9951141476631165,4.5519633293151855,-0.5145617723464966,0.023468075320124626,2.0176613330841064,4.022538185119629,0.3190188705921173,0.03879107907414436,-0.13688921928405762,1.2128617763519287
266,22858,22856,-0.03283773735165596,-0.05907028540968895,1.0276223421096802,7.507950782775879,-5.331173896789551,-0.5238702893257141,2.0196797847747803,4.0235981941223145,0.31881406903266907,-0.07285387068986893,-0.10576974600553513,1.2473090887069702
267,22868,22866,-0.10938785970211029,-0.11322497576475143,1.0903058052062988,5.888870716094971,-1.1914235353469849,-1.1328853368759155,2.0198254585266113,4.023665428161621,0.31878334283828735,-0.00904879905283451,-0.06217170134186745,1.2313114404678345
268,22878,22876,-0.006451014894992113,-0.05170873925089836,0.9941110014915466,3.348365545272827,0.6863394975662231,-0.6432053446769714,2.020047187805176,4.023526191711426,0.3177492916584015,0.005869956687092781,0.023622777312994003,1.2260857820510864
269,22888,22886,-0.07642070949077606,0.06407630443572998,1.0070619583129883,1.7084273099899292,0.7247671484947205,-0.7482813596725464,2.020754814147949,4.025430202484131,0.3175555467605591,-0.06081986799836159,-0.07683020830154419,1.2494665384292603
270,22898,22896,-0.06463564932346344,0.1280340701341629,1.0084047317504883,0.32730841636657715,2.0950591564178467,-0.4318995475769043,2.0209310054779053,4.025290012359619,0.3175535500049591,0.0188861433416605,-0.040521375834941864,1.2390613555908203
271,22908,22906,-0.0030720236245542765,0.10778246819972992,1.0175167322158813,0.1443842649459839,1.756077527999878,-0.8280186653137207,2.0209429264068604,4.025741100311279,0.3152124583721161,0.08164527267217636,-0.018242010846734047,1.2534115314483643
272,22918,22916,-0.010308872908353806,0.06711398810148239,1.040661334991455,0.9226430654525757,1.47218918800354,-0.8794506192207336,2.0223166942596436,4.025108337402344,0.31497105956077576,-0.014201478101313114,0.006172363646328449,1.2419918775558472
273,22928,22926,-0.02151046320796013,-0.027089843526482582,1.0026421546936035,2.761382579803467,1.6837033033370972,-0.7803871631622314,2.0219812393188477,4.024905681610107,0.31485164165496826,0.048769645392894745,0.045547965914011,1.2249938249588013
274,22938,22936,-0.04819825664162636,-0.045322954654693604,1.0071656703948975,2.132547378540039,2.2076659202575684,-0.7047496438026428,2.0231189727783203,4.025224208831787,0.31612852215766907,0.016051601618528366,0.019646113738417625,1.202575922012329
275,22948,22946,-0.012273058295249939,-0.027169514447450638,1.0021986961364746,2.529270887374878,2.5052435398101807,-0.9299962520599365,2.0250816345214844,4.025142669677734,0.3160027861595154,-0.1586705446243286,0.08537225425243378,1.1985710859298706
276,22958,22956,-0.0006649279966950417,-0.01210730243474245,1.0302536487579346,3.0279338359832764,0.9029704332351685,-0.5669496059417725,2.0259056091308594,4.024473667144775,0.3159365952014923,-0.23663440346717834,0.14269760251045227,1.1617505550384521
277,22968,22966,0.026490382850170135,-0.0536738857626915,0.9673774838447571,2.021385908126831,1.6169430017471313,-0.3187655806541443,2.0265040397644043,4.023192882537842,0.31594640016555786,-0.16043855249881744,0.19316144287586212,1.1276509761810303
278,22978,22976,-0.029022742062807083,0.009923567064106464,1.045656681060791,3.1837353706359863,-1.1116158962249756,-0.7763852477073669,2.027308702468872,4.023530006408691,0.3163461983203888,-0.1489705741405487,0.16976787149906158,1.11631178855896
279,22988,22986,0.00223148544318974,-0.01845194585621357,0.9902025461196899,1.8413485288619995,-2.0564067363739014,-0.7917789816856384,2.0283701419830322,4.023538589477539,0.3164054751396179,-0.1094844788312912,0.2153545469045639,1.10097074508667
280,22998,22996,-0.0028779858257621527,-0.025495922192931175,1.0071566104888916,1.7145448923110962,-3.4283227920532227,-0.6571447253227234,2.029217481613159,4.023273944854736,0.31643518805503845,-0.1987634301185608,0.1769171506166458,1.0802242755889893
281,23008,23006,0.01906283013522625,-0.02631235308945179,0.9432313442230225,0.2575953006744385,-2.035655975341797,-0.3297962546348572,2.0307154655456543,4.0242509841918945,0.315506249666214,-0.12961335480213165,0.2045697271823883,1.0938385725021362
282,23018,23016,0.02219473011791706,0.0033607326913625,0.9804368615150452,-0.09773857891559601,-2.2719247341156006,-0.4725090265274048,2.0313000679016113,4.024914264678955,0.3154369592666626,-0.06340141594409943,0.13893240690231323,1.065964937210083
283,23028,23026,0.05126641318202019,-0.09989987313747406,1.0017333030700684,-0.4145076870918274,-1.7605957984924316,-0.2784755527973175,2.0317394733428955,4.024871826171875,0.3153357207775116,-0.011603652499616146,0.1500147134065628,1.0888001918792725
284,23038,23036,0.08778771013021469,-0.32052189111709595,1.0847502946853638,0.9505842924118042,-2.439267635345459,-0.3385222852230072,2.032181739807129,4.024406433105469,0.3140670657157898,0.05567655712366104,0.17081300914287567,1.075728178024292
285,23048,23046,0.06163402646780014,-0.3649471700191498,1.0984220504760742,2.6302859783172607,0.057199764996767044,-0.7296619415283203,2.032188653945923,4.024310111999512,0.31404268741607666,0.11167865246534348,0.217143252491951,1.0826371908187866
286,23058,23056,0.0271866824477911,-0.1067366749048233,1.0300544500350952,2.139986276626587,2.3877596855163574,-0.760391116142273,2.033154249191284,4.024326801300049,0.31403133273124695,0.09486398845911026,0.26830703020095825,1.068210482597351
287,23068,23066,0.0012127422960475087,-0.004155472852289677,0.9759711027145386,2.6062967777252197,4.562735080718994,-1.0534963607788086,2.0342984199523926,4.023859024047852,0.31471556425094604,0.04006163403391838,0.32148033380508423,1.0333020687103271
288,23078,23076,0.09129969030618668,-0.0015853667864575982,0.8290316462516785,1.6949472427368164,7.194182872772217,-0.7993133664131165,2.0345206260681152,4.0239033699035645,0.3147311210632324,-0.005257780198007822,0.3583250939846039,1.0556131601333618
289,23088,23086,0.08982450515031815,-0.010403206571936607,0.8906859159469604,-1.1524577140808105,5.7345194816589355,-0.6213520765304565,2.035881280899048,4.024959087371826,0.3145901560783386,-0.18313106894493103,0.2850629985332489,1.0642755031585693
290,23098,23096,0.03398168459534645,-0.03574751690030098,0.9712973833084106,-1.5427213907241821,0.4319889545440674,-0.5673112273216248,2.037050485610962,4.02605676651001,0.31432831287384033,-0.28131967782974243,0.1930772364139557,1.071463704109192
291,23108,23106,0.005067318677902222,-0.13757556676864624,1.041398525238037,-1.8598823547363281,-1.764088749885559,-0.1771029680967331,2.0364115238189697,4.026387691497803,0.313753604888916,-0.08924350142478943,0.17085401713848114,1.0790960788726807
292,23118,23116,0.017239531502127647,-0.24832870066165924,1.0333082675933838,-2.2233033180236816,-4.214336395263672,-0.6400566697120667,2.036114454269409,4.026061058044434,0.3137381076812744,-0.1748560518026352,0.2331746220588684,1.0267765522003174
293,23128,23126,-0.033251289278268814,-0.1262519210577011,1.0803897380828857,2.01476788520813,-6.70764684677124,-0.5997849702835083,2.0376217365264893,4.024219512939453,0.3135133981704712,-0.053888529539108276,0.25212231278419495,1.0083262920379639
294,23138,23136,0.01343271229416132,-0.08620383590459824,0.9795008897781372,2.651803970336914,-6.6363444328308105,-0.304416686296463,2.038604259490967,4.02354097366333,0.3145747184753418,-0.012245078571140766,0.2938973903656006,0.9825514554977417
295,23148,23146,0.07535949349403381,-0.011641998775303364,0.9386138916015625,2.273420810699463,-1.4150820970535278,-0.3801090121269226,2.0389034748077393,4.0233283042907715,0.31453707814216614,0.040037937462329865,0.33829644322395325,0.9787039160728455
296,23158,23156,0.09866967797279358,0.023029504343867302,0.9715878963470459,-0.3901919722557068,0.8837836384773254,-0.3849746286869049,2.040024518966675,4.024106502532959,0.3144782781600952,0.044430043548345566,0.27207058668136597,0.9672417044639587
297,23168,23166,0.11113005131483078,-0.10254855453968048,0.9794329404830933,-2.702967405319214,1.7793000936508179,-0.541275143623352,2.0409867763519287,4.02396821975708,0.31287238001823425,-0.042454224079847336,0.24831007421016693,0.9590955376625061
298,23178,23176,0.06456194072961807,-0.1571466624736786,1.0092233419418335,-2.9618570804595947,0.9397907257080078,-0.3287380635738373,2.041975498199463,4.02390193939209,0.31264373660087585,-0.048058029264211655,0.20351111888885498,0.9428399801254272
299,23188,23186,0.01487934123724699,-0.033534225076436996,1.0135964155197144,-3.859771251678467,2.008850574493408,-0.7021869421005249,2.0427086353302,4.023522853851318,0.31238794326782227,-0.05087444931268692,0.15862658619880676,0.9478179216384888
300,23198,23196,-0.01828758232295513,-0.003318029223009944,1.0033246278762817,-2.2546074390411377,0.7888280153274536,-0.20519769191741943,2.043616771697998,4.023962497711182,0.3120906352996826,-0.12482850253582001,0.2002294808626175,0.9534493088722229
301,23208,23206,0.022681014612317085,0.005690095946192741,0.9742317199707031,-1.2895114421844482,0.9243226647377014,-0.6594187021255493,2.0436863899230957,4.023244857788086,0.3126821517944336,-0.040597084909677505,0.17718560993671417,0.9202634692192078
302,23218,23216,0.05596744269132614,0.10144878923892975,1.0158616304397583,2.5815582275390625,-1.5844038724899292,-0.5711913704872131,2.044593334197998,4.022861003875732,0.31250256299972534,-0.013756350614130497,0.2042938619852066,0.8984518051147461
303,23228,23226,0.04862804710865021,0.07216774672269821,1.038309097290039,1.6041178703308105,-1.5469441413879395,-0.528461217880249,2.0461127758026123,4.022768497467041,0.31226205825805664,-0.051852498203516006,0.23937572538852692,0.8921802043914795
304,23238,23236,-0.004918620456010103,0.04181769862771034,1.0478585958480835,2.2955143451690674,-2.319385528564453,-1.1753298044204712,2.047339916229248,4.0225324630737305,0.3134193420410156,0.002936777425929904,0.2715728282928467,0.8692495226860046
305,23248,23246,-0.043794892728328705,0.08064813166856766,1.022071361541748,-1.0803800821304321,-0.9824608564376831,-1.5577675104141235,2.047968864440918,4.022397041320801,0.3133634626865387,0.04607464000582695,0.27127864956855774,0.8526419401168823
306,23258,23256,-0.09001543372869492,0.18915539979934692,0.9824761152267456,-2.9734456539154053,-0.012517176568508148,-1.026973843574524,2.0484349727630615,4.022317886352539,0.31334158778190613,-0.16554872691631317,0.15164753794670105,0.8474521636962891
307,23268,23266,-0.06997261941432953,0.08368201553821564,1.0402575731277466,-4.291894912719727,1.1826471090316772,-1.0283730030059814,2.051208972930908,4.023565769195557,0.3137795031070709,-0.05594168230891228,0.02556718699634075,0.8343890905380249
308,23278,23276,0.008658377453684807,-0.015265884809195995,1.0222134590148926,-4.110978603363037,1.1895575523376465,-0.5460847616195679,2.050879716873169,4.024237632751465,0.3138802647590637,0.031449928879737854,-0.03272049129009247,0.836676299571991
309,23288,23286,0.001092693768441677,0.06701700389385223,1.093238353729248,0.3926178812980652,-0.8429335951805115,-0.6664024591445923,2.0511248111724854,4.024573802947998,0.31399106979370117,-0.10485360771417618,0.048342056572437286,0.8279078602790833
310,23298,23296,-0.02369266003370285,0.06681185960769653,1.0592658519744873,3.112478733062744,-0.06044929847121239,-1.0407359600067139,2.0528621673583984,4.023803234100342,0.3140091896057129,0.004183107055723667,0.09250326454639435,0.8216866850852966
311,23308,23306,-0.0021101359743624926,-0.0022991287987679243,1.0034259557724,4.819829940795898,-0.5356813669204712,-1.2022444009780884,2.0522513389587402,4.023078918457031,0.3145872950553894,0.027074608951807022,0.1737941950559616,0.8062310218811035
312,23318,23316,-0.033744875341653824,0.03151852265000343,0.9628612399101257,5.224057197570801,-1.5598286390304565,-1.104739785194397,2.052943229675293,4.022934436798096,0.3147997558116913,-0.017160136252641678,0.18179556727409363,0.7881630659103394
313,23328,23326,-0.06449873745441437,0.07196096330881119,0.9592337012290955,3.1022746562957764,-1.8020774126052856,-0.9307639598846436,2.0546977519989014,4.023316383361816,0.3149871230125427,0.033041439950466156,0.25445133447647095,0.7826915979385376
314,23338,23336,-0.04237412288784981,0.044607147574424744,0.988555371761322,1.3602463006973267,0.5608162879943848,-1.1448315382003784,2.055231809616089,4.0231170654296875,0.3154919743537903,-0.02328382059931755,0.2112402319908142,0.7417886257171631
315,23348,23346,0.04213783144950867,-0.08142346143722534,0.9654386043548584,-2.6390044689178467,-1.1833750009536743,-0.7143404483795166,2.056748867034912,4.023199081420898,0.3156433701515198,-0.05745910480618477,0.19547973573207855,0.742504358291626
316,23358,23356,-0.0028901640325784683,-0.06863225251436234,1.0618289709091187,-2.610283136367798,-0.9503688812255859,-1.09886634349823,2.058051824569702,4.023529052734375,0.3157629072666168,-0.08715555816888809,0.15731734037399292,0.7413948774337769
317,23368,23366,-0.008244085125625134,-0.0017336923629045486,1.0200831890106201,-2.828399419784546,3.0261120796203613,-1.3188625574111938,2.0594091415405273,4.023791313171387,0.3149052858352661,-0.09921836107969284,0.12064822763204575,0.7282483577728271
318,23378,23376,0.03430016338825226,-0.011125645600259304,0.9481521844863892,-1.2202650308609009,0.0889572873711586,-0.7436532378196716,2.060432195663452,4.02345609664917,0.31502702832221985,-0.08349165320396423,0.17666776478290558,0.6825302839279175
319,23388,23386,-0.03504057973623276,0.05203652009367943,0.9859063029289246,0.4083554744720459,-2.137373685836792,-0.8321887850761414,2.0609357357025146,4.0222368240356445,0.3151651918888092,0.053972143679857254,0.0999392494559288,0.651540219783783
320,23398,23396,-0.01531969103962183,0.007379611954092979,0.971516489982605,0.8776987791061401,-2.3429486751556396,-0.18293797969818115,2.0608041286468506,4.023364543914795,0.3159221112728119,0.028561735525727272,0.19602614641189575,0.6773980855941772
321,23408,23406,0.006790132727473974,-0.025855079293251038,0.9704156517982483,1.9877614974975586,-2.2090439796447754,-0.36729079484939575,2.061603546142578,4.022829055786133,0.31601816415786743,0.09302348643541336,0.22762218117713928,0.6884104013442993
322,23418,23416,0.0024790302850306034,-0.12201718986034393,1.0145193338394165,1.4019380807876587,-2.090895414352417,-0.7441244125366211,2.0617029666900635,4.022922039031982,0.3161916732788086,0.16251422464847565,0.17287780344486237,0.6641140580177307
323,23428,23426,0.019132200628519058,-0.1025206595659256,0.9890745282173157,0.01886756904423237,2.200737714767456,-1.3049684762954712,2.06213116645813,4.023331642150879,0.3162698745727539,0.08059924840927124,0.18737812340259552,0.6818441152572632
324,23438,23436,0.025363335385918617,-0.027729984372854233,0.9762344360351562,-0.504605233669281,3.32615065574646,-1.3263797760009766,2.063741445541382,4.023188591003418,0.31514570116996765,0.13775911927223206,0.18701033294200897,0.664279580116272
325,23448,23446,-0.03601221740245819,-0.054428935050964355,1.0496609210968018,-0.9543364644050598,4.276597499847412,-1.3505080938339233,2.0636260509490967,4.023106575012207,0.3152681291103363,0.19280093908309937,0.1801571547985077,0.6549162268638611
326,23458,23456,-0.0806998759508133,-0.03894584998488426,1.0563725233078003,-1.0683419704437256,3.559028148651123,-0.610650897026062,2.0659589767456055,4.022621154785156,0.3152047097682953,0.004326303023844957,0.17344920337200165,0.6169379949569702
327,23468,23466,-0.02725067175924778,-0.009958752430975437,1.0112552642822266,-1.207553744316101,6.022373676300049,-0.7222088575363159,2.0664422512054443,4.022771835327148,0.31587475538253784,-0.0042491029016673565,0.15399077534675598,0.551917314529419
328,23478,23476,0.04652693122625351,-0.03641825169324875,0.9303267002105713,-1.8750221729278564,6.57772159576416,0.5274662375450134,2.065490961074829,4.021032333374023,0.31591200828552246,-0.11249849200248718,0.12141410261392593,0.5495104193687439
329,23488,23486,0.042443349957466125,-0.13064445555210114,0.9467447400093079,-1.6087857484817505,2.2793331146240234,0.6488224267959595,2.0662426948547363,4.020721912384033,0.31598448753356934,-0.07750829309225082,0.09529203921556473,0.523049533367157
330,23498,23496,-0.03926313295960426,-0.0763322114944458,1.0305652618408203,-0.015077143907546997,0.29021909832954407,0.8543930053710938,2.066530466079712,4.019549369812012,0.31739720702171326,-0.08654841780662537,0.16777145862579346,0.5205492973327637
331,23508,23506,0.011410177685320377,-0.007424656767398119,0.9622142314910889,0.8487911820411682,-0.9923915266990662,1.0149972438812256,2.0665876865386963,4.018573760986328,0.31757307052612305,0.004287303891032934,0.17432500422000885,0.4910454750061035
332,23518,23516,0.023913878947496414,-0.12841010093688965,0.940823495388031,1.4683648347854614,-0.632064938545227,1.3269059658050537,2.068483591079712,4.0185346603393555,0.31761783361434937,-0.12786538898944855,0.19202454388141632,0.5065357685089111
333,23528,23526,-0.001432343153283,-0.030940184369683266,1.0025159120559692,0.8705477714538574,0.01903291791677475,0.924100399017334,2.0697824954986572,4.018215179443359,0.3177235722541809,-0.10638472437858582,0.20178714394569397,0.4902338683605194
334,23538,23536,0.013067609630525112,0.06844309717416763,0.9836678504943848,0.20643621683120728,3.3042047023773193,0.43503832817077637,2.0704057216644287,4.017922401428223,0.31823673844337463,-0.04954596236348152,0.20500057935714722,0.48025596141815186
335,23548,23546,-0.01522793434560299,0.008006266318261623,0.9542068839073181,-1.817938208580017,-0.910247266292572,0.4149843454360962,2.071342945098877,4.0180983543396,0.31834495067596436,-0.10192319750785828,0.1794745922088623,0.502800464630127
336,23558,23556,-0.020775698125362396,-0.060212988406419754,0.9805968403816223,-2.867199420928955,1.0309005975723267,0.44192564487457275,2.0723116397857666,4.018197059631348,0.3184182047843933,-0.09790705889463425,0.1353110820055008,0.5022802948951721
337,23568,23566,-0.004120661411434412,-0.007694643456488848,1.0019875764846802,-3.2690560817718506,0.8414254188537598,0.1429017037153244,2.072615623474121,4.018311500549316,0.31870466470718384,-0.024885118007659912,0.07652368396520615,0.5005255341529846
338,23578,23576,0.026721980422735214,-0.059502311050891876,0.9784536361694336,-2.611032009124756,2.278031349182129,0.00035734576522372663,2.0753934383392334,4.018576145172119,0.3186558783054352,-0.21288321912288666,0.022728869691491127,0.4932798743247986
339,23588,23586,0.01415308378636837,-0.053643032908439636,0.9939020872116089,-2.054880380630493,0.8656072616577148,0.7049422860145569,2.075531005859375,4.017406940460205,0.31872835755348206,-0.13502734899520874,0.06065027043223381,0.46800369024276733
340,23598,23596,0.006738016847521067,0.0037545571103692055,0.9952090978622437,-1.2105412483215332,0.29767367243766785,1.248437762260437,2.075043201446533,4.016900062561035,0.31693384051322937,-0.05284813418984413,0.031237492337822914,0.4710516929626465
341,23608,23606,-0.005785899702459574,-0.0659673810005188,0.99693363904953,0.46570825576782227,-0.7284865379333496,0.8858240842819214,2.07561993598938,4.01654052734375,0.3168022930622101,-0.03918139636516571,0.02199665643274784,0.4738525152206421
342,23618,23616,0.004096574150025845,-0.03808335214853287,0.972460925579071,0.7940976023674011,-0.13674375414848328,1.1773830652236938,2.0759291648864746,4.016658306121826,0.31665509939193726,-0.17830593883991241,0.10888803005218506,0.47160324454307556
343,23628,23626,-0.04374627396464348,0.0016299354610964656,1.0069289207458496,0.7985024452209473,0.3753752112388611,0.5263974666595459,2.078336000442505,4.015594482421875,0.31643450260162354,-0.16278982162475586,0.11737244576215744,0.4608360528945923
344,23638,23636,-0.024530353024601936,0.005939383991062641,1.0110597610473633,-1.2885832786560059,-0.2697490453720093,0.5900948643684387,2.0790762901306152,4.015645980834961,0.3161303699016571,-0.13727650046348572,0.0975739061832428,0.468425452709198
345,23648,23646,-0.06307405233383179,0.025460803881287575,0.9751838445663452,-2.126617670059204,-1.2211238145828247,0.5185725688934326,2.080679178237915,4.01568603515625,0.31592079997062683,-0.17800845205783844,0.06179095804691315,0.485571026802063
346,23658,23656,-0.023381106555461884,0.010462088510394096,0.9810866117477417,-3.0715692043304443,-0.5451874136924744,0.7272383570671082,2.0817394256591797,4.015297889709473,0.31573498249053955,-0.14546184241771698,0.0826413556933403,0.4601627290248871
347,23668,23666,-0.061079610139131546,0.13129879534244537,1.0164026021957397,-3.995452880859375,-1.1131535768508911,1.3822027444839478,2.082169771194458,4.014639854431152,0.31365224719047546,-0.017268739640712738,0.006015163380652666,0.4722035527229309
348,23678,23676,-0.031150059774518013,0.1131359413266182,0.9997706413269043,-4.326959133148193,-0.8111687898635864,1.405828833580017,2.082031726837158,4.0153608322143555,0.3134201467037201,0.007695384789258242,0.0033380736131221056,0.5116540789604187
349,23688,23686,0.0016111800214275718,0.00984990131109953,1.0006884336471558,-3.9408578872680664,0.31609711050987244,0.3739956319332123,2.082449436187744,4.015239238739014,0.3131338059902191,-0.06473831087350845,-0.07624419778585434,0.5337280631065369
350,23698,23696,-0.018095768988132477,0.041488729417324066,1.026186466217041,-2.746851682662964,2.07332706451416,0.42726191878318787,2.084383487701416,4.015398979187012,0.3158509433269501,-0.0764869675040245,-0.1370820254087448,0.5113949179649353
351,23708,23706,-0.03758130595088005,0.028366291895508766,1.0037034749984741,-0.91611248254776,2.9416825771331787,0.4152951240539551,2.085237979888916,4.015204429626465,0.3157123625278473,-0.033497605472803116,-0.1708875149488449,0.4823881685733795
352,23718,23716,-0.028024161234498024,0.0007532216841354966,1.0061954259872437,-0.33755946159362793,3.462651491165161,0.08651765435934067,2.085458993911743,4.0148210525512695,0.3156460225582123,-0.1283247470855713,-0.023493224754929543,0.49152621626853943
353,23728,23726,-0.025586893782019615,0.0004461571807041764,0.9945328235626221,0.3639138340950012,2.3775694370269775,0.47832751274108887,2.087207078933716,4.013795375823975,0.3137008249759674,-0.15691342949867249,-0.04691114276647568,0.5209589004516602
354,23738,23736,0.04298456013202667,-0.08159278333187103,1.0298614501953125,1.1727678775787354,1.3982466459274292,0.19378042221069336,2.088160991668701,4.013852596282959,0.31347543001174927,-0.17392447590827942,-0.13129276037216187,0.5257189869880676
355,23748,23746,0.03074805811047554,-0.030900757759809494,0.9949913620948792,0.1822502464056015,0.6632193326950073,0.10540156066417694,2.0891311168670654,4.0148420333862305,0.3132878243923187,-0.18898439407348633,-0.12212440371513367,0.5450468063354492
356,23758,23756,-0.00839255005121231,0.03641008213162422,1.0290127992630005,-0.6219742298126221,-2.264476776123047,-0.020136551931500435,2.0899405479431152,4.014909744262695,0.31308043003082275,-0.1539267599582672,-0.13350379467010498,0.5024492144584656
357,23768,23766,-0.010384887456893921,0.08420297503471375,1.0446064472198486,-1.0194778442382812,-0.828109860420227,0.31849998235702515,2.0902903079986572,4.01481819152832,0.31044724583625793,-0.19252924621105194,-0.14857570827007294,0.543618381023407
358,23778,23776,-0.011494392529129982,0.003970793914049864,0.9773123860359192,0.38872724771499634,-3.361600875854492,-0.09269274771213531,2.0914759635925293,4.0146403312683105,0.3100757300853729,-0.0654803067445755,-0.08440740406513214,0.5556416511535645
359,23788,23786,-0.05996909737586975,0.018307844176888466,0.9950120449066162,0.748413622379303,-2.1074085235595703,-0.24616467952728271,2.0913584232330322,4.014187812805176,0.3098973035812378,-0.16478174924850464,-0.1656067967414856,0.551210880279541
360,23798,23796,-0.04011613130569458,0.011935846880078316,0.9921779036521912,0.3284856379032135,-1.2850847244262695,-0.484003484249115,2.0931034088134766,4.015191078186035,0.31002214550971985,-0.03410680592060089,-0.010731286369264126,0.5756848454475403
361,23808,23806,-0.07141245156526566,0.05197466164827347,1.0186233520507812,-0.41256183385849,0.4547857344150543,-0.035853516310453415,2.0931878089904785,4.013703346252441,0.30984771251678467,-0.01588326320052147,-0.10665486752986908,0.5549226999282837
362,23818,23816,0.007623075507581234,-0.04157574847340584,0.9909382462501526,-1.7432595491409302,1.2870945930480957,0.26182565093040466,2.093867301940918,4.014960765838623,0.3096292316913605,0.0583437979221344,-0.1321973353624344,0.6011592745780945
363,23828,23826,0.0002234346029581502,-0.05906522646546364,1.0577006340026855,-1.8167649507522583,2.050130844116211,-0.39217644929885864,2.0939037799835205,4.014571189880371,0.3082788586616516,-0.03714369609951973,-0.24090155959129333,0.5736385583877563
364,23838,23836,-0.01937360130250454,-0.06556840986013412,1.0682482719421387,-1.108696699142456,3.2188467979431152,-0.5019279718399048,2.095440149307251,4.015535831451416,0.3079415261745453,-0.06545659899711609,-0.26420387625694275,0.5796588659286499
365,23848,23846,0.022063402459025383,-0.07845555245876312,0.9824315905570984,-1.4482852220535278,6.220980167388916,-0.968973696231842,2.09639310836792,4.0150532722473145,0.3076757788658142,-0.12642017006874084,-0.28527456521987915,0.5365612506866455
366,23858,23856,-0.010262083262205124,-0.00978470966219902,1.0200804471969604,2.1703054904937744,4.67929220199585,-0.4871504306793213,2.097468137741089,4.014997959136963,0.3074304163455963,-0.2016690969467163,-0.27794691920280457,0.5273126363754272
367,23868,23866,0.041435498744249344,-0.057313330471515656,0.9748892188072205,4.519692420959473,2.5323994159698486,-0.46485811471939087,2.0988993644714355,4.015502452850342,0.3084680736064911,-0.2554614841938019,-0.23167474567890167,0.5568094253540039
368,23878,23876,0.05398278310894966,-0.09992627799510956,0.9833336472511292,6.139792442321777,-0.8309460878372192,-0.18098464608192444,2.0997776985168457,4.014972686767578,0.30832770466804504,-0.19351531565189362,-0.15281254053115845,0.5342317819595337
369,23888,23886,0.08224297314882278,-0.17225365340709686,1.0101733207702637,4.752357482910156,-3.665134906768799,-0.4770723283290863,2.0999419689178467,4.014626502990723,0.3082743287086487,-0.3146194815635681,-0.0678633525967598,0.5382592678070068
370,23898,23896,0.10605286061763763,-0.2933535873889923,1.093772530555725,4.7218337059021,-5.621736526489258,0.28573334217071533,2.100818634033203,4.012383937835693,0.3082926273345947,-0.22796200215816498,0.009267246350646019,0.44257113337516785
371,23908,23906,0.09360960870981216,-0.23783597350120544,1.031889796257019,2.162203311920166,-4.95620059967041,0.0678991824388504,2.100994110107422,4.011805534362793,0.30821865797042847,-0.27689215540885925,-0.0882883295416832,0.4094183146953583
372,23918,23916,0.02595927193760872,-0.08468251675367355,1.0178414583206177,-1.2203782796859741,-2.7087175846099854,-0.36068016290664673,2.102665662765503,4.012725353240967,0.3081255257129669,-0.17928853631019592,-0.0593048557639122,0.409241259098053
373,23928,23926,0.053932856768369675,-0.03552115708589554,0.9210273027420044,-2.840705156326294,-0.12249422818422318,-0.8459159135818481,2.10317325592041,4.012213230133057,0.3081103265285492,-0.050245679914951324,-0.0760335773229599,0.37124699354171753
374,23938,23936,0.026423579081892967,-0.018437957391142845,0.9507423639297485,-3.1170380115509033,-0.9370154142379761,-0.408062219619751,2.103065013885498,4.012220859527588,0.30816465616226196,-0.17790690064430237,-0.11491728574037552,0.3593636751174927
375,23948,23946,0.05119979754090309,-0.04628920927643776,0.9807031154632568,-1.8802200555801392,1.72246515750885,-0.5954946279525757,2.1047158241271973,4.012850761413574,0.3079560399055481,-0.1550692468881607,-0.14718347787857056,0.3822212517261505
376,23958,23956,0.04651616886258125,-0.061991989612579346,1.0102442502975464,1.089217185974121,0.5402973890304565,0.02991909347474575,2.105433225631714,4.013218402862549,0.30955544114112854,-0.07062815874814987,-0.07283781468868256,0.371473491191864
377,23968,23966,0.019283419474959373,-0.06396272033452988,1.0241302251815796,3.7378737926483154,-1.6529157161712646,0.03631706163287163,2.105372667312622,4.012044429779053,0.3096309304237366,-0.12359769642353058,-0.04650025814771652,0.39876314997673035
378,23978,23976,0.012912084348499775,-0.09969732165336609,1.0358248949050903,3.8435051441192627,-0.3375600576400757,-0.4176439642906189,2.1068806648254395,4.0117998123168945,0.30961161851882935,-0.015073409304022789,0.006562748458236456,0.3645230531692505
379,23988,23986,-0.007609791122376919,-0.013803415931761265,1.013752818107605,3.7738943099975586,0.8292766809463501,-0.05233742296695709,2.1066861152648926,4.011898040771484,0.3097441792488098,-0.005841448437422514,0.06554950028657913,0.38294464349746704
380,23998,23996,-0.015165260061621666,-0.03418705612421036,1.0203933715820312,2.7875759601593018,1.4035981893539429,-1.0321162939071655,2.1060402393341064,4.010341644287109,0.3038316071033478,-0.15788768231868744,0.03929935395717621,0.32845640182495117
381,24008,24006,0.012142522260546684,-0.016335176303982735,1.002514362335205,-0.41468513011932373,3.7133047580718994,-0.9040208458900452,2.1080002784729004,4.0108537673950195,0.30347925424575806,-0.16037091612815857,0.06860332190990448,0.3209892511367798
382,24018,24016,0.0012478157877922058,0.027380231767892838,1.0173566341400146,-0.9601957201957703,2.225337028503418,-0.8097292184829712,2.108426809310913,4.01193380355835,0.30318373441696167,-0.17834007740020752,0.06739482283592224,0.3763471841812134
383,24028,24026,0.048234421759843826,-0.029663169756531715,0.9925258159637451,-3.856065273284912,3.83388614654541,-1.7754284143447876,2.1087045669555664,4.011353492736816,0.30196142196655273,-0.3618331551551819,-0.04478972405195236,0.33799418807029724
384,24038,24036,0.004125016741454601,-0.05530691519379616,1.0483254194259644,-2.907430410385132,-0.6475639939308167,-1.137681245803833,2.1113438606262207,4.01228141784668,0.30151626467704773,-0.2753528356552124,-0.08334141969680786,0.3110981583595276
385,24048,24046,-0.03755119815468788,-0.07403161376714706,1.0641803741455078,-1.2256284952163696,-4.947350025177002,-1.005944013595581,2.11154842376709,4.012197494506836,0.3013533055782318,-0.13990555703639984,-0.1134071871638298,0.2759924530982971
386,24058,24056,-0.029714880511164665,0.024534715339541435,1.0747166872024536,1.4640041589736938,-5.4484734535217285,-0.682503342628479,2.1105849742889404,4.012261867523193,0.2969065308570862,-0.2675403952598572,-0.10678036510944366,0.2763192355632782
387,24068,24066,-0.019988054409623146,0.0962773784995079,0.9901344180107117,4.1321258544921875,-5.678849697113037,-0.3987307846546173,2.1132023334503174,4.012123107910156,0.2963264286518097,-0.06013454869389534,-0.05857459828257561,0.2631646990776062
388,24078,24076,-0.05800588056445122,0.2284104824066162,1.0208253860473633,4.859984397888184,-2.5367379188537598,-0.43950212001800537,2.1127431392669678,4.011950969696045,0.29606157541275024,-0.11764214187860489,0.014865267090499401,0.27500104904174805
389,24088,24086,0.002215069718658924,0.17326277494430542,0.9489066004753113,4.737975120544434,0.5407939553260803,-0.49868565797805786,2.1142003536224365,4.011525630950928,0.2955906093120575,-0.05936618149280548,0.09344896674156189,0.2816135585308075
390,24098,24096,-0.007928082719445229,0.03963514417409897,1.031695008277893,3.5560832023620605,2.641782760620117,-0.4022730588912964,2.1142308712005615,4.01143217086792,0.2966596484184265,0.02700476534664631,0.0852663442492485,0.2903039753437042
391,24108,24106,-0.043087419122457504,-0.06866338849067688,1.085097312927246,1.8874576091766357,1.4684780836105347,-0.7453674674034119,2.1141650676727295,4.012576103210449,0.2964063286781311,-0.05901141092181206,0.13874556124210358,0.3265745937824249
392,24118,24116,-0.051789410412311554,-0.16539566218852997,1.0766842365264893,-0.4752005934715271,1.318129301071167,-0.7291309833526611,2.1157314777374268,4.011652946472168,0.2960476875305176,-0.05632057785987854,0.15754245221614838,0.27805864810943604
393,24128,24126,0.027499277144670486,-0.03914487361907959,1.0131593942642212,-2.7232656478881836,3.72465443611145,-1.1399412155151367,2.115466833114624,4.011229515075684,0.2962111532688141,-0.06984177976846695,0.14126867055892944,0.22000838816165924
394,24138,24136,0.1365491896867752,0.012541918084025383,0.9321755170822144,-3.534385919570923,2.2817885875701904,-0.8380507230758667,2.116637706756592,4.01117467880249,0.2960495948791504,-0.17820098996162415,0.09684046357870102,0.2338275909423828
395,24148,24146,0.10711967200040817,-0.056393638253211975,0.9813425540924072,-3.775524139404297,-0.32217344641685486,-0.7427318096160889,2.1184256076812744,4.011290550231934,0.2958082854747772,-0.1737643927335739,0.04123673960566521,0.21453624963760376
396,24158,24156,0.05797789990901947,-0.09275879710912704,1.0313420295715332,-1.321720004081726,-2.6283771991729736,-0.9890407919883728,2.1189675331115723,4.011560440063477,0.2964364290237427,-0.06604896485805511,0.07493820786476135,0.21501879394054413
397,24168,24166,-0.02076583541929722,-0.11017368733882904,1.02016019821167,1.080025553703308,-4.799256801605225,-1.1332749128341675,2.119035243988037,4.010889053344727,0.2963866591453552,-0.2991786599159241,-0.01229383610188961,0.19186881184577942
398,24178,24176,-0.07034081965684891,0.030534205958247185,1.0106455087661743,2.4077444076538086,-5.00965690612793,-0.3777388632297516,2.121267318725586,4.010219097137451,0.2960031032562256,-0.09913574904203415,0.017139161005616188,0.08208028972148895
399,24188,24186,-0.03129314258694649,0.03604435548186302,1.0154391527175903,2.1185081005096436,-3.88484263420105,0.7731892466545105,2.1206612586975098,4.010071754455566,0.29609766602516174,0.002967259380966425,0.059596192091703415,0.12674562633037567
400,24198,24196,0.017325809225440025,0.002408331260085106,1.045091986656189,2.0436758995056152,-2.607607364654541,0.5975629091262817,2.120285749435425,4.0085577964782715,0.2973706126213074,-0.06603696942329407,0.09635540843009949,0.06087170168757439
401,24208,24206,0.022626154124736786,0.07878212630748749,1.0598677396774292,1.7482548952102661,-0.0567098893225193,0.8732669353485107,2.1219537258148193,4.009388446807861,0.2973344624042511,-0.0017874157056212425,0.12959171831607819,0.09310123324394226
402,24218,24216,-0.03889394551515579,0.002094701398164034,1.0487709045410156,1.1227089166641235,-0.2024688720703125,0.33296698331832886,2.121603488922119,4.007068157196045,0.2973414957523346,0.03436050936579704,0.15311896800994873,0.019011175259947777
403,24228,24226,-0.040109701454639435,-0.031173065304756165,1.0292394161224365,-0.030253032222390175,1.6397250890731812,0.995579719543457,2.1219253540039062,4.006153106689453,0.29728689789772034,-0.09883058071136475,0.08612220734357834,-0.020736386999487877
404,24238,24236,0.052940595895051956,-0.044553473591804504,1.0176624059677124,-1.7926946878433228,2.210202217102051,1.546798586845398,2.123607635498047,4.007064342498779,0.29726922512054443,-0.007705864496529102,0.08057835698127747,0.010106461122632027
405,24248,24246,0.054254911839962006,-0.011846036650240421,1.0339653491973877,-1.6671109199523926,0.5070310235023499,0.4912298023700714,2.1236536502838135,4.006856441497803,0.29754072427749634,0.00228226650506258,0.06079942733049393,0.0060256291180849075
406,24258,24256,0.03612266480922699,-0.09701201319694519,1.0203086137771606,-1.3715324401855469,-2.158884286880493,1.3481849431991577,2.1244702339172363,4.006982803344727,0.29543086886405945,0.11722017824649811,0.11606499552726746,0.013446309603750706
407,24268,24266,0.012577368877828121,-0.035717375576496124,1.0299270153045654,0.268979549407959,-0.6227355599403381,0.4382316470146179,2.1242759227752686,4.006110668182373,0.2955768406391144,0.07926306873559952,0.10243835300207138,0.012205627746880054
408,24278,24276,0.04965308681130409,-0.0917043462395668,0.9659386277198792,1.6081963777542114,-1.6419579982757568,1.4185335636138916,2.125336170196533,4.006043910980225,0.2956164479255676,-0.03155868873000145,0.1121082678437233,0.02067379094660282
409,24288,24286,0.008517893962562084,-0.09513677656650543,1.0121543407440186,1.9406472444534302,0.6550868153572083,1.037196159362793,2.1274847984313965,4.006024360656738,0.2980482876300812,-0.06327065825462341,0.13516417145729065,0.03902987763285637
410,24298,24296,0.04818223789334297,-0.09129378199577332,0.9335957765579224,1.650142788887024,1.4411805868148804,1.170588493347168,2.128782272338867,4.004936218261719,0.29820457100868225,0.039827536791563034,0.16122621297836304,0.027113739401102066
411,24308,24306,0.03485541418194771,-0.020881986245512962,0.9778301119804382,1.17609703540802,-0.6904328465461731,1.1856133937835693,2.1287310123443604,4.005616188049316,0.29851076006889343,-0.0951680988073349,0.18299728631973267,0.0620550811290741
412,24318,24316,0.0035868750419467688,0.01069109421223402,1.0167888402938843,-0.1513877511024475,-0.4135076403617859,1.7836434841156006,2.1311395168304443,4.005817413330078,0.29857954382896423,0.03004675731062889,0.189369797706604,0.09064342826604843
413,24328,24326,-0.009069289080798626,0.009736152365803719,1.0887079238891602,-1.7007696628570557,-1.0502947568893433,0.7619725465774536,2.1310877799987793,4.005807399749756,0.29555147886276245,0.07444601505994797,0.01663242094218731,0.10944831371307373
414,24338,24336,-0.012992109172046185,-0.028344813734292984,1.0369313955307007,-0.6649228930473328,-1.9876930713653564,0.5710138082504272,2.130725145339966,4.008012771606445,0.29558509588241577,-0.034251075237989426,0.008105854503810406,0.1775493174791336
415,24348,24346,-0.03990369290113449,0.07707780599594116,0.994726300239563,0.03911397233605385,-1.204433798789978,0.5053126215934753,2.1327872276306152,4.007534027099609,0.29557594656944275,0.030519254505634308,0.24826109409332275,0.19152341783046722
416,24358,24356,-0.025797013193368912,0.0784977525472641,1.0013965368270874,0.6235480904579163,-0.15517954528331757,0.9679993391036987,2.133141279220581,4.006307125091553,0.2979539632797241,0.15630070865154266,0.24056658148765564,0.21487583220005035
417,24368,24366,0.025943242013454437,-0.012165472842752934,0.968735933303833,-0.8089812994003296,1.2277904748916626,0.5613709092140198,2.133056640625,4.005611896514893,0.2982853353023529,0.010976681485772133,0.14984020590782166,0.18068009614944458
418,24378,24376,-0.006552501581609249,0.06187021732330322,0.9874439835548401,-2.4479353427886963,3.8915655612945557,0.4625028967857361,2.135183095932007,4.006495475769043,0.29845914244651794,0.007211948279291391,0.12835358083248138,0.19579587876796722
419,24388,24386,0.01579488255083561,0.0703568160533905,0.9926319122314453,-1.9553663730621338,1.8395105600357056,0.5675658583641052,2.1365060806274414,4.006309509277344,0.3008062541484833,0.06823024898767471,0.09253714233636856,0.178128182888031
420,24398,24396,-0.010948321782052517,0.0575568825006485,1.0689533948898315,-3.7546257972717285,0.6881925463676453,1.0430116653442383,2.136579751968384,4.006543159484863,0.3012315332889557,-0.1603376567363739,0.042841192334890366,0.1482953280210495
421,24408,24406,-0.07513462752103806,0.016209997236728668,1.0965707302093506,-0.8205325603485107,-1.0912851095199585,1.1411395072937012,2.139103651046753,4.006089210510254,0.30146071314811707,-0.03768830746412277,0.08041703701019287,0.15826794505119324
422,24418,24416,-0.030456097796559334,-0.023688234388828278,1.0887454748153687,-1.0162156820297241,-1.6138254404067993,1.1007869243621826,2.1393165588378906,4.005393028259277,0.3020970821380615,-0.04836253076791763,0.055343952029943466,0.1815662533044815
423,24428,24426,0.01188145112246275,-0.014346161857247353,0.9868147373199463,0.08411888033151627,-2.3560097217559814,1.6382976770401,2.1407253742218018,4.005795001983643,0.300135999917984,-0.029036208987236023,0.048116616904735565,0.19291526079177856
424,24438,24436,-0.034091971814632416,0.10227026045322418,0.975441575050354,1.245523452758789,-3.238220453262329,1.664460301399231,2.1420767307281494,4.005702018737793,0.30062612891197205,0.051556237041950226,0.046821799129247665,0.1980152577161789
425,24448,24446,-0.05190388485789299,0.09871869534254074,0.9875639081001282,0.6339504718780518,-1.8841615915298462,2.1680614948272705,2.1425576210021973,4.005709171295166,0.301070898771286,0.13272570073604584,0.06287410110235214,0.18132711946964264
426,24458,24456,0.009367733262479305,0.05077087879180908,0.9346857070922852,0.44940075278282166,0.396256685256958,2.1219682693481445,2.1443748474121094,4.005357265472412,0.30125585198402405,0.14069764316082,-0.00874362513422966,0.23314307630062103
427,24468,24466,0.005874488968402147,0.03643488883972168,0.9869880080223083,0.910676896572113,0.5864810347557068,1.9537802934646606,2.144526243209839,4.005826473236084,0.3017197251319885,0.15904293954372406,0.006795467808842659,0.23008182644844055
428,24478,24476,-0.00520523963496089,-0.04789705574512482,1.0046278238296509,0.7406125068664551,0.9507508873939514,1.28502357006073,2.145156145095825,4.006229877471924,0.30207982659339905,0.15531642735004425,0.013903265818953514,0.27094969153404236
429,24488,24486,0.013561716303229332,-0.043131522834300995,0.9580983519554138,0.5279202461242676,0.6414408683776855,0.9371281862258911,2.1463449001312256,4.006130695343018,0.30187341570854187,0.09161866456270218,0.03058917075395584,0.3041873872280121
430,24498,24496,-0.12164803594350815,0.00938545260578394,1.0444772243499756,-0.23981517553329468,1.9065364599227905,0.8984854221343994,2.1471407413482666,4.006188869476318,0.3021320104598999,0.13068605959415436,0.04122128710150719,0.3136771023273468
431,24508,24506,-0.07623983919620514,0.02486318163573742,1.044189691543579,-1.5424689054489136,4.248734474182129,1.0525532960891724,2.147814989089966,4.006035804748535,0.3023841083049774,0.1173759400844574,0.03958341106772423,0.3223758041858673
432,24518,24516,0.043058328330516815,0.02550007589161396,0.9651806950569153,-1.9397156238555908,4.933488368988037,1.4027137756347656,2.148043394088745,4.005035877227783,0.302713006734848,0.1511376053094864,0.09395316988229752,0.29992857575416565
433,24528,24526,0.03626663237810135,0.1655118316411972,0.9768475890159607,-1.6235690116882324,3.069157123565674,1.1002360582351685,2.1497161388397217,4.005169868469238,0.30232080817222595,0.012871982529759407,0.05605420470237732,0.31240394711494446
434,24538,24536,0.008382391184568405,0.24816003441810608,0.9574562907218933,-1.7879116535186768,3.592700958251953,1.018406629562378,2.150489330291748,4.0039896965026855,0.3024877905845642,-0.01876874268054962,0.10295213013887405,0.27453166246414185
435,24548,24546,0.042406633496284485,0.16451306641101837,0.9296161532402039,-1.9014482498168945,2.1384739875793457,1.1035183668136597,2.151702642440796,4.002846717834473,0.3025142252445221,-0.1285925656557083,0.1396709531545639,0.2242714911699295
436,24558,24556,0.00019824792980216444,0.09670007973909378,1.0068879127502441,-1.4861546754837036,0.00126254849601537,0.9079462885856628,2.151620626449585,4.002320289611816,0.30252715945243835,-0.0587024912238121,0.09044256061315536,0.2554745078086853
437,24568,24566,-0.04953736439347267,0.02951817400753498,1.0109480619430542,-3.78782057762146,-3.2561562061309814,0.753646194934845,2.153167486190796,4.00246524810791,0.3025616705417633,-0.11620332300662994,0.047491300851106644,0.24807453155517578
438,24578,24576,-0.0633101612329483,0.019283490255475044,0.9744933843612671,-4.202986240386963,-2.4134230613708496,0.26401036977767944,2.1545140743255615,4.003006458282471,0.3025955855846405,-0.11076372116804123,-0.032697826623916626,0.2785691022872925
439,24588,24586,-0.007340222131460905,-0.006680515594780445,0.9696771502494812,-3.9511020183563232,-1.2352826595306396,1.0056337118148804,2.1541478633880615,4.00341272354126,0.3030954599380493,-0.04000163823366165,-0.11356788128614426,0.302017480134964
440,24598,24596,0.03830544650554657,-0.05120755732059479,0.9965723752975464,-3.2609241008758545,-1.4509778022766113,0.5657300353050232,2.1547796726226807,4.002378463745117,0.303180068731308,0.010340843349695206,-0.03108193725347519,0.29324784874916077
441,24608,24606,-0.002764469012618065,0.05247627571225166,0.9908751845359802,-1.9705688953399658,-1.3873088359832764,0.5887578725814819,2.1555941104888916,4.002406597137451,0.3032403290271759,0.05893221125006676,-0.10288822650909424,0.34043025970458984
442,24619,24616,-0.002656799042597413,0.023485282436013222,0.9730255603790283,-1.2909990549087524,1.4745714664459229,0.023529350757598877,2.156528949737549,4.003355979919434,0.3042192757129669,0.09619847685098648,-0.2258153259754181,0.36807313561439514
443,24628,24626,0.0007555769407190382,0.06734959036111832,1.0233594179153442,0.18233054876327515,3.7555782794952393,-0.1626635044813156,2.1592910289764404,4.004553318023682,0.3041628301143646,-0.14642183482646942,-0.2482212483882904,0.40732288360595703
444,24638,24636,0.0007803779444657266,0.09456994384527206,1.0274066925048828,1.5627363920211792,4.645615577697754,-0.9846811890602112,2.1593191623687744,4.004111289978027,0.30434080958366394,-0.09637171775102615,-0.16600514948368073,0.41812416911125183
445,24648,24646,0.004757225513458252,0.02492772601544857,1.0123447179794312,1.0673726797103882,3.2733423709869385,-0.6933124661445618,2.159377098083496,4.004218101501465,0.3045354187488556,-0.06722311675548553,-0.14979350566864014,0.3700960576534271
446,24658,24656,0.028360988944768906,-0.0020926878787577152,0.9852426648139954,0.5422492623329163,1.108577013015747,-1.6263635158538818,2.160216808319092,4.001679420471191,0.3030461370944977,-0.09485844522714615,0.01702154614031315,0.37858009338378906
447,24668,24666,-0.03164571523666382,0.021688733249902725,1.004800796508789,-0.7353498935699463,-1.8332889080047607,-0.501961350440979,2.1609649658203125,4.002962589263916,0.3031284809112549,-0.08687788248062134,-0.07907180488109589,0.3852766156196594
448,24678,24676,-0.041859548538923264,0.08422711491584778,1.0316966772079468,-2.876152753829956,-0.4746505320072174,-1.2518543004989624,2.162095546722412,4.0034871101379395,0.3031376600265503,-0.12626272439956665,-0.11727284640073776,0.4169692397117615
449,24688,24686,0.012468977831304073,0.029966602101922035,0.9640458822250366,-4.325169563293457,-0.06773803383111954,-1.8801971673965454,2.1642158031463623,4.003457546234131,0.3036836087703705,-0.24902479350566864,-0.1831618845462799,0.37484481930732727
450,24698,24696,-0.0016932321013882756,0.05733015760779381,1.0496655702590942,-1.9988657236099243,-2.756028413772583,-1.1197926998138428,2.1640818119049072,4.003713607788086,0.3038625717163086,-0.12678326666355133,-0.2624538838863373,0.35459259152412415
451,24708,24706,-0.022631287574768066,0.07399553805589676,1.064395785331726,-0.5075588822364807,-3.8016886711120605,-1.5377495288848877,2.1647286415100098,4.003497123718262,0.3039756119251251,-0.04632304981350899,-0.2884672284126282,0.3187752366065979
452,24718,24716,-0.031771235167980194,0.01814141497015953,1.0027868747711182,-0.7814390659332275,-1.6036096811294556,-1.0837839841842651,2.1659069061279297,4.002406120300293,0.3023061156272888,-0.047334954142570496,-0.22492945194244385,0.2798699140548706
453,24728,24726,-0.028489891439676285,0.003151364391669631,0.991018533706665,2.03609299659729,-0.7531284689903259,-0.9030284285545349,2.1652238368988037,4.002613067626953,0.30244699120521545,0.060968492180109024,-0.24171537160873413,0.2879340648651123
454,24738,24736,-0.023547273129224777,-0.004442849662154913,0.9814181327819824,0.11103247106075287,2.0138332843780518,-1.012557029724121,2.167361259460449,4.001908779144287,0.3023742735385895,-0.06892700493335724,-0.21777676045894623,0.24471800029277802
455,24748,24746,-0.10579034686088562,0.12611588835716248,0.9750761389732361,1.1570239067077637,1.5653407573699951,-0.4112500548362732,2.1673965454101562,4.002450942993164,0.3024999499320984,0.007978512905538082,-0.21555964648723602,0.24957343935966492
456,24758,24756,-0.01497074868530035,-0.024322524666786194,0.9737825393676758,-1.4217568635940552,2.8518145084381104,-0.7875202894210815,2.1686174869537354,4.001242160797119,0.3011748790740967,-0.07734592258930206,-0.206200510263443,0.22683873772621155
457,24768,24766,0.02124374359846115,-0.09163803607225418,1.006797432899475,-2.2783730030059814,2.407151937484741,-0.6525190472602844,2.1696455478668213,4.0012946128845215,0.30108779668807983,-0.09851638227701187,-0.245096355676651,0.18001891672611237
458,24778,24776,-0.033808354288339615,-0.03360636904835701,1.0977954864501953,-1.2588666677474976,0.5590417385101318,-0.6298424601554871,2.1697463989257812,4.001877307891846,0.3011074662208557,-0.027998631820082664,-0.27454251050949097,0.202656090259552
459,24788,24786,0.01697898469865322,-0.035894110798835754,1.0070509910583496,-0.3864026367664337,-1.540013313293457,-0.6020071506500244,2.1702280044555664,4.001736164093018,0.30101364850997925,-0.02621927112340927,-0.29104697704315186,0.21203245222568512
460,24798,24796,0.010913760401308537,-0.03282415494322777,1.0316425561904907,0.44617724418640137,2.2707996368408203,-1.5715906620025635,2.1732099056243896,4.002296447753906,0.3008623421192169,-0.22263112664222717,-0.29044294357299805,0.20208509266376495
461,24808,24806,-0.04776040464639664,0.029307404533028603,1.0601091384887695,2.2166595458984375,0.12128647416830063,-1.3436048030853271,2.1725850105285645,4.002119064331055,0.30099430680274963,-0.136598140001297,-0.27023500204086304,0.2068779021501541
462,24818,24816,-0.005411903373897076,-0.05336130037903786,0.9509844779968262,2.354435682296753,1.6868884563446045,-1.7480119466781616,2.1730713844299316,4.001650810241699,0.2993185818195343,-0.1252724677324295,-0.30733925104141235,0.13473686575889587
463,24828,24826,0.023970836773514748,-0.07517646998167038,0.9432049989700317,3.3697500228881836,0.5261272192001343,-1.030869722366333,2.1734542846679688,4.001644134521484,0.299289345741272,-0.12180774658918381,-0.25927019119262695,0.11828429996967316
464,24838,24836,0.06237844377756119,-0.06383304297924042,0.9788834452629089,2.481790065765381,-0.20689186453819275,-0.22055310010910034,2.17280912399292,4.001447677612305,0.2991251051425934,-0.1008848324418068,-0.19249825179576874,0.13038456439971924
465,24848,24846,0.06147753819823265,-0.09724000096321106,1.045405626296997,2.4794135093688965,-0.5704062581062317,-0.3173135817050934,2.1741206645965576,4.00188684463501,0.2989566922187805,-0.14440758526325226,-0.22329802811145782,0.12009016424417496
466,24858,24856,0.03912930190563202,-0.11961521208286285,1.0432335138320923,2.0979719161987305,-0.269603967666626,-0.6217963695526123,2.174894332885742,4.000818729400635,0.2988893389701843,-0.10828589648008347,-0.17173795402050018,0.04331841692328453
467,24868,24866,-0.006413849536329508,-0.053594667464494705,1.0323035717010498,1.4284974336624146,0.05967621132731438,-0.40601781010627747,2.174851417541504,3.998648166656494,0.29870349168777466,-0.1596824675798416,-0.13721232116222382,-0.09021427482366562
468,24878,24876,-0.01637069322168827,0.04844348877668381,1.0298917293548584,1.8439888954162598,1.2523524761199951,0.049251556396484375,2.174887180328369,3.998090982437134,0.29880625009536743,-0.06037113070487976,-0.10516998171806335,-0.08565756678581238
469,24888,24886,0.023934323340654373,0.034187573939561844,0.974552571773529,0.5428694486618042,1.2842687368392944,0.15892961621284485,2.175555467605591,3.9986367225646973,0.2967417240142822,-0.06176339462399483,-0.15030702948570251,-0.11399934440851212
470,24898,24896,-0.016321199014782906,0.021851761266589165,1.0364753007888794,-0.07747682183980942,1.8940026760101318,-0.36511388421058655,2.176205635070801,3.9992010593414307,0.2966510057449341,-0.07110557705163956,-0.13545794785022736,-0.08768478780984879
471,24908,24906,0.01564057357609272,-0.018203850835561752,0.9952507019042969,0.5558578372001648,1.381239891052246,-0.41766121983528137,2.177489757537842,3.9990992546081543,0.2964550256729126,-0.1646071821451187,-0.12593595683574677,-0.08149053901433945
472,24918,24916,-0.03061710111796856,-0.07641922682523727,1.088921308517456,-0.0629863440990448,0.3231514096260071,-0.6570912003517151,2.178201675415039,3.999098300933838,0.2972756624221802,-0.1372627317905426,-0.11367014795541763,-0.11888742446899414
473,24928,24926,-0.07787546515464783,-0.05245837941765785,1.1326243877410889,1.0416854619979858,1.9286060333251953,-1.45950448513031,2.1783761978149414,4.000097274780273,0.29738420248031616,-0.07160193473100662,-0.2552407383918762,-0.1456560492515564
474,24938,24936,-0.032730814069509506,-0.07290924340486526,1.0638484954833984,2.985417127609253,2.9138991832733154,-1.347173810005188,2.18074893951416,3.9990899562835693,0.2974044680595398,-0.25546571612358093,-0.212354838848114,-0.2079627513885498
475,24948,24946,-0.022671762853860855,-0.016804780811071396,1.0425275564193726,4.580031871795654,3.8685598373413086,-1.1086063385009766,2.1810548305511475,3.998880386352539,0.29853010177612305,-0.21394358575344086,-0.13622723519802094,-0.2219250351190567
476,24958,24956,0.009697644039988518,-0.040962837636470795,0.9438492655754089,5.063973903656006,3.856654405593872,-0.4928807318210602,2.1812031269073486,3.9969539642333984,0.29878008365631104,-0.2709968090057373,-0.03948942571878433,-0.3311100900173187
477,24968,24966,0.038405995815992355,-0.051748018711805344,0.9105047583580017,4.998383045196533,1.7291725873947144,0.32201045751571655,2.180551052093506,3.9964354038238525,0.2988168001174927,-0.30595695972442627,0.05526968464255333,-0.37523964047431946
