,timestamp_start,timestamp_end,acc.x,acc.y,acc.z,gyro.x,gyro.y,gyro.z,stateEstimate.x,stateEstimate.y,stateEstimate.z,stabilizer.pitch,stabilizer.roll,stabilizer.yaw
0,41943,41941,0.030548982322216034,-0.04395156726241112,0.996543288230896,-10.926542282104492,48.276241302490234,-0.05755934864282608,1.7578017711639404,3.766138792037964,0.18267180025577545,0.4256499409675598,0.4964495599269867,2.382797956466675
1,41953,41951,-0.03370180353522301,-0.027886787429451942,0.9831722378730774,-13.103673934936523,37.21615982055664,-0.027422724291682243,1.7576767206192017,3.765920877456665,0.18306760489940643,-0.3374730944633484,0.41990771889686584,2.360936403274536
2,41963,41961,0.02686157636344433,0.015703270211815834,1.027130365371704,-11.793673515319824,24.12567138671875,-0.12545809149742126,1.7572321891784668,3.764793634414673,0.18499983847141266,-0.7403099536895752,0.3043389916419983,2.358375072479248
3,41973,41971,0.009405865333974361,-0.12919603288173676,1.0703567266464233,-7.735535621643066,8.605820655822754,0.009951495565474033,1.7564786672592163,3.7640247344970703,0.1869458556175232,-0.9863365888595581,0.19964301586151123,2.357606887817383
4,41983,41981,-0.023449983447790146,0.005167605821043253,1.0684128999710083,-2.7442288398742676,-3.9730098247528076,-0.25043782591819763,1.7558013200759888,3.764099597930908,0.18580783903598785,-1.1309587955474854,0.16267435252666473,2.351694345474243
5,41993,41991,0.05819839611649513,-0.05968872085213661,1.0010707378387451,-0.09015155583620071,-10.191353797912598,0.14758789539337158,1.7570984363555908,3.7657973766326904,0.1874825656414032,-1.21925687789917,0.19092930853366852,2.3419301509857178
6,42003,42001,-0.004838780965656042,0.0005656557041220367,1.0194250345230103,0.5070703029632568,-12.120614051818848,0.6059973835945129,1.7578620910644531,3.7661643028259277,0.18938139081001282,-1.1690367460250854,0.18351410329341888,2.340571403503418
7,42013,42011,0.015250010415911674,-0.006468184757977724,1.0036967992782593,-1.4842212200164795,-9.784571647644043,0.7621583938598633,1.7583142518997192,3.7666664123535156,0.19129107892513275,-1.1459877490997314,0.12015994638204575,2.3333070278167725
8,42023,42021,-0.02454358898103237,-0.0657673254609108,1.0332603454589844,-5.183529376983643,-5.455859661102295,0.8135480284690857,1.759535312652588,3.7667250633239746,0.1902344971895218,-1.1237283945083618,0.03124091401696205,2.327219009399414
9,42033,42031,-0.024866897612810135,-0.049665506929159164,1.0100525617599487,-7.977139949798584,-0.74261873960495,0.6866031289100647,1.7589542865753174,3.7673983573913574,0.19201500713825226,-1.0829399824142456,-0.02964402362704277,2.3326635360717773
10,42043,42041,0.026784876361489296,-0.035563066601753235,0.9947081208229065,-8.069581031799316,1.1712743043899536,0.1415279507637024,1.7592452764511108,3.765484094619751,0.19389846920967102,-0.9799023270606995,0.08268260210752487,2.3736863136291504
11,42053,42051,-0.023158596828579903,0.03956827148795128,1.0713907480239868,-7.923813343048096,2.2124416828155518,0.14608505368232727,1.7593581676483154,3.7652220726013184,0.19327926635742188,-0.9978467226028442,0.018256591632962227,2.377807140350342
12,42063,42061,0.010630343109369278,0.03594289347529411,0.9775487184524536,-6.970772743225098,3.546471118927002,-0.4096646010875702,1.764624834060669,3.765766143798828,0.19475318491458893,-1.542104721069336,0.10025769472122192,2.3958332538604736
13,42073,42071,0.0027392024639993906,0.0664355605840683,0.9337478280067444,-7.432273864746094,-2.660921573638916,-0.17887060344219208,1.7658941745758057,3.7655584812164307,0.1966230869293213,-1.593115210533142,-0.04657234251499176,2.3735458850860596
14,42083,42081,0.02822525054216385,0.07838671654462814,1.0127859115600586,-7.170997619628906,-10.841952323913574,-0.16882027685642242,1.7667945623397827,3.765211343765259,0.1980142593383789,-1.6157349348068237,-0.04329422116279602,2.3871240615844727
15,42093,42091,-0.01587623730301857,-0.006956595461815596,1.1215853691101074,-7.829282760620117,-18.73165512084961,-0.4073352813720703,1.7676277160644531,3.7650022506713867,0.20001816749572754,-1.4502339363098145,-0.20616988837718964,2.3675453662872314
16,42103,42101,0.046543631702661514,-0.012195742689073086,0.9858582019805908,-8.289408683776855,-23.000398635864258,0.06824047118425369,1.7665462493896484,3.765566825866699,0.20215566456317902,-1.0922589302062988,-0.42960691452026367,2.330998659133911
17,42113,42111,0.014166928827762604,0.006406901404261589,0.9921555519104004,-7.656207084655762,-22.970752716064453,-0.07999962568283081,1.7691738605499268,3.7666358947753906,0.20423641800880432,-0.998036801815033,-0.48865026235580444,2.3387930393218994
18,42123,42121,-0.010636846534907818,-0.01421076525002718,1.0547122955322266,-5.580314636230469,-19.551288604736328,-0.1945834904909134,1.7686086893081665,3.7668707370758057,0.2062053382396698,-0.5930017828941345,-0.68345707654953,2.308756113052368
19,42133,42131,0.028128964826464653,-0.0028805762995034456,1.0117783546447754,-2.264040946960449,-13.677767753601074,0.04885553941130638,1.772889256477356,3.7662315368652344,0.2082403153181076,-0.9298883676528931,-0.6714659929275513,2.337294340133667
20,42143,42141,-0.012281454168260098,-0.007553666364401579,1.0409173965454102,0.7392062544822693,-9.535770416259766,0.05588778480887413,1.773947834968567,3.765799045562744,0.21021907031536102,-0.7658687829971313,-0.6887513995170593,2.338294267654419
21,42153,42151,-0.022299055010080338,-0.055489107966423035,1.0226348638534546,3.044440269470215,-9.020535469055176,-0.32464972138404846,1.7749913930892944,3.7642600536346436,0.21420393884181976,-0.6597791910171509,-0.5075318813323975,2.3767693042755127
22,42163,42161,-0.00994902104139328,0.03610925376415253,0.9973372220993042,3.133115768432617,-10.94039535522461,-1.138193964958191,1.7757039070129395,3.7649025917053223,0.2163020521402359,-0.564091682434082,-0.5306236147880554,2.3603150844573975
23,42173,42171,0.009037908166646957,0.02766682207584381,1.010426640510559,0.14653123915195465,-13.631503105163574,-0.5342355966567993,1.7749601602554321,3.763906478881836,0.21876226365566254,-0.2773122191429138,-0.475978821516037,2.345879316329956
24,42183,42181,0.008136184886097908,0.03176940977573395,1.0615590810775757,-2.6773085594177246,-15.119709014892578,-1.1638052463531494,1.7778449058532715,3.7641537189483643,0.22124068439006805,-0.4273785352706909,-0.5502725839614868,2.3451995849609375
25,42193,42191,-0.01441402081400156,0.06590519100427628,1.0241544246673584,-4.435001850128174,-14.856643676757812,-1.2742860317230225,1.776954174041748,3.7636892795562744,0.22381487488746643,0.013980801217257977,-0.5830950736999512,2.3142073154449463
26,42203,42201,-0.051243897527456284,0.11278086155653,0.9538009762763977,-4.545639514923096,-14.499717712402344,-0.898407518863678,1.7796595096588135,3.7629292011260986,0.22596558928489685,-0.11322078108787537,-0.5637052655220032,2.330488681793213
27,42213,42211,-0.06387323886156082,0.15472781658172607,0.9935149550437927,-4.251590728759766,-14.339166641235352,-1.696436882019043,1.7806106805801392,3.7626850605010986,0.2280864417552948,0.01796756312251091,-0.6290836334228516,2.3205883502960205
28,42223,42221,-0.01388158742338419,0.042416997253894806,0.9783885478973389,-3.1078574657440186,-13.881138801574707,-1.3751463890075684,1.779416561126709,3.762502670288086,0.23033899068832397,0.30244073271751404,-0.682002604007721,2.295088291168213
29,42233,42231,0.013155567459762096,-0.07703336328268051,1.021932601928711,-1.1835137605667114,-13.29029655456543,-1.2762943506240845,1.7806015014648438,3.7613303661346436,0.23242203891277313,0.43176862597465515,-0.5605913996696472,2.3027074337005615
30,42243,42241,-0.03872724249958992,-0.10555531084537506,1.0612276792526245,-0.9995625019073486,-10.279534339904785,-1.684313416481018,1.780972957611084,3.7617733478546143,0.234676331281662,0.6292133927345276,-0.6532546281814575,2.2845354080200195
31,42253,42251,-0.02584642730653286,-0.09323464334011078,0.9985817670822144,-1.1093218326568604,-7.550581932067871,-1.2264306545257568,1.782095193862915,3.7615134716033936,0.24210414290428162,0.8371487259864807,-0.6536363363265991,2.265648365020752
32,42263,42261,-0.014043985866010189,0.0067505366168916225,0.9552605152130127,-1.2561087608337402,-5.613091468811035,-1.7868492603302002,1.7847892045974731,3.7604613304138184,0.24464136362075806,0.6754472851753235,-0.5777683854103088,2.276205062866211
33,42273,42271,0.029993779957294464,-0.017870455980300903,0.9212164282798767,-1.7657322883605957,-5.1633453369140625,-1.3062292337417603,1.7842698097229004,3.760850429534912,0.24731972813606262,0.8640486598014832,-0.6669756174087524,2.248816967010498
34,42283,42281,0.13261531293392181,-0.004697573836892843,0.8899136185646057,-1.7801055908203125,-3.937869071960449,-0.6252074837684631,1.7859408855438232,3.761615753173828,0.25036147236824036,0.8061513900756836,-0.6789724826812744,2.2459380626678467
35,42293,42291,0.15246038138866425,0.029161415994167328,0.8897594809532166,-2.117151975631714,-6.583837032318115,-0.6476824283599854,1.7867802381515503,3.7610208988189697,0.2528587877750397,0.9749457240104675,-0.6894828081130981,2.2311079502105713
36,42303,42301,0.04428482800722122,3.7587600672850385e-05,0.9172732830047607,-1.9848597049713135,-7.574077129364014,-0.574345588684082,1.7865557670593262,3.761923313140869,0.25522947311401367,1.0904568433761597,-0.7796040773391724,2.2252418994903564
37,42313,42311,0.01606057770550251,0.019387781620025635,0.9355911612510681,-1.0624377727508545,-7.2860822677612305,-0.46892622113227844,1.7865837812423706,3.7611029148101807,0.2558784782886505,1.2896500825881958,-0.7027663588523865,2.2048447132110596
38,42323,42321,0.004101166967302561,-0.008233679458498955,0.9242327213287354,-1.1611440181732178,-4.683328628540039,-0.38941022753715515,1.7875314950942993,3.7617568969726562,0.2579801678657532,1.386447787284851,-0.7746478915214539,2.2048285007476807
39,42333,42331,0.08212079852819443,-0.04747181758284569,0.8817968964576721,-1.5335007905960083,-1.5191198587417603,-0.3402531147003174,1.7887837886810303,3.7624082565307617,0.2598980963230133,1.5126162767410278,-0.6856082081794739,2.192883014678955
40,42343,42341,0.05207781866192818,-0.0261679720133543,0.890378475189209,-2.484426975250244,1.923503041267395,-0.3879212737083435,1.7898458242416382,3.7617876529693604,0.2617838978767395,1.5707511901855469,-0.6918240189552307,2.189556121826172
41,42353,42351,0.02405070699751377,0.021771444007754326,0.8736357092857361,-3.9805943965911865,5.260138988494873,-0.4628395140171051,1.7912018299102783,3.764516592025757,0.26397421956062317,1.5443000793457031,-0.7950441837310791,2.191911458969116
42,42363,42361,-0.013862521387636662,0.07590125501155853,0.900135338306427,-5.50611686706543,9.545969009399414,-0.801302433013916,1.793960690498352,3.7668421268463135,0.26570063829421997,1.4635000228881836,-0.9145301580429077,2.205894947052002
43,42373,42371,-0.03224923461675644,0.14866402745246887,0.8917474150657654,-3.086909532546997,8.750232696533203,-0.09075118601322174,1.7945810556411743,3.76768159866333,0.2673817574977875,1.3115670680999756,-0.966349720954895,2.1996240615844727
44,42383,42381,0.006333267316222191,0.02874569781124592,0.921751081943512,-0.6991637349128723,8.363354682922363,-0.009426969103515148,1.7949498891830444,3.7657463550567627,0.268140971660614,1.1778669357299805,-0.7385984063148499,2.1572659015655518
45,42393,42391,-3.832453512586653e-05,-0.008742360398173332,0.9341474175453186,1.6340789794921875,6.547290802001953,0.48209327459335327,1.7981715202331543,3.765946865081787,0.2695881724357605,0.8249867558479309,-0.805078387260437,2.1928117275238037
46,42403,42401,0.024424107745289803,-0.11033625155687332,0.8972123265266418,2.7365996837615967,2.333035469055176,0.4605008661746979,1.7966952323913574,3.765855550765991,0.2710796296596527,0.9831585884094238,-0.5972059965133667,2.1441495418548584
47,42413,42411,0.0689915344119072,-0.12666486203670502,0.8986976742744446,1.0953363180160522,0.019410280510783195,0.885108470916748,1.7986220121383667,3.767428398132324,0.27117273211479187,0.9669684171676636,-0.6262715458869934,2.1642134189605713
48,42423,42421,0.07266063988208771,-0.1705729365348816,0.9253714680671692,-1.3678510189056396,-2.764991283416748,0.9692955017089844,1.7982746362686157,3.768052339553833,0.2723102271556854,0.9947969317436218,-0.675865113735199,2.1807219982147217
49,42433,42431,0.044537752866744995,-0.28291013836860657,0.967671275138855,-4.401448726654053,-3.9693570137023926,0.11939065158367157,1.7994098663330078,3.77077317237854,0.27331122756004333,1.0581361055374146,-0.6827676296234131,2.1942543983459473
50,42443,42441,0.013544682413339615,-0.08154013007879257,0.9267858266830444,-6.354729652404785,-1.1898248195648193,0.09718736261129379,1.7991453409194946,3.7710235118865967,0.2742878794670105,1.1340659856796265,-0.8172956705093384,2.2071821689605713
51,42453,42451,-0.033236365765333176,-0.17187900841236115,0.9527295827865601,-5.8584113121032715,2.7329013347625732,0.007909026928246021,1.7981386184692383,3.7731149196624756,0.2771570086479187,1.2447140216827393,-0.9676600694656372,2.2167961597442627
52,42463,42461,0.015688925981521606,-0.08093928545713425,0.9612650275230408,-3.9338607788085938,8.213780403137207,0.2194615751504898,1.7986897230148315,3.7737278938293457,0.27824050188064575,1.1900506019592285,-1.021701455116272,2.2172584533691406
53,42473,42471,0.0418723039329052,-0.014663293026387691,0.9598121643066406,-1.109846591949463,11.400467872619629,-0.2439170479774475,1.7997835874557495,3.7743828296661377,0.2792065441608429,1.0442931652069092,-1.1088908910751343,2.230672597885132
54,42483,42481,0.0013113722670823336,0.0067813340574502945,0.9757772088050842,1.5862681865692139,12.873909950256348,-0.340711385011673,1.7997270822525024,3.7759878635406494,0.2803425192832947,1.0047951936721802,-1.0656241178512573,2.2182812690734863
55,42493,42491,0.00017402865341864526,0.00849288608878851,0.9656064510345459,3.908024787902832,12.601022720336914,0.03167880326509476,1.8006047010421753,3.7759013175964355,0.2812168002128601,0.8570534586906433,-1.059349775314331,2.224489450454712
56,42503,42501,-0.041840799152851105,0.05663652345538139,0.9644107222557068,5.752638816833496,10.63630485534668,-0.07350357621908188,1.8017218112945557,3.778731107711792,0.28205713629722595,0.7165753245353699,-1.0099431276321411,2.2240681648254395
57,42513,42511,-0.028371673077344894,0.10137525200843811,0.9911098480224609,6.5729498863220215,7.942422389984131,-0.6445133090019226,1.8015680313110352,3.7808563709259033,0.2841339111328125,0.6122419834136963,-1.0822681188583374,2.239551067352295
58,42523,42521,-0.005237539764493704,0.10184981673955917,1.0135334730148315,6.437117576599121,5.3453521728515625,-0.40580230951309204,1.8022260665893555,3.781248092651367,0.28502005338668823,0.47741326689720154,-0.9758242964744568,2.23410701751709
59,42533,42531,0.028110450133681297,-0.002750322688370943,0.9592267274856567,6.9554362297058105,2.6058156490325928,-0.6127179861068726,1.8008753061294556,3.7830140590667725,0.2859128415584564,0.6219066977500916,-0.8702436685562134,2.204035997390747
60,42543,42541,0.029262105002999306,0.012433696538209915,0.9206656217575073,6.229601860046387,0.8746553063392639,-0.05070071294903755,1.8013100624084473,3.7823541164398193,0.2868155837059021,0.5537292957305908,-0.7624140977859497,2.2003567218780518
61,42553,42551,-0.013742736540734768,0.10281328856945038,0.9735259413719177,4.541409015655518,2.0993587970733643,0.07487721741199493,1.802076816558838,3.7847580909729004,0.2875713109970093,0.5172786712646484,-0.7461531162261963,2.205418348312378
62,42563,42561,-0.018610214814543724,0.05392758920788765,0.9853414297103882,2.516355514526367,3.9650557041168213,-0.5249119400978088,1.8047492504119873,3.7867636680603027,0.2882692813873291,0.3750426173210144,-0.7580078840255737,2.228531837463379
63,42573,42571,0.020933421328663826,0.12831921875476837,0.910938024520874,1.4841773509979248,5.6195454597473145,-0.7841181755065918,1.8044899702072144,3.7875258922576904,0.289000540971756,0.3467169404029846,-0.718853771686554,2.2128419876098633
64,42583,42581,-0.0551198348402977,0.04515255242586136,1.0348458290100098,1.9513933658599854,5.734923362731934,-1.3104619979858398,1.80409836769104,3.787708044052124,0.2896758019924164,0.3166302740573883,-0.6940972805023193,2.200085163116455
65,42593,42591,0.0442236065864563,0.03596922755241394,0.9520267844200134,2.9002346992492676,9.323262214660645,-1.233513593673706,1.8048346042633057,3.787769079208374,0.29031315445899963,0.184794619679451,-0.6569979190826416,2.1896586418151855
66,42603,42601,0.06362546980381012,-0.004696042742580175,0.945663571357727,3.95686411857605,6.326568126678467,-0.5912560820579529,1.8019925355911255,3.7895684242248535,0.2909772992134094,0.30859145522117615,-0.7567533254623413,2.1667065620422363
67,42613,42611,0.09452313184738159,-0.0130813829600811,0.9546188116073608,4.596282005310059,4.474844932556152,-0.08768217265605927,1.8024779558181763,3.789280891418457,0.2908652126789093,0.17737187445163727,-0.670677125453949,2.166088819503784
68,42623,42621,-0.0043741269037127495,0.0012321514077484608,1.0007612705230713,5.863169193267822,3.400207281112671,-0.09923127293586731,1.8025281429290771,3.7890093326568604,0.2913333475589752,0.1545582413673401,-0.5788586139678955,2.160491466522217
69,42633,42631,-0.057087838649749756,-0.026921890676021576,0.9777078628540039,5.669910430908203,3.6415483951568604,-0.46396833658218384,1.8022733926773071,3.7915825843811035,0.2917101979255676,0.21936266124248505,-0.6200252175331116,2.1610023975372314
70,42643,42641,-0.008057710714638233,-0.03309711441397667,0.9646079540252686,6.863097667694092,4.577836513519287,-0.28585997223854065,1.8027892112731934,3.7922139167785645,0.29261186718940735,0.12157733738422394,-0.5747565627098083,2.1632728576660156
71,42653,42651,-6.570175901288167e-05,0.002524859271943569,0.9992036819458008,7.350483417510986,6.426087856292725,-0.028647946193814278,1.8034051656723022,3.7937963008880615,0.29307398200035095,0.07983985543251038,-0.43255963921546936,2.164245128631592
72,42663,42661,0.053786538541316986,0.14667865633964539,1.0474413633346558,6.395631790161133,7.233426570892334,-0.48361340165138245,1.803492784500122,3.7960212230682373,0.2934512495994568,0.0805082768201828,-0.44395411014556885,2.16019868850708
73,42673,42671,0.02004890888929367,0.04564787074923515,1.0096800327301025,5.921826362609863,6.820965766906738,-0.6077045798301697,1.8042722940444946,3.7952802181243896,0.2939668595790863,-0.07977336645126343,-0.311480313539505,2.157808780670166
74,42683,42681,-0.0074756513349711895,0.025256000459194183,1.001713514328003,4.587306499481201,6.9327311515808105,-1.0708808898925781,1.8065699338912964,3.7958028316497803,0.2904445230960846,-0.22878938913345337,-0.19280026853084564,2.154193162918091
75,42693,42691,-0.0411711260676384,0.1325664222240448,1.000595211982727,3.247264862060547,5.378641605377197,-1.4366207122802734,1.8059120178222656,3.795320510864258,0.29070234298706055,-0.2921781539916992,-0.1036866307258606,2.1407108306884766
76,42703,42701,0.030124202370643616,0.032095007598400116,0.9582104682922363,2.17988657951355,2.93109130859375,-1.304940938949585,1.8049439191818237,3.795898675918579,0.29092302918434143,-0.17068852484226227,-0.04394248500466347,2.1283364295959473
77,42713,42711,-0.018888749182224274,0.09105628728866577,1.0204330682754517,0.1860106736421585,1.9257444143295288,-1.8041465282440186,1.8058604001998901,3.798546552658081,0.29259955883026123,-0.26085031032562256,-0.1608465164899826,2.109571695327759
78,42723,42721,-0.010471725836396217,-0.0035778027959167957,1.0565905570983887,-0.5558722615242004,1.9192618131637573,-1.4838584661483765,1.8057329654693604,3.7994914054870605,0.29291966557502747,-0.3124742805957794,-0.21601861715316772,2.091614246368408
79,42733,42731,-0.061611488461494446,-0.01668134145438671,1.118722677230835,0.6306294202804565,3.755317211151123,-1.4740512371063232,1.8057531118392944,3.800126314163208,0.2933122515678406,-0.3489539921283722,-0.2730160057544708,2.0759389400482178
80,42743,42741,0.08789640665054321,-0.04032592847943306,0.932975172996521,2.0707736015319824,13.706985473632812,-1.110519289970398,1.8060932159423828,3.800184726715088,0.2915741801261902,-0.48868682980537415,-0.22063013911247253,2.063718318939209
81,42753,42751,0.10430411249399185,-0.02659646049141884,0.9134511947631836,4.268874168395996,17.34406280517578,-0.9632168412208557,1.805295467376709,3.8011019229888916,0.29186105728149414,-0.5879188179969788,-0.22069764137268066,2.0506417751312256
82,42763,42761,0.050026778131723404,-0.050325289368629456,0.9392469525337219,6.033486366271973,19.20473861694336,-0.6023116111755371,1.806531548500061,3.8003933429718018,0.292094349861145,-0.8300890922546387,-0.11237065494060516,2.0462028980255127
83,42773,42771,0.055963754653930664,-0.008369131945073605,0.9522618651390076,6.3320841789245605,20.043058395385742,-0.5924932956695557,1.8047488927841187,3.802246570587158,0.2904626131057739,-0.8127505779266357,-0.059594202786684036,2.042921304702759
84,42783,42781,0.0425964817404747,-0.047217488288879395,0.9821111559867859,5.584377288818359,18.54035758972168,-1.1043250560760498,1.8047971725463867,3.803865432739258,0.2904454469680786,-1.0283236503601074,-0.07801342755556107,2.0264577865600586
85,42793,42791,-0.027123762294650078,0.017441289499402046,1.0450358390808105,4.680789947509766,16.970722198486328,-0.8364298343658447,1.8063119649887085,3.8037705421447754,0.29045599699020386,-1.3602238893508911,0.048383936285972595,2.021487236022949
86,42803,42801,0.0087444968521595,-0.1653500646352768,0.9948869943618774,4.14781379699707,13.678033828735352,-1.5227187871932983,1.806087613105774,3.805553436279297,0.29044321179389954,-1.4834582805633545,0.008239354006946087,2.0012993812561035
87,42813,42811,-0.020782632753252983,-0.05743147432804108,1.0062596797943115,3.1216800212860107,10.429719924926758,-1.797624111175537,1.805747389793396,3.8049917221069336,0.29175326228141785,-1.5631872415542603,0.11690196394920349,1.9972984790802002
88,42823,42821,0.05789296329021454,0.08444289863109589,0.9151760935783386,3.0890910625457764,7.928332805633545,-2.156845808029175,1.8060988187789917,3.8045413494110107,0.2918122708797455,-1.7611640691757202,0.20466312766075134,1.982319951057434
89,42833,42831,0.08132908493280411,0.10395719856023788,0.9968054890632629,1.4388008117675781,3.8292322158813477,-1.9164551496505737,1.8055860996246338,3.8062472343444824,0.29194480180740356,-1.7535854578018188,0.12679673731327057,1.9445017576217651
90,42843,42841,-0.02562524937093258,0.08670976758003235,1.0359641313552856,0.5322988629341125,-0.31100618839263916,-2.2444984912872314,1.8060373067855835,3.806246280670166,0.2912304103374481,-1.8214151859283447,0.18362371623516083,1.930249571800232
91,42853,42851,-0.07636038213968277,0.12035856395959854,1.0061578750610352,0.8459208011627197,0.09788986295461655,-1.6597566604614258,1.8055634498596191,3.8062524795532227,0.29128003120422363,-1.7480206489562988,0.2241537719964981,1.9188017845153809
92,42863,42861,-0.04248461872339249,0.050633616745471954,1.000001072883606,1.2520374059677124,1.20531165599823,-1.7007977962493896,1.8053319454193115,3.8058507442474365,0.29127949476242065,-1.7600457668304443,0.2650858461856842,1.9100677967071533
93,42873,42871,0.01731720380485058,-0.01165421586483717,1.0444107055664062,1.719437599182129,3.1751909255981445,-1.7809501886367798,1.8056784868240356,3.805727481842041,0.2911350131034851,-1.7797755002975464,0.30388396978378296,1.9033030271530151
94,42883,42881,0.014201564714312553,-0.02034715563058853,1.056511402130127,1.5746257305145264,5.1424479484558105,-1.7581404447555542,1.806077241897583,3.807870626449585,0.29116371273994446,-1.8417774438858032,0.20108889043331146,1.8525301218032837
95,42893,42891,0.02245366759598255,-0.03466057404875755,0.9871731996536255,1.8113232851028442,6.16917085647583,-1.5438165664672852,1.806439757347107,3.807701349258423,0.2912520468235016,-1.9330909252166748,0.25830501317977905,1.8459748029708862
96,42903,42901,-0.008557518944144249,0.02594839036464691,1.0717436075210571,2.4677066802978516,5.354452133178711,-1.7957189083099365,1.8067982196807861,3.807832717895508,0.29134804010391235,-2.0312387943267822,0.3196837604045868,1.8388317823410034
97,42913,42911,0.031112413853406906,-0.011377433314919472,0.9264578819274902,1.9076896905899048,2.6115212440490723,-1.784875750541687,1.8073252439498901,3.8082923889160156,0.29198476672172546,-2.1216237545013428,0.30688080191612244,1.8051862716674805
98,42923,42921,0.0037116254679858685,0.017840376123785973,1.040995717048645,1.30892813205719,-0.7474908828735352,-1.5696696043014526,1.807643175125122,3.8092992305755615,0.29216450452804565,-2.124401092529297,0.36271893978118896,1.800735354423523
99,42933,42931,-0.02293737605214119,-0.009533939883112907,1.114685297012329,0.9059873819351196,-4.278961181640625,-1.4084570407867432,1.8085402250289917,3.8105850219726562,0.292360782623291,-2.0567004680633545,0.32765328884124756,1.7755740880966187
100,42943,42941,0.021482251584529877,-0.001880266354419291,1.0588164329528809,0.7660428881645203,-5.372927188873291,-1.2699573040008545,1.8090018033981323,3.810549259185791,0.29381975531578064,-2.0225110054016113,0.3693665564060211,1.7704380750656128
101,42953,42951,-0.0016971455188468099,-0.021916145458817482,1.0092284679412842,0.7972583174705505,-6.5033440589904785,-1.3359723091125488,1.8085768222808838,3.8104546070098877,0.29425671696662903,-1.8880376815795898,0.4032075107097626,1.7722073793411255
102,42963,42961,0.004549090284854174,0.011472059413790703,1.0489808320999146,1.0755294561386108,-5.692272186279297,-0.9485218524932861,1.810450792312622,3.812006711959839,0.29457947611808777,-1.9797723293304443,0.2828218340873718,1.701768159866333
103,42973,42971,0.029777780175209045,-0.03722960501909256,0.9987832307815552,1.633914828300476,-4.839716911315918,-0.6554731130599976,1.8109233379364014,3.811136245727539,0.296175092458725,-1.915446400642395,0.40835052728652954,1.7316203117370605
104,42983,42981,0.0016166905406862497,0.11558599025011063,1.0041186809539795,2.2147302627563477,-3.2068018913269043,-0.6754273176193237,1.8109933137893677,3.811950206756592,0.2967771887779236,-1.7897437810897827,0.45532968640327454,1.740351676940918
105,42993,42991,0.019494855776429176,0.16890659928321838,0.939857006072998,1.7222180366516113,-2.886582374572754,-0.7193084359169006,1.8100911378860474,3.812631368637085,0.2973092794418335,-1.6844078302383423,0.4322829842567444,1.7234151363372803
106,43003,43001,-0.0378875732421875,0.0878673866391182,1.0669384002685547,0.4362204968929291,-2.974360227584839,-0.9482854008674622,1.8127049207687378,3.813190221786499,0.29771000146865845,-1.8187822103500366,0.47429850697517395,1.708551049232483
107,43013,43011,0.03647291660308838,0.07013663649559021,0.9416953325271606,-0.29902052879333496,-2.0598671436309814,-0.6528152227401733,1.8128328323364258,3.813324213027954,0.2975928485393524,-1.7254091501235962,0.49551403522491455,1.7130076885223389
108,43023,43021,-0.0052941408939659595,0.03777362406253815,1.0324864387512207,-1.6801047325134277,-3.4569830894470215,-0.8301843404769897,1.8126933574676514,3.813338041305542,0.298127144575119,-1.6355804204940796,0.49377334117889404,1.7149540185928345
109,43033,43031,0.07860769331455231,0.08423781394958496,1.0160194635391235,-2.593926191329956,-2.446911096572876,-1.3001341819763184,1.8160901069641113,3.8134219646453857,0.29853978753089905,-1.7919164896011353,0.4703054130077362,1.6852827072143555
110,43043,43041,0.03893705829977989,0.023947929963469505,0.9943807125091553,-3.3985047340393066,-7.195145130157471,-1.2732642889022827,1.8173716068267822,3.8126277923583984,0.30168333649635315,-1.7092832326889038,0.5077128410339355,1.695935845375061
111,43053,43051,-0.0018732851603999734,0.003716688835993409,1.0025010108947754,-3.941793203353882,-8.536454200744629,-1.2675148248672485,1.8183892965316772,3.8136777877807617,0.3023209273815155,-1.6565884351730347,0.3723278045654297,1.6474705934524536
112,43063,43061,-0.05082958936691284,0.05299527198076248,0.9735597372055054,-3.444697856903076,-9.917853355407715,-1.3984204530715942,1.8186367750167847,3.813011407852173,0.30306336283683777,-1.4989967346191406,0.38973626494407654,1.6577004194259644
113,43073,43071,-0.06542132049798965,0.11292510479688644,1.0229389667510986,-2.008882522583008,-9.905455589294434,-1.4341344833374023,1.8191392421722412,3.8132760524749756,0.3061384856700897,-1.320367693901062,0.3399522602558136,1.6461939811706543
114,43083,43081,0.018103454262018204,-0.0065427557565271854,0.9608325362205505,-0.5908238291740417,-8.046272277832031,-1.5736699104309082,1.8200000524520874,3.813326597213745,0.3069921135902405,-1.0867537260055542,0.39654991030693054,1.6665130853652954
115,43093,43091,0.022847354412078857,-0.02992432564496994,1.0097107887268066,0.2074107825756073,-4.765327453613281,-1.8160297870635986,1.8239805698394775,3.815068006515503,0.30768996477127075,-1.336750864982605,0.24235275387763977,1.5743173360824585
116,43103,43101,-0.014628829434514046,0.011365706101059914,1.0238096714019775,1.0386221408843994,-1.8195526599884033,-1.5254040956497192,1.8275303840637207,3.8148648738861084,0.3112848401069641,-1.4803228378295898,0.2587014138698578,1.54249107837677
117,43113,43111,0.01832733303308487,-0.07771861553192139,0.9151391386985779,2.0301101207733154,-2.0286190509796143,-1.9511456489562988,1.8279651403427124,3.8151073455810547,0.31240588426589966,-1.3292523622512817,0.29562193155288696,1.5461843013763428
118,43123,43121,0.01855708844959736,-0.09662170708179474,0.8939048647880554,1.9829821586608887,-7.234401702880859,-1.178903341293335,1.8301584720611572,3.815955638885498,0.31325510144233704,-1.2894700765609741,0.3397228419780731,1.5356078147888184
119,43133,43131,0.031008519232273102,-0.05386507138609886,0.9266279339790344,2.1426210403442383,-9.212657928466797,-0.8853045105934143,1.831733226776123,3.81575608253479,0.31410732865333557,-1.1919457912445068,0.3818362355232239,1.5303152799606323
120,43143,43141,0.11252694576978683,-0.11145009845495224,0.8570596575737,0.7163779735565186,-12.273056983947754,-0.7529737949371338,1.8327492475509644,3.8167054653167725,0.31083911657333374,-1.0502679347991943,0.4180528521537781,1.5290206670761108
121,43153,43151,0.03320714831352234,-0.06601922959089279,0.9431878328323364,0.011011414229869843,-17.63873863220215,-1.026997447013855,1.8342580795288086,3.8169145584106445,0.31118887662887573,-0.9222545623779297,0.42889052629470825,1.5190050601959229
122,43163,43161,0.03320755437016487,-0.10069289058446884,0.9147037863731384,-1.7158819437026978,-16.344083786010742,-0.5918056964874268,1.8333406448364258,3.817791223526001,0.3117770850658417,-0.5227340459823608,0.34445664286613464,1.5180541276931763
123,43173,43171,0.023852741345763206,-0.08120088279247284,0.9171324968338013,-2.2270472049713135,-12.568099975585938,-0.7895687818527222,1.8369808197021484,3.8184337615966797,0.3113029897212982,-0.6321170330047607,0.3181914687156677,1.485050916671753
124,43183,43181,0.01999969594180584,-0.19930870831012726,0.9305706024169922,-1.5521289110183716,-8.029329299926758,-0.897037923336029,1.8382267951965332,3.818523645401001,0.3115305006504059,-0.47095492482185364,0.2916843295097351,1.4804579019546509
125,43193,43191,-0.01890762895345688,-0.21258382499217987,1.0077803134918213,-1.5151299238204956,-3.8152947425842285,-1.209347128868103,1.8396587371826172,3.819304943084717,0.3116426169872284,-0.3832866847515106,0.27175718545913696,1.4711463451385498
126,43203,43201,-0.06949271261692047,-0.1525515764951706,1.0646522045135498,-1.0455530881881714,-0.13904336094856262,-1.6194591522216797,1.841279149055481,3.8172082901000977,0.31154927611351013,-0.36047783493995667,0.41082221269607544,1.4751863479614258
127,43213,43211,0.0100534837692976,-0.08199989050626755,0.9454755783081055,-1.862760305404663,2.8020520210266113,-1.8134312629699707,1.8428915739059448,3.8172004222869873,0.3116223216056824,-0.4070703983306885,0.3813371956348419,1.4521671533584595
128,43223,43221,0.11603143066167831,0.018278200179338455,0.9165830612182617,-3.53580904006958,2.4453136920928955,-1.2928073406219482,1.8427937030792236,3.8175928592681885,0.31181225180625916,-0.32346591353416443,0.33369892835617065,1.442762017250061
129,43233,43231,0.03164481744170189,0.02528209052979946,0.964296817779541,-3.834679365158081,-1.0224899053573608,-1.2824110984802246,1.846630334854126,3.817878007888794,0.3116871416568756,-0.5310430526733398,0.26490193605422974,1.4101005792617798
130,43243,43241,0.035982877016067505,0.036233220249414444,0.9550773501396179,-3.7703096866607666,-5.178262710571289,-1.285910964012146,1.8462554216384888,3.8181965351104736,0.3108386993408203,-0.3423791825771332,0.19706915318965912,1.4085297584533691
131,43253,43251,0.02982868067920208,0.052849382162094116,0.9728281497955322,-3.1959617137908936,-8.454286575317383,-1.1277116537094116,1.8465797901153564,3.8179614543914795,0.3109002709388733,-0.08465836942195892,0.1281944066286087,1.4056789875030518
132,43263,43261,0.05057349056005478,-0.07232982665300369,1.0116533041000366,-1.7500582933425903,-8.778007507324219,-0.9631319642066956,1.8472386598587036,3.817326784133911,0.3109579384326935,0.01554123591631651,0.16086390614509583,1.4004051685333252
133,43273,43271,0.010073423385620117,0.0755351111292839,1.0095163583755493,-0.7291640639305115,-7.559398174285889,-0.706991970539093,1.8487638235092163,3.817784070968628,0.3139631748199463,0.11138346046209335,0.12915675342082977,1.3916640281677246
134,43283,43281,0.02773718349635601,-0.07899769395589828,0.9692936539649963,-0.15335892140865326,-2.767833948135376,-1.0034117698669434,1.8508422374725342,3.817389488220215,0.3140310049057007,0.07230202108621597,0.11841466277837753,1.3767930269241333
135,43293,43291,-0.007652809843420982,-0.027626723051071167,1.0182346105575562,0.3167799711227417,0.23727834224700928,-0.9944067597389221,1.8525344133377075,3.8174378871917725,0.31405702233314514,0.05576643720269203,0.11811629682779312,1.3697500228881836
136,43303,43301,0.01961546391248703,-0.08553352952003479,0.9392295479774475,0.09084746986627579,1.4920974969863892,-1.0823676586151123,1.8536248207092285,3.8173885345458984,0.31213992834091187,0.07496848702430725,0.12007767707109451,1.3607256412506104
137,43313,43311,0.04250548779964447,-0.10457287728786469,0.9319607615470886,-0.42363131046295166,1.0375823974609375,-0.7562233209609985,1.8555936813354492,3.8167765140533447,0.3120839595794678,-0.001780052320100367,0.19378982484340668,1.3479583263397217
138,43323,43321,0.0076326048001646996,-0.014984199777245522,1.0030059814453125,-1.4039586782455444,-0.5867061018943787,-0.824366569519043,1.8566582202911377,3.816941499710083,0.3120080232620239,0.02534463256597519,0.16933032870292664,1.3420287370681763
139,43333,43331,-0.040056172758340836,0.10469236224889755,1.0077296495437622,-2.0104613304138184,-2.410784959793091,-1.2479945421218872,1.8582499027252197,3.81693959236145,0.3118627369403839,0.157943993806839,0.13121750950813293,1.3370896577835083
140,43343,43341,0.005007133819162846,0.000882771098986268,0.9712180495262146,-2.205606460571289,-2.2708849906921387,-1.0947442054748535,1.861879825592041,3.8178751468658447,0.31425192952156067,-0.009703111834824085,0.0877545028924942,1.317229986190796
141,43353,43351,-0.024408455938100815,0.09905572980642319,1.013540267944336,-2.032663106918335,-1.9289997816085815,-0.6525552272796631,1.8631086349487305,3.8184926509857178,0.31425532698631287,-0.014343973249197006,0.05041028931736946,1.3041014671325684
142,43363,43361,0.0022843440528959036,0.16326823830604553,0.9543312788009644,-1.9718196392059326,-3.4674599170684814,-1.3049209117889404,1.8629831075668335,3.819265127182007,0.31440797448158264,0.131272092461586,0.015122141689062119,1.297132968902588
143,43373,43371,0.007947728037834167,0.03550511226058006,0.998649537563324,-1.3118493556976318,-3.854135036468506,-0.9835740923881531,1.8663362264633179,3.818265199661255,0.31710490584373474,0.14228346943855286,0.05966287851333618,1.2812241315841675
144,43383,43381,0.006517776753753424,0.01574402116239071,1.012452483177185,-0.9868637919425964,-2.814923048019409,-1.2107940912246704,1.8679728507995605,3.8170149326324463,0.3172115385532379,0.14364026486873627,0.1038433313369751,1.2594075202941895
145,43393,43391,-0.02221076190471649,-0.029004117473959923,1.0915395021438599,-0.3047953248023987,-2.085569381713867,-1.8013205528259277,1.8677544593811035,3.817089796066284,0.31749123334884644,0.30458396673202515,0.07535044848918915,1.2521448135375977
146,43403,43401,-0.06540028005838394,-0.06310401856899261,1.088456153869629,-0.9696040749549866,-0.14319927990436554,-1.7181628942489624,1.8689334392547607,3.8178510665893555,0.3159882128238678,0.21896885335445404,-0.023356445133686066,1.2409424781799316
147,43413,43411,0.05652931332588196,-0.04196130111813545,0.9372484087944031,-1.4686965942382812,2.9220526218414307,-1.9355684518814087,1.8717215061187744,3.818124771118164,0.31627923250198364,0.15978801250457764,-0.04695393890142441,1.2232954502105713
148,43423,43421,-0.024634283035993576,0.014213800430297852,0.9858455657958984,-1.0004085302352905,1.5285390615463257,-1.602879524230957,1.8707506656646729,3.818629264831543,0.31636905670166016,0.2682912051677704,-0.06921636313199997,1.207910180091858
149,43433,43431,0.019811978563666344,0.012426270171999931,0.940523087978363,-0.6028196811676025,0.9240884184837341,-1.444530725479126,1.8734052181243896,3.8179500102996826,0.3164646625518799,0.12720224261283875,-0.00580679252743721,1.1843397617340088
150,43443,43441,0.10202895104885101,0.01322869025170803,0.9454187750816345,0.32685285806655884,0.4511479139328003,-0.8410890102386475,1.8738681077957153,3.8185884952545166,0.31542566418647766,0.22899749875068665,-0.017429083585739136,1.1765884160995483
151,43453,43451,0.15111231803894043,-0.07599590718746185,0.9361627697944641,1.0206331014633179,-0.4873647391796112,-0.7401951551437378,1.874414324760437,3.818189859390259,0.315535306930542,0.3209550976753235,0.06325683742761612,1.1630998849868774
152,43463,43461,0.017912032082676888,-0.07269838452339172,0.9754315614700317,0.3260892927646637,-1.0044835805892944,-0.6864290833473206,1.8762214183807373,3.8185815811157227,0.31546011567115784,0.27144262194633484,0.06530872732400894,1.1552939414978027
153,43473,43471,0.03592034429311752,-0.16213394701480865,0.9665293097496033,-1.5840731859207153,-0.5463786721229553,-0.7432897686958313,1.8767284154891968,3.8189942836761475,0.31500309705734253,0.36975640058517456,0.046017032116651535,1.150405764579773
154,43483,43481,0.00218372093513608,-0.1288902461528778,0.9633184671401978,-4.0046467781066895,0.550369143486023,-0.8474932312965393,1.8783268928527832,3.8189399242401123,0.31489452719688416,0.29762986302375793,-0.005994646809995174,1.1429249048233032
155,43493,43491,0.0025407641660422087,-0.02562406100332737,0.963695764541626,-4.495022773742676,0.6674454808235168,-1.308672308921814,1.8806531429290771,3.8191702365875244,0.3146832287311554,0.21849068999290466,-0.011579048819839954,1.1267257928848267
156,43503,43501,0.010364538058638573,0.09904222935438156,1.009266972541809,-4.39166784286499,2.5555264949798584,-1.5376137495040894,1.8811519145965576,3.8194522857666016,0.3144091069698334,0.2905614972114563,-0.10218078643083572,1.1174184083938599
157,43513,43511,0.015807881951332092,-0.02591119520366192,0.9604094624519348,-3.5455026626586914,3.0772011280059814,-1.8607147932052612,1.8809890747070312,3.82004714012146,0.3142716884613037,0.3322542905807495,-0.182794451713562,1.1060645580291748
158,43523,43521,0.02646947279572487,-0.06350407004356384,0.9782633781433105,-1.6486603021621704,3.014620065689087,-1.9391543865203857,1.8817641735076904,3.8195841312408447,0.3141418993473053,0.36463308334350586,-0.08230160176753998,1.0798360109329224
159,43533,43531,-0.005699805449694395,0.05996270105242729,1.0875505208969116,0.2539081871509552,3.963787794113159,-1.9647828340530396,1.8842482566833496,3.819005012512207,0.31517499685287476,0.15514419972896576,-0.038844265043735504,1.0537444353103638
160,43543,43541,0.011296617798507214,0.04905608668923378,1.0535914897918701,0.05869116634130478,5.926019191741943,-2.3445816040039062,1.8853060007095337,3.8189992904663086,0.3150196075439453,0.09164474159479141,-0.0556204691529274,1.0335514545440674
161,43553,43551,-0.03312588855624199,0.07208851724863052,0.9710537791252136,-0.44052472710609436,4.747427463531494,-2.2964327335357666,1.8857200145721436,3.8189995288848877,0.3149755597114563,0.09255358576774597,-0.07477167248725891,1.0087043046951294
162,43563,43561,-0.014031139202415943,0.048029325902462006,0.9501423835754395,-1.130265235900879,2.311116933822632,-2.4289448261260986,1.8867955207824707,3.8190388679504395,0.3148949146270752,0.031898580491542816,-0.10366227477788925,0.9875446557998657
163,43573,43571,0.023517416790127754,-0.10412544757127762,1.0234497785568237,-1.986932396888733,0.047984905540943146,-2.377655267715454,1.8877369165420532,3.819700002670288,0.3125196397304535,0.10328322649002075,-0.14222070574760437,0.9732339382171631
164,43583,43581,0.025184115394949913,-0.04287067800760269,1.0396714210510254,-2.576643705368042,0.3238327205181122,-2.3662214279174805,1.8899251222610474,3.8193037509918213,0.31220003962516785,-0.046333231031894684,-0.11751013994216919,0.9509950280189514
165,43593,43591,-0.0028716905508190393,-0.04658275470137596,0.9731692671775818,-1.927751064300537,0.817078709602356,-2.0875539779663086,1.890398621559143,3.82060170173645,0.31208452582359314,0.050651535391807556,-0.17976327240467072,0.9318295121192932
166,43603,43601,0.005154714919626713,0.0030925509054213762,1.018252968788147,-3.0196681022644043,1.305813193321228,-1.7814900875091553,1.8917170763015747,3.8207221031188965,0.31060144305229187,0.04931838810443878,-0.23481789231300354,0.9259889721870422
167,43613,43611,-0.013140268623828888,0.01838807202875614,1.0164917707443237,-2.4401204586029053,1.614745855331421,-1.81109619140625,1.8930625915527344,3.8222904205322266,0.3103162944316864,0.04127618670463562,-0.29430916905403137,0.9103009104728699
168,43623,43621,0.022081619128584862,-0.06876059621572495,1.0175124406814575,-1.4681148529052734,-0.21748444437980652,-1.3790431022644043,1.8953759670257568,3.8222618103027344,0.31005656719207764,0.021450836211442947,-0.25759458541870117,0.8901416659355164
169,43633,43631,-0.04314166307449341,-0.15686362981796265,1.0924160480499268,1.0022320747375488,2.6781280040740967,-2.180438995361328,1.8959239721298218,3.821486473083496,0.3144749402999878,0.0840192586183548,-0.20426832139492035,0.8676019310951233
170,43643,43641,0.0324307419359684,-0.05521702766418457,0.9939700365066528,1.6800378561019897,4.957065105438232,-2.003967761993408,1.8970013856887817,3.8230080604553223,0.3145524561405182,0.008541816845536232,-0.2732847332954407,0.8606143593788147
171,43653,43651,-0.00886298157274723,0.0476444847881794,1.0807323455810547,1.3837000131607056,5.669626712799072,-1.763608694076538,1.8984384536743164,3.822861671447754,0.31466159224510193,-0.07736829668283463,-0.25323858857154846,0.8424314856529236
172,43663,43661,0.01339743286371231,-0.043821949511766434,0.9753563404083252,0.7815089821815491,3.9397294521331787,-1.691543698310852,1.8993229866027832,3.8238584995269775,0.3148709535598755,-0.08015485107898712,-0.24060501158237457,0.833897590637207
173,43673,43671,-0.020918656140565872,-0.05024542659521103,0.9807174205780029,-0.23033814132213593,1.4833219051361084,-1.5869553089141846,1.9005969762802124,3.8237879276275635,0.3129425048828125,-0.12810330092906952,-0.2403940111398697,0.8164289593696594
174,43683,43681,-0.027287492528557777,-0.04197606071829796,1.0162140130996704,-0.835809588432312,1.2529979944229126,-1.7206623554229736,1.9010955095291138,3.8235223293304443,0.3130568861961365,-0.14963442087173462,-0.17746266722679138,0.8040071129798889
175,43693,43691,0.006929326802492142,-0.02309977449476719,1.0063856840133667,-0.33052578568458557,-0.45298951864242554,-1.7289196252822876,1.9009578227996826,3.8235719203948975,0.3131677508354187,-0.07766648381948471,-0.20469053089618683,0.784496545791626
176,43703,43701,0.041039664298295975,-0.0705152153968811,1.0233575105667114,0.0130993677303195,0.0018857455579563975,-0.9356293082237244,1.90164053440094,3.824021100997925,0.3175780475139618,-0.004028537776321173,-0.21935708820819855,0.770234227180481
177,43713,43711,0.06887973845005035,-0.13276079297065735,1.012429118156433,0.24293404817581177,0.7679806351661682,-1.4575321674346924,1.9031842947006226,3.8242757320404053,0.31788167357444763,-0.09074489772319794,-0.22684882581233978,0.7646844983100891
178,43723,43721,0.00580850662663579,0.013798418454825878,1.0311204195022583,0.2569044828414917,2.5501227378845215,-2.148904323577881,1.9047561883926392,3.824655532836914,0.3181644380092621,-0.18979157507419586,-0.2287319302558899,0.75020432472229
179,43733,43731,0.005277913995087147,0.015765057876706123,0.9621987342834473,0.5216026306152344,1.3228117227554321,-1.6469202041625977,1.9049808979034424,3.8246352672576904,0.31774261593818665,-0.14427517354488373,-0.230718731880188,0.7283378839492798
180,43743,43741,0.01806539110839367,-0.023344216868281364,0.977571427822113,1.1365697383880615,2.092458963394165,-1.886941909790039,1.9066892862319946,3.8244590759277344,0.31800809502601624,-0.25335976481437683,-0.22443504631519318,0.7139831185340881
181,43753,43751,-0.02200179174542427,-0.027890343219041824,1.0271519422531128,1.8580162525177002,-1.2415484189987183,-1.2924261093139648,1.9070888757705688,3.8244123458862305,0.3183762729167938,-0.1997944712638855,-0.20574277639389038,0.6944180130958557
182,43763,43761,-0.0016928826225921512,-0.0340072400867939,1.016306757926941,2.549057960510254,2.5060532093048096,-1.9881399869918823,1.907841682434082,3.824863910675049,0.3230087459087372,-0.2172902673482895,-0.17623217403888702,0.6851048469543457
183,43773,43771,-0.04554079473018646,-0.0001429361291229725,1.063414216041565,1.933546781539917,3.027209520339966,-2.254793167114258,1.9089980125427246,3.8247082233428955,0.3235802948474884,-0.24375185370445251,-0.14197798073291779,0.665072500705719
184,43783,43781,-0.09390188753604889,-0.07530317455530167,1.0777556896209717,2.164912462234497,2.698406457901001,-2.2860004901885986,1.9105623960494995,3.8249948024749756,0.32414060831069946,-0.34411653876304626,-0.11379828304052353,0.6533125042915344
185,43793,43791,0.0014621883165091276,-0.13107766211032867,0.9360828399658203,1.0268924236297607,1.625933289527893,-2.1442205905914307,1.9118653535842896,3.8255770206451416,0.32487842440605164,-0.2900947630405426,-0.08694761991500854,0.6449742913246155
186,43803,43801,0.05517515912652016,-0.10847169905900955,0.8900748491287231,0.07892312854528427,1.2863768339157104,-2.238093852996826,1.9132839441299438,3.8257861137390137,0.3221830427646637,-0.3750978410243988,-0.08496598154306412,0.6241137981414795
187,43813,43811,-0.03818528354167938,-0.07216119021177292,0.9606955647468567,-1.1453760862350464,-0.8608112931251526,-1.8306798934936523,1.915152668952942,3.8264904022216797,0.32254472374916077,-0.41227835416793823,-0.09470749646425247,0.6148571968078613
188,43823,43821,-0.05342132970690727,-0.0017589739290997386,0.9904834628105164,-1.3291128873825073,-1.4433940649032593,-1.999274492263794,1.914687156677246,3.8265037536621094,0.3231522738933563,-0.22092263400554657,-0.12132120132446289,0.5889155268669128
189,43833,43831,-0.07408889383077621,0.03701631724834442,0.9770181179046631,-1.4626246690750122,-4.343920707702637,-1.5893291234970093,1.91592276096344,3.8270158767700195,0.32297173142433167,-0.236245796084404,-0.14768271148204803,0.5758152008056641
190,43843,43841,-0.03187862038612366,0.021338706836104393,0.9545222520828247,-0.7421699166297913,-1.4177433252334595,-1.599441647529602,1.9163161516189575,3.8273720741271973,0.3233470618724823,-0.09071463346481323,-0.16983585059642792,0.5561006665229797
191,43853,43851,0.024290842935442924,-0.0656820610165596,0.9434701204299927,-0.048549290746450424,0.21780309081077576,-1.648847222328186,1.9171884059906006,3.827247381210327,0.3236462473869324,-0.05661165341734886,-0.10425277799367905,0.5481472611427307
192,43863,43861,0.06867373734712601,-0.11909710615873337,0.9419022798538208,0.7281453013420105,2.8713254928588867,-2.218297004699707,1.9181029796600342,3.8275251388549805,0.32491081953048706,-0.15251553058624268,-0.10739833116531372,0.5413013100624084
193,43873,43871,-0.01782337576150894,0.07093290239572525,0.956784188747406,0.6147146224975586,3.6489288806915283,-2.720179319381714,1.9184240102767944,3.8272478580474854,0.3251923620700836,-0.11786805093288422,-0.10446112602949142,0.5135554671287537
194,43883,43881,-0.05252249166369438,0.06642254441976547,1.0255712270736694,1.2625877857208252,1.8131427764892578,-1.5863457918167114,1.9197841882705688,3.827745199203491,0.3253847658634186,-0.23260119557380676,-0.09615644067525864,0.5017130970954895
195,43893,43891,-0.030809659510850906,0.0006421331199817359,1.0408235788345337,0.5675203204154968,3.9860589504241943,-2.8145735263824463,1.920091986656189,3.827636957168579,0.32564547657966614,-0.19364766776561737,-0.08563355356454849,0.4863337278366089
196,43903,43901,-0.016699619591236115,-0.09056489169597626,0.9902626276016235,0.5003027319908142,0.896914005279541,-2.926499605178833,1.9217106103897095,3.8280930519104004,0.3265584707260132,-0.30910471081733704,-0.08314232528209686,0.46260568499565125
197,43913,43911,0.054439570754766464,-0.05448140576481819,0.9009105563163757,0.5221260786056519,2.9521586894989014,-3.2425308227539062,1.922782301902771,3.8287947177886963,0.32677149772644043,-0.3378189206123352,-0.0830874890089035,0.4309559464454651
198,43923,43921,0.04280268773436546,-0.02100451849400997,0.9225026369094849,0.8099036812782288,-0.39382776618003845,-3.2490670680999756,1.9229037761688232,3.828326463699341,0.3270212411880493,-0.2661742568016052,-0.07927324622869492,0.4056375026702881
199,43933,43931,0.038756001740694046,0.03822418674826622,0.9631662368774414,1.0449224710464478,0.9374488592147827,-2.8233485221862793,1.924188494682312,3.8289034366607666,0.32877546548843384,-0.2400812953710556,-0.06943388283252716,0.37627527117729187
200,43943,43941,0.03626636788249016,0.08060716092586517,0.9798318147659302,1.4893826246261597,-2.7220802307128906,-2.848601818084717,1.9264506101608276,3.8288586139678955,0.328875333070755,-0.2880355715751648,0.022009318694472313,0.3609499931335449
201,43953,43951,-0.005822237115353346,0.014456348493695259,0.9823737740516663,0.04898326098918915,-3.210991382598877,-2.9036664962768555,1.9264200925827026,3.8292181491851807,0.3290899991989136,-0.13988403975963593,0.02568056620657444,0.33999988436698914
202,43963,43961,0.07621389627456665,0.0170034971088171,0.932896614074707,-0.5154664516448975,-1.5028319358825684,-2.382242441177368,1.9277340173721313,3.8291428089141846,0.32675525546073914,-0.17081329226493835,0.011001555249094963,0.3103620111942291
203,43973,43971,0.029656345024704933,-0.0014650385128334165,0.9619558453559875,-2.07249116897583,-0.9306455254554749,-2.3476274013519287,1.9292006492614746,3.82987642288208,0.326567679643631,-0.2019299566745758,-0.09325244277715683,0.28863999247550964
204,43983,43981,0.004787838086485863,-0.008537707850337029,0.9767501354217529,-2.835941791534424,0.33954837918281555,-2.5533862113952637,1.9291921854019165,3.8302104473114014,0.32640573382377625,-0.17237667739391327,-0.13232271373271942,0.26618051528930664
205,43993,43991,0.017323916777968407,0.0011435045162215829,0.9555988311767578,-1.6826651096343994,0.8605460524559021,-3.3749747276306152,1.9297535419464111,3.828660488128662,0.3262283504009247,-0.09001675248146057,-0.020253056660294533,0.23909389972686768
206,44003,44001,-0.02392374724149704,0.047122400254011154,0.9563122987747192,-0.467703253030777,1.957253098487854,-2.3570358753204346,1.9310792684555054,3.829240083694458,0.3255777060985565,-0.1832854449748993,-0.05826964229345322,0.2232680469751358
207,44013,44011,-0.034360628575086594,0.0012789095053449273,0.9954636096954346,-0.33121708035469055,1.0566091537475586,-1.9700924158096313,1.9318045377731323,3.8298089504241943,0.3252570927143097,-0.1297871321439743,-0.0718410387635231,0.21625985205173492
208,44023,44021,0.061912983655929565,-0.21825620532035828,1.0191558599472046,0.40995359420776367,2.678067207336426,-2.494403839111328,1.930846929550171,3.8303332328796387,0.3248753249645233,-0.07855744659900665,-0.08257943391799927,0.20991891622543335
209,44033,44031,0.03766736015677452,-0.10304726660251617,0.9772064685821533,-0.09776412695646286,2.553375482559204,-2.301617383956909,1.9333136081695557,3.82999849319458,0.3229001760482788,-0.27669984102249146,-0.009718532674014568,0.1869467943906784
210,44043,44041,0.039744783192873,-0.1311435103416443,0.9844098687171936,-0.843533992767334,2.209383964538574,-2.964601516723633,1.9338711500167847,3.830364227294922,0.32244783639907837,-0.22886498272418976,-0.027314864099025726,0.18218928575515747
211,44053,44051,0.012771637178957462,-0.053243014961481094,1.013832449913025,-1.9343695640563965,1.5899927616119385,-2.97979998588562,1.9346777200698853,3.831157684326172,0.32195988297462463,-0.2572973966598511,-0.061905696988105774,0.15100030601024628
212,44063,44061,0.010674426332116127,0.06539639830589294,0.9787890315055847,-1.8079440593719482,0.5137764811515808,-3.120246410369873,1.9377458095550537,3.83263897895813,0.32088279724121094,-0.43074139952659607,-0.10693778097629547,0.14536355435848236
213,44073,44071,0.02836044877767563,0.08004330843687057,0.9682551026344299,-1.2889617681503296,-0.6539159417152405,-3.812190055847168,1.9381332397460938,3.8331336975097656,0.3204425573348999,-0.3352052867412567,-0.1427750587463379,0.11721182614564896
214,44083,44081,0.03342311456799507,0.2676883935928345,0.986690878868103,-0.6094527244567871,-3.6497795581817627,-3.5017220973968506,1.9383354187011719,3.8343331813812256,0.3200075924396515,-0.22472818195819855,-0.16825008392333984,0.09975240379571915
215,44093,44091,0.01856447011232376,0.05557946860790253,0.9671977758407593,0.4771920442581177,-3.715114116668701,-3.128181219100952,1.9420652389526367,3.836350917816162,0.3192269206047058,-0.4659229815006256,-0.17677457630634308,0.10608192533254623
216,44103,44101,0.01672416739165783,-0.052098583430051804,0.9845665097236633,1.0853670835494995,-4.243183612823486,-3.4546215534210205,1.9419214725494385,3.836060047149658,0.31540176272392273,-0.2895343601703644,-0.16823603212833405,0.06633417308330536
217,44113,44111,0.017930585891008377,-0.09052117168903351,1.0318337678909302,1.3703572750091553,-3.698421001434326,-2.934896230697632,1.942498803138733,3.836562395095825,0.31388282775878906,-0.11921969056129456,-0.15157155692577362,0.041003596037626266
218,44123,44121,0.004234139807522297,-0.07052519172430038,1.0276390314102173,2.269603729248047,-2.03706431388855,-2.6730387210845947,1.9439198970794678,3.836456775665283,0.3138175904750824,-0.21198523044586182,-0.12645235657691956,0.015077279880642891
219,44133,44131,0.008947278372943401,0.018001599237322807,1.035107135772705,1.5577629804611206,-0.2396681308746338,-2.4844439029693604,1.9454742670059204,3.836094379425049,0.3136667311191559,-0.2421122044324875,-0.017736656591296196,0.0004886591923423111
220,44143,44141,-0.009564321488142014,-0.08063851296901703,0.9667164087295532,-0.25814858078956604,-0.050224922597408295,-2.4297499656677246,1.9472664594650269,3.8366758823394775,0.31293001770973206,-0.29394957423210144,-0.08884412050247192,-0.028730349615216255
221,44153,44151,0.003151169279590249,0.0024364241398870945,1.025673270225525,-1.2161893844604492,-0.9884202480316162,-2.107982873916626,1.9471843242645264,3.8369357585906982,0.31235381960868835,-0.18880733847618103,-0.10584712028503418,-0.012344016693532467
222,44163,44161,0.017161715775728226,0.012068280018866062,1.0382468700408936,-0.9738372564315796,-2.376357316970825,-2.2766001224517822,1.9487030506134033,3.838982582092285,0.31374168395996094,-0.1468506008386612,-0.12762917578220367,-0.023547185584902763
223,44173,44171,0.014234811998903751,0.013331891037523746,1.0726778507232666,-0.27556803822517395,-2.4821982383728027,-2.142756462097168,1.950110673904419,3.838902473449707,0.3131842613220215,-0.158535435795784,-0.14044933021068573,-0.05344097316265106
224,44183,44181,0.007191956974565983,-0.030119458213448524,1.0274684429168701,1.3058017492294312,-2.6511049270629883,-1.7905491590499878,1.9516681432724,3.8396384716033936,0.31268176436424255,-0.15988630056381226,-0.06003587320446968,-0.04099833965301514
225,44193,44191,-0.007531748153269291,-0.01171176414936781,1.0389134883880615,2.3978986740112305,-3.3465070724487305,-1.7166457176208496,1.9530359506607056,3.839951753616333,0.31048914790153503,0.009819664992392063,-0.04230789467692375,-0.05006440356373787
226,44203,44201,0.012407470494508743,-0.018753647804260254,1.0411826372146606,2.181661367416382,-3.1098530292510986,-1.4819930791854858,1.9546364545822144,3.8400518894195557,0.310392290353775,-0.15012487769126892,-0.008824625983834267,-0.08021744340658188
227,44213,44211,-0.0064374408684670925,-0.006217986345291138,1.065853476524353,1.3649394512176514,-2.998072862625122,-1.4332034587860107,1.954714298248291,3.8395562171936035,0.31007710099220276,0.006458292715251446,0.014170411042869091,-0.09043487161397934
228,44223,44221,0.06615307182073593,-0.02500746212899685,1.058599591255188,-0.008522819727659225,-2.067516803741455,-1.4973522424697876,1.956199288368225,3.8391575813293457,0.3096649944782257,-0.026166656985878944,0.02010134793817997,-0.11420544981956482
229,44233,44231,-0.05277862027287483,-0.026755431666970253,1.0903139114379883,-1.217125415802002,-5.60308313369751,-1.3524861335754395,1.957212209701538,3.8395330905914307,0.30854591727256775,0.03854573145508766,0.004567333962768316,-0.129837304353714
230,44243,44241,0.027584580704569817,-0.005699677858501673,1.0355374813079834,-2.5647571086883545,1.0703240633010864,-0.9044482111930847,1.9583806991577148,3.839054822921753,0.3082236349582672,0.02162388153374195,-0.03493165224790573,-0.1419922560453415
231,44253,44251,-0.04154375568032265,-0.019907241687178612,1.0404086112976074,-2.0472240447998047,-0.795996367931366,-0.9198272824287415,1.9603145122528076,3.8406646251678467,0.3080008327960968,0.06693892180919647,-0.08289032429456711,-0.1397715061903
232,44263,44261,-0.04546777904033661,0.005001584999263287,1.057399034500122,-1.2322876453399658,0.2542246878147125,-1.0538984537124634,1.9628469944000244,3.841256856918335,0.31111735105514526,-0.052988436073064804,-0.11548372358083725,-0.14325988292694092
233,44273,44271,0.021090108901262283,-0.03874730318784714,1.032220721244812,0.04971285164356232,-1.2096869945526123,-1.04416823387146,1.9643046855926514,3.841104745864868,0.3111380338668823,-0.08073239028453827,-0.1331074833869934,-0.16527152061462402
234,44283,44281,0.04070260375738144,-0.00830488558858633,1.018193006515503,1.215968132019043,-0.6351228952407837,-1.4059350490570068,1.964619755744934,3.841620922088623,0.31139320135116577,0.05639272555708885,-0.0537770539522171,-0.15513373911380768
235,44293,44291,-0.02826666086912155,0.06620439141988754,1.0071312189102173,1.8962801694869995,-4.1132402420043945,-0.9647665619850159,1.9682141542434692,3.8409647941589355,0.30832019448280334,-0.03578644245862961,-0.03732137382030487,-0.18169856071472168
236,44303,44301,-0.05491071566939354,0.09940584003925323,0.9993709325790405,2.385157823562622,-5.090156078338623,-0.5774139761924744,1.9670079946517944,3.841395378112793,0.3084583878517151,0.15097731351852417,-0.011112462729215622,-0.18449102342128754
237,44313,44311,-0.04153209179639816,0.03796066716313362,1.0374411344528198,2.465545177459717,-4.432333946228027,-0.4456849992275238,1.9685380458831787,3.841500997543335,0.3084504306316376,0.25123104453086853,0.020717300474643707,-0.18258826434612274
238,44323,44321,0.044405847787857056,-0.0292879156768322,0.9787652492523193,1.0581153631210327,-2.650724411010742,-0.426462858915329,1.9701143503189087,3.8415257930755615,0.3083486258983612,0.10477744042873383,0.0495942085981369,-0.1883852779865265
239,44333,44331,-0.015905233100056648,-0.034060511738061905,1.0246387720108032,0.21148061752319336,-1.1316931247711182,-1.0381499528884888,1.9722330570220947,3.8420426845550537,0.3095729351043701,0.10121145099401474,0.05311284214258194,-0.18822704255580902
240,44343,44341,0.01266634650528431,-0.05598248168826103,0.9951410889625549,-1.7395286560058594,-0.274680495262146,-1.1891191005706787,1.9724433422088623,3.8421387672424316,0.30976277589797974,0.22642585635185242,0.030768420547246933,-0.19240614771842957
241,44353,44351,0.011166186071932316,0.12988539040088654,1.0050983428955078,-1.3827204704284668,2.5727932453155518,-1.3397045135498047,1.9753938913345337,3.8428781032562256,0.309702068567276,0.00708360131829977,-0.008206494152545929,-0.2116822451353073
242,44363,44361,-0.015067650936543941,0.1297295093536377,1.0301097631454468,-1.4931889772415161,0.8861256241798401,-1.1041280031204224,1.9757771492004395,3.8424715995788574,0.3109962046146393,0.11366565525531769,-0.025170521810650826,-0.21013964712619781
243,44373,44371,0.019784819334745407,-0.0586189404129982,0.9536595940589905,-0.8828969597816467,-0.6153770089149475,-1.3638767004013062,1.977236270904541,3.8422975540161133,0.31111839413642883,0.05329250916838646,-0.0575578399002552,-0.22738581895828247
244,44383,44381,0.012707734480500221,-0.0093039246276021,1.0070042610168457,0.7383378148078918,-2.5275847911834717,-1.0029550790786743,1.9782339334487915,3.8414862155914307,0.31125858426094055,0.028026079759001732,-0.002379743382334709,-0.2430548518896103
245,44393,44391,-0.02557610534131527,-0.055159248411655426,0.959317684173584,1.7191259860992432,-4.584571838378906,-0.8431252837181091,1.9784332513809204,3.8415606021881104,0.3133900463581085,0.18863148987293243,-0.003737795865163207,-0.2439393699169159
246,44403,44401,-0.009183976799249649,-0.029310209676623344,1.0035569667816162,0.8585798740386963,-4.997504234313965,-0.36255237460136414,1.9795266389846802,3.8419876098632812,0.31364157795906067,0.21351097524166107,0.014608537778258324,-0.24372288584709167
247,44413,44411,0.001781780505552888,0.024830907583236694,1.0243580341339111,-0.16785790026187897,-4.4025044441223145,-0.5460754036903381,1.9794563055038452,3.8439064025878906,0.31396394968032837,0.3998209536075592,0.02275552786886692,-0.19455961883068085
248,44423,44421,0.024649130180478096,0.0013802532339468598,1.0019745826721191,-1.2475332021713257,-2.4595468044281006,-0.6924278140068054,1.9824293851852417,3.8465898036956787,0.31420308351516724,0.3350311517715454,0.013346784748136997,-0.13188570737838745
249,44433,44431,0.024992235004901886,-0.033473774790763855,1.0048567056655884,-2.9614739418029785,1.7607721090316772,-0.6702615022659302,1.98405921459198,3.8468003273010254,0.3146810531616211,0.3209398090839386,-0.015744417905807495,-0.13737669587135315
250,44443,44441,-0.008388315327465534,0.006643606349825859,1.0404802560806274,-2.061558246612549,2.488396167755127,-1.081555962562561,1.9853692054748535,3.8468964099884033,0.31496337056159973,0.3289838135242462,0.008990415371954441,-0.13196487724781036
251,44453,44451,-0.04719517379999161,0.07178860902786255,1.0420604944229126,-1.4637243747711182,3.3217711448669434,-0.8161693215370178,1.9861608743667603,3.8469974994659424,0.31526100635528564,0.320229709148407,-0.038462597876787186,-0.13406769931316376
252,44463,44461,-0.07227196544408798,0.13438278436660767,1.0295300483703613,0.152499258518219,2.5468034744262695,-0.7486307621002197,1.9888321161270142,3.84633469581604,0.3163400888442993,0.15315558016300201,0.006712574046105146,-0.1513891965150833
253,44473,44471,-0.07586275786161423,0.1815190315246582,1.0055807828903198,1.4753694534301758,1.4895269870758057,-0.0748901292681694,1.9897037744522095,3.845954418182373,0.31677567958831787,0.15771813690662384,-0.007348430808633566,-0.13562871515750885
254,44483,44481,-0.04256495460867882,0.20290356874465942,0.9725922346115112,0.5884813666343689,-0.1579323559999466,0.13079428672790527,1.9890697002410889,3.8467578887939453,0.3173343539237976,0.25162264704704285,0.0027541001327335835,-0.13981719315052032
255,44493,44491,0.0318223237991333,0.0456123985350132,0.9630644917488098,-0.6614871621131897,-0.8957380652427673,0.103997603058815,1.9902173280715942,3.8480870723724365,0.3144434690475464,0.20932501554489136,0.003476617159321904,-0.08435675501823425
256,44503,44501,-0.027681460604071617,0.0017836197512224317,0.9895946383476257,-1.357683777809143,-1.8394042253494263,-0.14524710178375244,1.9913288354873657,3.849804401397705,0.31470298767089844,0.25115373730659485,-0.015741700306534767,-0.058634448796510696
257,44513,44511,0.020518114790320396,0.15923550724983215,0.9649033546447754,-1.9713228940963745,-1.3133493661880493,-0.12476729601621628,1.992653727531433,3.8502957820892334,0.3149222731590271,0.3147483766078949,-0.047504790127277374,-0.029066652059555054
258,44523,44521,0.008543973788619041,0.02482510358095169,0.9567276835441589,-2.3879623413085938,-0.5532553791999817,-0.4283004105091095,1.9934805631637573,3.8501081466674805,0.316420316696167,0.36235493421554565,-0.01596699096262455,-0.04376865550875664
259,44533,44531,0.03723663464188576,0.05873144418001175,0.9759427905082703,-2.7648470401763916,0.8934751749038696,-0.7422091364860535,1.9945508241653442,3.850586175918579,0.31661927700042725,0.3899978995323181,-0.06817744672298431,-0.03697177767753601
260,44543,44541,-0.005070914048701525,-0.0789342150092125,0.9579184651374817,-3.024991035461426,2.1733124256134033,-1.3722459077835083,1.9970765113830566,3.8531792163848877,0.3167712092399597,0.31884029507637024,-0.12437968701124191,0.02563093975186348
261,44553,44551,-0.011339104734361172,-0.04315846040844917,0.9712400436401367,-1.8119391202926636,3.4622058868408203,-1.5734624862670898,1.9986389875411987,3.852731227874756,0.31682050228118896,0.22708192467689514,-0.10702628642320633,0.008309555239975452
262,44563,44561,-0.025519119575619698,0.02219184674322605,0.9927032589912415,-1.0810459852218628,3.190903425216675,-0.8695758581161499,1.9994169473648071,3.852066993713379,0.3131714165210724,0.272789865732193,-0.07677359133958817,-0.011484509333968163
263,44573,44571,0.009735998697578907,-0.05778651311993599,0.9345918297767639,-1.12559175491333,2.289947509765625,-0.5563540458679199,1.9993036985397339,3.8528099060058594,0.3130945861339569,0.3193031847476959,-0.1108606606721878,0.003987528849393129
264,44583,44581,-0.0315045602619648,0.023481739684939384,0.9405943751335144,-1.3892765045166016,1.4849820137023926,-0.618328332901001,2.00112247467041,3.8534886837005615,0.31284990906715393,0.21893803775310516,-0.14259040355682373,0.016241097822785378
265,44593,44591,-0.045200251042842865,0.10694652795791626,0.9396789073944092,-1.809643268585205,1.7106249332427979,-0.691038191318512,2.0013530254364014,3.8535189628601074,0.3110435903072357,0.2934366464614868,-0.17583312094211578,0.008338970132172108
266,44603,44601,-0.015515953302383423,0.12878234684467316,0.9342424273490906,-1.4189518690109253,1.3640081882476807,-0.12130425125360489,2.002533197402954,3.8535268306732178,0.3106139898300171,0.20215757191181183,-0.21449369192123413,0.000663651037029922
267,44613,44611,-0.01657276786863804,0.02220446988940239,0.9812906980514526,-0.6624835133552551,2.1189215183258057,-0.036350976675748825,2.002753973007202,3.852855920791626,0.3102416396141052,0.2713170647621155,-0.17186452448368073,-0.008204469457268715
268,44623,44621,0.01718032918870449,-0.018259957432746887,0.968431293964386,-1.5175998210906982,4.374284267425537,0.2635498642921448,2.0041136741638184,3.8533172607421875,0.31660839915275574,0.23318850994110107,-0.196058452129364,0.003923496231436729
269,44633,44631,0.05417000874876976,-0.018571635708212852,0.9927638173103333,-1.2699050903320312,5.1234211921691895,0.4286392629146576,2.005535840988159,3.854609251022339,0.3165047764778137,0.17194807529449463,-0.3070080280303955,0.026440462097525597
270,44643,44641,0.019040198996663094,-0.1092861145734787,1.055197834968567,-0.2819962799549103,5.655747890472412,0.0058457027189433575,2.0059614181518555,3.855564594268799,0.31644758582115173,0.17381206154823303,-0.25567054748535156,0.07691817730665207
271,44653,44651,-0.0006961822509765625,-0.06349173933267593,0.9802458882331848,1.1727592945098877,5.079725742340088,-0.15511687099933624,2.0074071884155273,3.855435848236084,0.31630781292915344,0.015686390921473503,-0.26919886469841003,0.08135820925235748
272,44663,44661,0.03193722665309906,-0.04937566816806793,0.9669514298439026,1.6488889455795288,7.514497756958008,-0.8641006946563721,2.005715847015381,3.855292320251465,0.31299611926078796,0.020472683012485504,-0.2560015320777893,0.08916307985782623
273,44673,44671,0.019385196268558502,0.12839284539222717,1.018563985824585,1.6003376245498657,1.8010574579238892,-0.2568892240524292,2.0059897899627686,3.855189800262451,0.31275269389152527,0.012522447854280472,-0.23504240810871124,0.08064154535531998
274,44683,44681,-0.01575697772204876,0.025284575298428535,1.0342522859573364,2.0998828411102295,0.22827501595020294,0.29349514842033386,2.006906032562256,3.8546230792999268,0.3124578297138214,-0.006766378413885832,-0.2100631296634674,0.11616375297307968
275,44693,44691,0.06241913139820099,0.04180847108364105,0.9698556661605835,0.7304257750511169,-2.9670844078063965,0.13395792245864868,2.00862717628479,3.8583505153656006,0.30967816710472107,-0.01140053104609251,-0.18139074742794037,0.18412992358207703
276,44703,44701,-0.054603323340415955,0.031170058995485306,1.04756760597229,-1.3919514417648315,-0.5579816699028015,-0.41109949350357056,2.010197877883911,3.859079360961914,0.30921170115470886,-0.05495009198784828,-0.17273730039596558,0.20829932391643524
277,44713,44711,-0.012141631916165352,0.02886037528514862,1.0369348526000977,-2.445267915725708,0.7961251139640808,-0.18546420335769653,2.010697364807129,3.8591115474700928,0.3089165985584259,0.040402136743068695,-0.19942723214626312,0.2110593616962433
278,44723,44721,-0.013820797204971313,0.009662672877311707,1.004464864730835,-3.755683183670044,1.7196353673934937,0.47588083148002625,2.0131590366363525,3.8598411083221436,0.3100353479385376,-0.05057471618056297,-0.2447148859500885,0.2132449597120285
279,44733,44731,-0.052426647394895554,0.08290907740592957,1.0290800333023071,-2.5921690464019775,1.9795176982879639,0.5632321238517761,2.013885021209717,3.8602938652038574,0.30981454253196716,0.0035629034973680973,-0.30945318937301636,0.2245544046163559
280,44743,44741,-0.012850931845605373,0.020064331591129303,0.988000750541687,-0.6288385391235352,3.4088823795318604,0.6057425141334534,2.0139987468719482,3.8597471714019775,0.30963364243507385,0.04730452597141266,-0.2706036865711212,0.22711439430713654
281,44753,44751,-0.029822969809174538,0.08399095386266708,1.0038247108459473,0.9220826029777527,4.533777713775635,0.9368996620178223,2.0152575969696045,3.8598015308380127,0.30937784910202026,-0.09730793535709381,-0.28010764718055725,0.25934189558029175
282,44763,44761,-0.013210234232246876,-0.009645558893680573,1.0631623268127441,2.6162617206573486,4.953916072845459,1.8222938776016235,2.015901565551758,3.861048698425293,0.30906012654304504,-0.0917859897017479,-0.3436952829360962,0.2664071321487427
283,44773,44771,0.03881904482841492,-0.07686550170183182,0.9953337907791138,3.0083301067352295,3.779221534729004,1.607315182685852,2.017864227294922,3.8608882427215576,0.30876225233078003,-0.24767406284809113,-0.2959807813167572,0.28748443722724915
284,44783,44781,-0.019172780215740204,0.039365652948617935,1.0693135261535645,3.385262966156006,2.788149833679199,1.048084020614624,2.0192246437072754,3.8610947132110596,0.30856853723526,-0.3101368546485901,-0.24020111560821533,0.31261301040649414
285,44793,44791,0.02922712080180645,-0.008998310193419456,0.995789647102356,3.4003071784973145,1.2570124864578247,1.0810530185699463,2.0199544429779053,3.860825777053833,0.310739666223526,-0.27083060145378113,-0.17874592542648315,0.32157209515571594
286,44803,44801,-0.014864577911794186,0.016034936532378197,1.0811975002288818,1.9235607385635376,-2.7187135219573975,1.6480618715286255,2.023083209991455,3.86077880859375,0.31055760383605957,-0.4994776248931885,-0.12482360750436783,0.33904513716697693
287,44813,44811,0.018183518201112747,0.005538657307624817,0.9942890405654907,0.775029718875885,-4.225437641143799,1.7074267864227295,2.023214101791382,3.861044406890869,0.3108186423778534,-0.33065029978752136,-0.09470000863075256,0.36351636052131653
288,44823,44821,0.07906986773014069,0.02192087657749653,0.9499945044517517,-1.0057047605514526,-5.939457416534424,2.118170976638794,2.022792339324951,3.8610219955444336,0.31142255663871765,-0.14935146272182465,-0.09033007174730301,0.3780955672264099
289,44833,44831,0.07695232331752777,-0.04456108808517456,0.9381216764450073,-2.8352158069610596,-5.2134690284729,2.41082763671875,2.0236501693725586,3.8609418869018555,0.31147995591163635,-0.10258844494819641,-0.11118707060813904,0.3953016996383667
290,44843,44841,0.030445411801338196,-0.2556404173374176,0.996031641960144,-1.9545007944107056,-4.177921772003174,2.696014642715454,2.023350954055786,3.861646890640259,0.3116244673728943,0.06420914083719254,-0.16094960272312164,0.41653746366500854
291,44853,44851,0.04807543382048607,-0.2721293568611145,0.9904860258102417,-1.9169580936431885,-0.7943452596664429,2.5971062183380127,2.0244808197021484,3.861102819442749,0.3107413947582245,0.045681942254304886,-0.1960722655057907,0.4420623183250427
292,44863,44861,0.02491186372935772,-0.21345806121826172,0.9972367882728577,-0.6313855051994324,2.7888259887695312,2.527308940887451,2.0268211364746094,3.8610711097717285,0.3106548488140106,-0.10129525512456894,-0.22487622499465942,0.46140167117118835
293,44873,44871,-0.01567176729440689,-0.13448749482631683,1.0033279657363892,0.8471183180809021,4.247827529907227,2.2620086669921875,2.02685284614563,3.8610870838165283,0.31068453192710876,-0.05432842671871185,-0.23289050161838531,0.48599350452423096
294,44883,44881,0.03301280364394188,-0.0584932379424572,0.9383813142776489,2.3792643547058105,5.54254150390625,2.0310728549957275,2.0277841091156006,3.8611741065979004,0.3104983866214752,-0.19231897592544556,-0.21161390841007233,0.5220838785171509
295,44893,44891,0.08513613790273666,-0.00042444063001312315,0.9362779259681702,2.601010322570801,3.996006488800049,1.8280620574951172,2.029268503189087,3.8612821102142334,0.3116053640842438,-0.33538368344306946,-0.16683603823184967,0.5465537905693054
296,44903,44901,0.10298654437065125,-0.019034141674637794,0.9902887344360352,1.6500871181488037,0.9150012731552124,1.4847506284713745,2.030134916305542,3.8608641624450684,0.3115467429161072,-0.3610624074935913,-0.12165860086679459,0.5749084949493408
297,44913,44911,0.039143744856119156,-0.01962503418326378,0.9927010536193848,0.7931439876556396,-3.753375291824341,1.6897952556610107,2.029041051864624,3.8604953289031982,0.3115350008010864,-0.2570081353187561,-0.17122206091880798,0.5498566627502441
298,44923,44921,0.02206766977906227,-0.019842414185404778,0.9924641847610474,-0.5101502537727356,-5.532803058624268,2.2749123573303223,2.0305674076080322,3.860940933227539,0.3108634054660797,-0.24335932731628418,-0.15423910319805145,0.584039568901062
299,44933,44931,-0.019351020455360413,0.03309975564479828,1.0249110460281372,-0.25109970569610596,-5.812402725219727,1.7362970113754272,2.0309648513793945,3.8613545894622803,0.31075796484947205,-0.11869584769010544,-0.15534359216690063,0.6199623346328735
300,44943,44941,-0.014224930666387081,0.0038587735034525394,1.0035219192504883,-0.2567530870437622,-4.945098400115967,1.7066683769226074,2.031419038772583,3.861518144607544,0.31064653396606445,-0.0011843884130939841,-0.1532966047525406,0.6380926966667175
301,44953,44951,-0.004892116878181696,0.04913666844367981,0.995431661605835,0.8072125911712646,-1.0628020763397217,1.8257153034210205,2.0330567359924316,3.8619110584259033,0.3092750906944275,0.00594007084146142,-0.15007463097572327,0.6671991944313049
302,44963,44961,0.03156484663486481,-0.007085495162755251,0.9758473038673401,1.6327388286590576,1.4494229555130005,1.4344356060028076,2.0347537994384766,3.861794948577881,0.3090478479862213,-0.04666168615221977,-0.1291974037885666,0.6858687996864319
303,44973,44971,-0.02311309613287449,0.03977086395025253,1.0029301643371582,2.7932040691375732,1.9027354717254639,1.5390454530715942,2.03448748588562,3.861760377883911,0.3089119791984558,0.02538195252418518,-0.0936771109700203,0.7084512710571289
304,44983,44981,-0.006936980877071619,0.016104815527796745,0.9894790649414062,2.363363742828369,4.908477783203125,1.6529098749160767,2.0375993251800537,3.861643075942993,0.3084784746170044,-0.24551711976528168,-0.0479290671646595,0.728926956653595
305,44993,44991,-0.017009420320391655,0.03754790872335434,1.015912413597107,1.4686092138290405,4.736281871795654,1.5156924724578857,2.0377309322357178,3.861599922180176,0.3052974343299866,-0.21565091609954834,-0.008298623375594616,0.7455102205276489
306,45003,45001,-0.0047949510626494884,-0.02947775274515152,0.9622757434844971,0.6282477378845215,2.574625253677368,1.1550910472869873,2.0379598140716553,3.861421585083008,0.3049486577510834,-0.18198402225971222,0.010853709653019905,0.760804295539856
307,45013,45011,-8.709673420526087e-05,-0.024746287614107132,1.034886121749878,-1.3595398664474487,1.7944256067276,1.3006019592285156,2.0385425090789795,3.8616232872009277,0.3046555817127228,-0.11809300631284714,0.01640891470015049,0.7776515483856201
308,45023,45021,-0.0008707533124834299,9.220256288244855e-06,0.9988740682601929,-2.3025922775268555,0.607823371887207,0.9645571112632751,2.040289878845215,3.8625855445861816,0.30501630902290344,-0.20924875140190125,-0.09017306566238403,0.7881370782852173
309,45033,45031,0.013523845933377743,-0.04297654330730438,0.9968260526657104,-2.586367130279541,0.19676749408245087,1.0051976442337036,2.040994882583618,3.8643906116485596,0.3046633303165436,-0.19749779999256134,-0.1195908933877945,0.8605834245681763
310,45043,45041,0.0039701275527477264,0.007519473787397146,1.0164943933486938,-1.4177584648132324,-0.3145512342453003,0.713215708732605,2.0409393310546875,3.8646767139434814,0.3044109046459198,-0.10931750386953354,-0.1518142819404602,0.8535178899765015
311,45053,45051,-0.07354892790317535,0.037766918540000916,1.020115613937378,0.4625449776649475,-0.14526237547397614,0.7490026354789734,2.0433242321014404,3.864922523498535,0.3052647113800049,-0.1764097809791565,-0.16207699477672577,0.8834809064865112
312,45063,45061,-0.045094043016433716,0.028691180050373077,1.0462095737457275,2.564652919769287,1.2068146467208862,0.7636862397193909,2.044037103652954,3.8650591373443604,0.30504781007766724,-0.16934598982334137,-0.1376330852508545,0.8930104374885559
313,45073,45071,0.04298246279358864,-0.11547864973545074,0.9927196502685547,3.362262725830078,1.611959457397461,0.7195459008216858,2.0451407432556152,3.8655545711517334,0.3048429787158966,-0.17841625213623047,-0.08541519939899445,0.9205437898635864
314,45083,45081,0.00470248656347394,-0.056120071560144424,1.0221048593521118,3.7145516872406006,1.2027660608291626,0.4868035614490509,2.0464541912078857,3.8686606884002686,0.30451732873916626,-0.11690159142017365,-0.019840246066451073,1.0469242334365845
315,45093,45091,-0.0018435799283906817,-0.043879758566617966,0.9966192841529846,3.058084487915039,0.998003363609314,-0.5149649381637573,2.0472893714904785,3.8684277534484863,0.3043178617954254,-0.12586283683776855,0.04720998555421829,1.1052765846252441
316,45103,45101,-0.018302379176020622,-0.015156413428485394,1.018862247467041,2.0631842613220215,2.1588871479034424,-0.41189029812812805,2.04813551902771,3.8692097663879395,0.3041303753852844,-0.1331588476896286,0.10154926031827927,1.0843369960784912
317,45113,45111,0.011955170892179012,-0.026953013613820076,1.0012789964675903,-0.8813873529434204,3.0100998878479004,-0.33577194809913635,2.049562931060791,3.8691623210906982,0.30388474464416504,-0.24034111201763153,0.05237594619393349,1.0524288415908813
318,45123,45121,0.0444335862994194,-0.04535021632909775,0.9705081582069397,-2.2632505893707275,2.3873627185821533,-0.3089195489883423,2.051165819168091,3.8695151805877686,0.3047420382499695,-0.3540496826171875,0.04069002345204353,1.0428913831710815
319,45133,45131,-0.008630290627479553,-0.12319793552160263,1.0614711046218872,-2.368497610092163,0.5589804649353027,-0.17058022320270538,2.050543785095215,3.8680434226989746,0.3046651780605316,-0.2881290018558502,0.00513498904183507,1.0018587112426758
320,45143,45141,0.009207988157868385,-0.030689924955368042,1.0973306894302368,-2.0890307426452637,0.028971796855330467,-0.1103389710187912,2.0502142906188965,3.8676207065582275,0.3046615719795227,-0.21145352721214294,-0.03019978664815426,0.9910394549369812
321,45153,45151,0.02590653859078884,-0.013526704162359238,1.0221384763717651,-0.5568200945854187,-1.6951028108596802,-0.2746531367301941,2.0522618293762207,3.869664192199707,0.30366650223731995,-0.2721051573753357,-0.05427034944295883,1.0529686212539673
322,45163,45161,0.06070800870656967,0.014113682322204113,0.9695259928703308,0.9407666921615601,-1.3186928033828735,-0.3520730435848236,2.054896593093872,3.8717310428619385,0.30360710620880127,-0.3366157114505768,-0.05108639970421791,1.11537504196167
323,45173,45171,0.02553083561360836,-0.02688353881239891,0.9605505466461182,2.2927372455596924,-2.6351287364959717,-0.45603010058403015,2.056001663208008,3.872131586074829,0.30357837677001953,-0.28064900636672974,-0.024543719366192818,1.1450648307800293
324,45183,45181,-0.0043350402265787125,-0.12835155427455902,1.0433140993118286,4.140044212341309,-3.0171003341674805,-0.38727909326553345,2.0566492080688477,3.8722665309906006,0.3023363947868347,-0.21810457110404968,0.02333652973175049,1.142825961112976
325,45193,45191,0.03375907987356186,-0.06165697053074837,1.0170536041259766,2.8701860904693604,-2.713718891143799,0.01849801279604435,2.057468891143799,3.87206768989563,0.3021928369998932,-0.22606444358825684,0.09321093559265137,1.1486722230911255
326,45203,45201,0.004056047182530165,0.010428118519484997,1.0186065435409546,1.4492131471633911,-1.4428024291992188,0.21080587804317474,2.0590124130249023,3.8734230995178223,0.3020370304584503,-0.23792020976543427,0.06196526810526848,1.176572561264038
327,45213,45211,0.011602050624787807,-0.020181460306048393,0.9946154356002808,0.7216122150421143,-1.7758233547210693,-0.3269015848636627,2.06026291847229,3.876380681991577,0.30200815200805664,-0.18368275463581085,0.016223179176449776,1.2685552835464478
328,45223,45221,-0.001909986836835742,-0.018697060644626617,1.0126171112060547,-0.33568769693374634,-0.47055110335350037,-1.1018139123916626,2.0602643489837646,3.8759560585021973,0.3005598485469818,-0.05489840731024742,0.11631444841623306,1.2902153730392456
329,45233,45231,-0.017395183444023132,0.023358069360256195,1.033385992050171,-1.6287552118301392,0.6468492150306702,-1.6856043338775635,2.062609910964966,3.877006769180298,0.30033156275749207,-0.19264480471611023,0.02711990661919117,1.3079596757888794
330,45243,45241,-0.02739923633635044,0.03385578840970993,1.0466641187667847,-1.3116939067840576,1.5682862997055054,-1.6416116952896118,2.0625522136688232,3.877530097961426,0.3003026843070984,-0.10371310263872147,0.00888731237500906,1.2753546237945557
331,45253,45251,0.003969923593103886,0.04702138155698776,0.9512719511985779,-2.405714273452759,2.4174554347991943,-1.6869049072265625,2.0639090538024902,3.878488540649414,0.2961774170398712,-0.1861836165189743,0.0715368464589119,1.3237512111663818
332,45263,45261,-0.05068035051226616,0.04907771572470665,1.0512111186981201,-1.3686805963516235,1.1532115936279297,-1.5310935974121094,2.0657763481140137,3.8780500888824463,0.2957771122455597,-0.27265775203704834,0.11576952785253525,1.3068885803222656
333,45273,45271,0.02147589437663555,-0.05754879117012024,0.9725702404975891,-0.5263576507568359,-0.09044232219457626,-1.5895090103149414,2.0656304359436035,3.8780157566070557,0.2955787181854248,-0.18635526299476624,0.09167450666427612,1.2941467761993408
334,45283,45281,0.002522008726373315,0.012640820816159248,1.051947832107544,0.30040839314460754,-0.9233424067497253,-1.4715663194656372,2.067481517791748,3.8778908252716064,0.2963867783546448,-0.2496299296617508,0.0829555094242096,1.2640676498413086
335,45293,45291,0.023535141721367836,-0.0659044086933136,1.0495657920837402,0.06406889110803604,-1.8623120784759521,-0.9652293920516968,2.068103790283203,3.877819538116455,0.2961926758289337,-0.2079199254512787,0.08400515466928482,1.2494803667068481
336,45303,45301,-0.014233458787202835,0.010277320630848408,0.9945489764213562,-0.1778394728899002,-1.6059260368347168,-1.0397861003875732,2.069977283477783,3.877917528152466,0.2958674728870392,-0.3012014627456665,0.08392034471035004,1.2507632970809937
337,45313,45311,0.01211607363075018,0.016413768753409386,0.9825244545936584,-0.5449679493904114,-3.2069666385650635,-1.0758994817733765,2.0696942806243896,3.8777081966400146,0.29587918519973755,-0.15113040804862976,0.07924101501703262,1.2081478834152222
338,45323,45321,-0.01674646884202957,0.04353473708033562,1.0804303884506226,-1.1906867027282715,-3.1458749771118164,-0.421053946018219,2.070596933364868,3.8773012161254883,0.29726678133010864,-0.15115952491760254,0.06608041375875473,1.196563720703125
339,45333,45331,0.022424910217523575,-0.19383478164672852,1.0233027935028076,-1.797929286956787,-2.8743207454681396,-0.4428829550743103,2.0705363750457764,3.8772289752960205,0.2973988354206085,0.00943639874458313,0.040607042610645294,1.1897351741790771
340,45343,45341,0.012635313905775547,0.034376852214336395,1.0525791645050049,-1.8493881225585938,2.4693689346313477,-1.1463768482208252,2.0720651149749756,3.877955675125122,0.29741451144218445,-0.03196080029010773,0.009066673927009106,1.20304536819458
341,45353,45351,0.07683034986257553,-0.0025943792425096035,0.9491537809371948,-2.790540933609009,7.059926986694336,-1.1963034868240356,2.0743234157562256,3.8781466484069824,0.29613471031188965,-0.19641803205013275,-0.026133984327316284,1.2005406618118286
342,45363,45361,0.04418250918388367,0.0025802829768508673,1.0129132270812988,-1.584960699081421,2.7112276554107666,-0.8669428825378418,2.0755581855773926,3.878847122192383,0.29608672857284546,-0.24045269191265106,-0.06416422128677368,1.1905299425125122
343,45373,45371,-0.010556906461715698,-0.027912482619285583,1.0240285396575928,-0.19852587580680847,0.7088955044746399,-0.8626048564910889,2.076097249984741,3.8780133724212646,0.29609450697898865,-0.23409034311771393,-0.0056855445727705956,1.1834784746170044
344,45383,45381,0.0017528242897242308,-0.07103946805000305,1.0093022584915161,1.395681381225586,-1.8719394207000732,-0.9840050935745239,2.0779192447662354,3.878096342086792,0.29531386494636536,-0.28070688247680664,-0.0048185670748353004,1.1668471097946167
345,45393,45391,-0.006241852417588234,-0.039745036512613297,0.9776739478111267,1.303187370300293,-4.745633125305176,-0.6407047510147095,2.078376531600952,3.87817120552063,0.2953336834907532,-0.20072585344314575,0.016483338549733162,1.1668509244918823
346,45403,45401,-0.0014455324271693826,0.06498435884714127,1.0057775974273682,0.9944124817848206,-7.604190349578857,-0.6934305429458618,2.0794548988342285,3.878019094467163,0.2953920364379883,-0.0734221339225769,0.0330468975007534,1.1528257131576538
347,45413,45411,0.017029745504260063,0.07476364821195602,1.0789381265640259,0.5531253218650818,-7.353992938995361,-0.13807636499404907,2.0813329219818115,3.8778398036956787,0.2969435155391693,-0.07272979617118835,0.04411991685628891,1.1175673007965088
348,45423,45421,-0.01861008256673813,0.0864514708518982,1.0821141004562378,-0.3579708933830261,-6.3662190437316895,-0.2522837519645691,2.083296537399292,3.877588987350464,0.29702964425086975,-0.06204867735505104,0.048121385276317596,1.1208218336105347
349,45433,45431,-0.14473819732666016,0.224636971950531,1.0019127130508423,-2.2350986003875732,-4.311968803405762,-0.23621413111686707,2.0823729038238525,3.87752628326416,0.2971429228782654,0.08011452108621597,0.033094339072704315,1.1065120697021484
350,45443,45441,-0.11645685881376266,0.17425987124443054,0.9754321575164795,-3.8275985717773438,-1.3490228652954102,-0.4317098557949066,2.0826642513275146,3.877676010131836,0.29744085669517517,0.1682898849248886,-0.01947975531220436,1.1139065027236938
351,45453,45451,-0.04962990805506706,0.10806547850370407,1.0065938234329224,-2.9433064460754395,1.2239071130752563,-0.31473222374916077,2.084012985229492,3.8802554607391357,0.30183976888656616,0.1279851496219635,-0.1576034426689148,1.176973819732666
352,45463,45461,0.03238376975059509,0.03489690646529198,0.9888617992401123,-1.0325790643692017,1.5542018413543701,-0.714643120765686,2.0851528644561768,3.8798635005950928,0.30230027437210083,0.052979789674282074,-0.11094143241643906,1.2550716400146484
353,45473,45471,0.007000884506851435,0.011871770024299622,1.0296944379806519,1.1621577739715576,1.804997444152832,-1.1709458827972412,2.0866146087646484,3.881723165512085,0.30330246686935425,0.1249302476644516,-0.11551813036203384,1.247270107269287
354,45483,45481,-0.0297177005559206,0.010373440571129322,1.0024815797805786,2.4992549419403076,0.9176361560821533,-1.0567348003387451,2.0890119075775146,3.8813774585723877,0.30441558361053467,-0.09899065643548965,-0.08825847506523132,1.2116152048110962
355,45493,45491,-0.05408484488725662,-0.03790200874209404,1.0412791967391968,3.7928414344787598,-0.9654666781425476,-0.601962149143219,2.088491916656494,3.881387233734131,0.3051728308200836,0.08847077190876007,-0.03714809939265251,1.2135690450668335
356,45503,45501,-0.05211494117975235,-0.026688048616051674,1.0316603183746338,3.6002440452575684,-1.0226047039031982,-0.23478934168815613,2.0898098945617676,3.8812732696533203,0.3063511848449707,0.13019829988479614,0.02882210537791252,1.2195996046066284
357,45513,45511,0.048235177993774414,-0.04371003061532974,0.962565004825592,2.389845132827759,-2.7119321823120117,-0.6104719042778015,2.0895628929138184,3.8821635246276855,0.3062754273414612,0.17561207711696625,0.08411279320716858,1.2650283575057983
358,45523,45521,0.011158070527017117,-0.04450882226228714,1.020452857017517,0.7246198058128357,-2.218440294265747,-1.1182221174240112,2.090359926223755,3.8820104598999023,0.306936651468277,0.2390369474887848,0.11464472115039825,1.2521693706512451
359,45533,45531,-0.018982334062457085,0.01282966323196888,1.0049415826797485,-1.982970118522644,-0.7902109622955322,-1.3468494415283203,2.0914692878723145,3.8836758136749268,0.3076187074184418,0.20002086460590363,0.10182792693376541,1.3201104402542114
360,45543,45541,-0.08497485518455505,-0.04856785014271736,1.0006155967712402,-4.05654239654541,0.024336304515600204,-1.6734153032302856,2.0928444862365723,3.884281873703003,0.308195561170578,0.15252819657325745,0.05103001371026039,1.3264343738555908
361,45553,45551,-0.01145931426435709,-0.0008072132477536798,0.9722692966461182,-4.964231014251709,2.188364267349243,-1.8352183103561401,2.095571756362915,3.888099193572998,0.30745774507522583,0.07384978979825974,-0.028337186202406883,1.4621751308441162
362,45563,45561,0.024814793840050697,-0.025933686643838882,0.9446035623550415,-5.375556945800781,2.60447096824646,-2.2537755966186523,2.095701217651367,3.8876163959503174,0.3080480396747589,0.13413849472999573,-0.03778940439224243,1.4491771459579468
363,45573,45571,-0.0018149062525480986,-0.03485005348920822,0.9518252611160278,-3.4572551250457764,1.3762447834014893,-2.069680690765381,2.096865653991699,3.8879683017730713,0.3085475564002991,0.12316348403692245,-0.12376890331506729,1.4127414226531982
364,45583,45581,-0.012611004523932934,-0.02055414579808712,0.9598235487937927,-1.0111140012741089,0.29650965332984924,-1.8480383157730103,2.098348379135132,3.887165069580078,0.30962073802948,0.05446089431643486,-0.08848895877599716,1.3814218044281006
365,45593,45591,0.043592389672994614,0.07579387724399567,0.9790523052215576,0.5391101241111755,0.016275011003017426,-1.4830585718154907,2.099151611328125,3.887216091156006,0.31006166338920593,0.07408589124679565,-0.100469671189785,1.3645378351211548
366,45603,45601,0.056884150952100754,0.05740343779325485,0.9893370866775513,1.3336055278778076,-1.1997593641281128,-1.864565372467041,2.099799394607544,3.888279676437378,0.310463547706604,0.1039946973323822,-0.08995986729860306,1.3971515893936157
367,45613,45611,0.03812284767627716,-0.008608311414718628,0.9427095055580139,1.093512773513794,-1.683414340019226,-2.1047160625457764,2.101179838180542,3.8888630867004395,0.30953580141067505,0.08210743218660355,-0.14613081514835358,1.3808459043502808
368,45623,45621,0.01656893454492092,-0.01610025204718113,0.9534516334533691,0.33761802315711975,-0.7459704279899597,-2.675257444381714,2.1009418964385986,3.888253688812256,0.3098815977573395,0.2175716757774353,-0.12287968397140503,1.3266552686691284
369,45633,45631,0.03603113815188408,-0.08253609389066696,0.9273629188537598,-0.29850509762763977,1.3134098052978516,-2.447319746017456,2.1019465923309326,3.8881351947784424,0.3101307153701782,0.1483510136604309,-0.11835716664791107,1.292993426322937
370,45643,45641,0.02673395909368992,-0.04662102460861206,0.9175216555595398,0.13653019070625305,2.2425615787506104,-1.638998031616211,2.1023762226104736,3.887467622756958,0.31039708852767944,0.23299244046211243,-0.03956199809908867,1.2789429426193237
371,45653,45651,0.01518969051539898,-0.003776674158871174,0.9534792304039001,0.01710440404713154,4.176286220550537,-0.883602499961853,2.103949785232544,3.8873796463012695,0.30580562353134155,0.11995737999677658,-0.04201092571020126,1.260621190071106
372,45663,45661,0.0128707867115736,-0.0009343491401523352,0.971035897731781,-0.4279814064502716,5.27360200881958,-1.4325969219207764,2.1060237884521484,3.8884055614471436,0.3054823577404022,-0.019601812586188316,-0.04798394441604614,1.2944610118865967
373,45673,45671,0.03571690246462822,-0.028344331309199333,0.9488378167152405,-0.7635596990585327,4.928980350494385,-1.817466139793396,2.106377124786377,3.888443946838379,0.3052581548690796,0.04699830338358879,-0.05619383230805397,1.3009181022644043
374,45683,45681,-0.0026299927849322557,-0.10451760143041611,1.021337628364563,-1.8979742527008057,3.562741279602051,-1.6661467552185059,2.1058239936828613,3.8877060413360596,0.30250221490859985,0.02438882365822792,-0.08965494483709335,1.209068775177002
375,45693,45691,-0.013861114159226418,-0.1792803406715393,1.0344656705856323,-2.6538617610931396,3.6683266162872314,-1.8771586418151855,2.1061618328094482,3.887314558029175,0.3020395338535309,0.0577828511595726,-0.13221454620361328,1.1929696798324585
376,45703,45701,0.013026650063693523,-0.09901782125234604,0.9874933362007141,-1.3992642164230347,5.716786861419678,-1.734993577003479,2.1077985763549805,3.8869788646698,0.30145975947380066,-0.10091723501682281,-0.1746494174003601,1.1490817070007324
377,45713,45711,-0.019052298739552498,0.006810185965150595,1.0086236000061035,0.5109450221061707,1.934922456741333,-1.4602251052856445,2.1093780994415283,3.887355327606201,0.3043190538883209,-0.1649399846792221,-0.1887412965297699,1.1393412351608276
378,45723,45721,-0.010945519432425499,0.09774596244096756,0.9664807319641113,1.1973693370819092,4.913830757141113,-0.7152696251869202,2.1095802783966064,3.888657331466675,0.3041011393070221,-0.12671855092048645,-0.1751609742641449,1.2003426551818848
379,45733,45731,0.049667201936244965,0.018188055604696274,0.948017418384552,2.2936601638793945,2.743021249771118,-0.9425114989280701,2.1110057830810547,3.8905842304229736,0.3039093315601349,-0.14293630421161652,-0.16229838132858276,1.3539592027664185
380,45743,45741,-0.012574447318911552,-0.006893159821629524,1.0452916622161865,4.5215020179748535,0.7167555689811707,-1.6447383165359497,2.112142324447632,3.892075538635254,0.30469417572021484,-0.17808879911899567,-0.12557904422283173,1.3539314270019531
381,45753,45751,0.03440847992897034,-0.33840519189834595,1.02763032913208,3.3488006591796875,0.05542455613613129,-1.7722461223602295,2.1129915714263916,3.8934340476989746,0.3044103980064392,-0.17663513123989105,-0.05115797743201256,1.419971227645874
382,45763,45761,-0.017673403024673462,-0.24434809386730194,1.054644227027893,2.102705955505371,0.5800690650939941,-2.252924680709839,2.113215446472168,3.8941900730133057,0.3042564392089844,-0.08137063682079315,-0.07050749659538269,1.4165151119232178
383,45773,45771,0.003977189771831036,-0.06904011964797974,1.0102022886276245,0.09998002648353577,2.865844964981079,-1.903564214706421,2.1150588989257812,3.8956708908081055,0.3040246367454529,-0.1544574797153473,-0.02664792723953724,1.4795968532562256
384,45783,45781,-0.03462635725736618,0.04480356350541115,1.0149731636047363,-1.3202825784683228,2.557753562927246,-2.8539490699768066,2.116004705429077,3.895770311355591,0.30530768632888794,-0.18960952758789062,-0.018279410898685455,1.5727355480194092
385,45793,45791,0.004992537200450897,-0.05138542130589485,0.9966747760772705,-2.7323782444000244,4.094668388366699,-2.9757659435272217,2.1170310974121094,3.8986101150512695,0.3053407669067383,-0.1440536230802536,-0.03725012391805649,1.555096983909607
386,45803,45801,0.007695353124290705,-0.14633503556251526,1.0265763998031616,-1.6246737241744995,3.098877191543579,-3.0855164527893066,2.11660099029541,3.8971951007843018,0.30526265501976013,-0.19723567366600037,-0.07503082603216171,1.4602398872375488
387,45813,45811,0.042676836252212524,-0.16766293346881866,0.9055756330490112,0.11124281585216522,2.6708621978759766,-2.4747049808502197,2.1167471408843994,3.8968286514282227,0.30083078145980835,-0.14768485724925995,-0.10101907700300217,1.4161739349365234
388,45823,45821,-0.009091022424399853,-0.04797333851456642,0.9954848289489746,2.6570684909820557,0.4808190166950226,-1.012290596961975,2.116889476776123,3.897071123123169,0.30054980516433716,-0.11651972681283951,-0.09700638800859451,1.3952205181121826
389,45833,45831,0.04682471230626106,-0.07834179699420929,1.043817400932312,2.7748160362243652,1.4772411584854126,-0.554006814956665,2.1184096336364746,3.8969736099243164,0.30014702677726746,-0.20751668512821198,-0.05109145864844322,1.382137417793274
390,45843,45841,0.07534158229827881,-0.13475768268108368,1.0486741065979004,2.9172990322113037,2.019899845123291,-0.5788576006889343,2.1199522018432617,3.896682024002075,0.3004595637321472,-0.3048836886882782,-0.0014128538314253092,1.3700275421142578
391,45853,45851,0.011103063821792603,-0.03563215956091881,1.0346907377243042,2.1348752975463867,3.0837326049804688,-0.6696116328239441,2.120931625366211,3.89630126953125,0.30019626021385193,-0.3191305994987488,0.045872803777456284,1.3549400568008423
392,45863,45861,0.014188205823302269,-0.04768230766057968,0.9959989786148071,-0.502149760723114,3.5387260913848877,-0.6052896976470947,2.1224870681762695,3.8965532779693604,0.2998735010623932,-0.4193398058414459,0.08304227143526077,1.3789091110229492
393,45873,45871,-0.012697705067694187,0.027733691036701202,1.0347685813903809,-2.970884084701538,2.7532715797424316,-1.0435031652450562,2.1224589347839355,3.8975424766540527,0.29978126287460327,-0.3633151054382324,-0.006192488130182028,1.3692386150360107
394,45883,45881,0.0053769913502037525,-0.0026555899530649185,1.0062077045440674,-2.984576463699341,1.0942912101745605,-0.8780097961425781,2.1224262714385986,3.8981330394744873,0.30007532238960266,-0.3004001975059509,-0.04653993621468544,1.3773512840270996
395,45893,45891,0.02772950753569603,-0.016237862408161163,0.9526246190071106,-2.5646915435791016,-2.601259231567383,-0.9208425879478455,2.1247003078460693,3.899919033050537,0.2997910678386688,-0.4491950571537018,-0.08969195932149887,1.4798836708068848
396,45903,45901,0.00869123823940754,-0.012847401201725006,1.0065503120422363,0.0992417186498642,-4.556033134460449,-0.9014682769775391,2.125009059906006,3.9000954627990723,0.299665629863739,-0.3838384747505188,-0.12135204672813416,1.4509060382843018
397,45913,45911,-0.005820738151669502,-0.06407717615365982,1.059596061706543,1.5365206003189087,-3.1835415363311768,-0.37833136320114136,2.1254210472106934,3.901214122772217,0.3013729453086853,-0.2987653315067291,-0.11622289568185806,1.5039865970611572
398,45923,45921,0.010608041658997536,-0.058235567063093185,1.0356887578964233,2.9686338901519775,-2.1707923412323,-0.7130658030509949,2.126744508743286,3.90100359916687,0.30131688714027405,-0.302621066570282,-0.08751004934310913,1.4791278839111328
399,45933,45931,-0.01293270569294691,-0.013916604220867157,1.0321300029754639,4.357773303985596,-1.9207987785339355,-0.8728845119476318,2.127501964569092,3.901048421859741,0.30132779479026794,-0.24100862443447113,-0.03082766756415367,1.4825663566589355
400,45943,45941,-0.00037613173481076956,-0.013161680661141872,1.0098830461502075,3.194873571395874,-0.49085941910743713,-1.1919163465499878,2.1281418800354004,3.9028403759002686,0.3015698790550232,-0.19907769560813904,-0.029027575626969337,1.5569003820419312
401,45953,45951,-0.07294952124357224,0.09392344206571579,1.035664677619934,1.7266299724578857,-0.0027300133369863033,-1.6301425695419312,2.130235195159912,3.902998685836792,0.3015245795249939,-0.3209032118320465,0.033516548573970795,1.5593032836914062
402,45963,45961,-0.015279837884008884,0.05188189446926117,0.9802627563476562,-0.12567101418972015,0.5400034785270691,-2.0840518474578857,2.130312442779541,3.903125762939453,0.30166369676589966,-0.22076404094696045,0.06739553064107895,1.5407145023345947
403,45973,45971,-0.0009325066348537803,0.010948115959763527,1.0357589721679688,-0.9020171165466309,-0.2756703794002533,-2.230656623840332,2.131082057952881,3.9045166969299316,0.3017256557941437,-0.21301575005054474,0.07252950221300125,1.5919432640075684
404,45983,45981,0.02528996579349041,-0.015873897820711136,0.9918658137321472,-1.181077241897583,-0.8514883518218994,-2.8527939319610596,2.1322078704833984,3.9035656452178955,0.3021872043609619,-0.26938870549201965,0.13422611355781555,1.5578116178512573
405,45993,45991,0.020076768472790718,-0.023964231833815575,0.9874189496040344,-1.911085605621338,-1.252246379852295,-2.3877999782562256,2.132229804992676,3.903782367706299,0.3022638261318207,-0.23394562304019928,0.110100656747818,1.5464391708374023
406,46003,46001,-0.016752047464251518,-0.015880659222602844,1.0198814868927002,-2.2811388969421387,-1.6716957092285156,-2.2749996185302734,2.131678581237793,3.903766393661499,0.3025025725364685,-0.11925552040338516,0.07866796106100082,1.5149104595184326
407,46013,46011,-0.0008643025648780167,0.018738828599452972,1.0122283697128296,-2.054292678833008,-0.8276199102401733,-1.6472469568252563,2.1335577964782715,3.9040117263793945,0.2987194061279297,-0.2242778092622757,0.040611837059259415,1.5010290145874023
408,46023,46021,-0.004674733150750399,0.025480858981609344,1.0388710498809814,-0.479621946811676,0.017177727073431015,-2.3294553756713867,2.1349313259124756,3.9054057598114014,0.29856833815574646,-0.26115214824676514,0.009313738904893398,1.5505791902542114
409,46033,46031,-0.025900131091475487,0.005535260774195194,1.0472859144210815,0.5991830825805664,-2.0970048904418945,-2.221177577972412,2.135439872741699,3.905078649520874,0.2985303997993469,-0.227428138256073,0.0015597788151353598,1.497061014175415
410,46043,46041,-0.007850179448723793,0.002618561265990138,1.0200824737548828,1.540128231048584,-0.8260903358459473,-2.287660837173462,2.1367900371551514,3.908123731613159,0.29904624819755554,-0.17844069004058838,-0.06375563889741898,1.603047251701355
411,46053,46051,0.00022460849140770733,-0.008718696422874928,1.0125640630722046,2.0963079929351807,-0.5604293346405029,-2.852799892425537,2.136579751968384,3.907799243927002,0.29914233088493347,-0.0731276199221611,-0.03177596628665924,1.6336125135421753
412,46063,46061,-0.0007015249575488269,0.0286259688436985,0.982441782951355,2.1041715145111084,0.8215553760528564,-2.250657558441162,2.1365253925323486,3.908146619796753,0.29924604296684265,0.027217993512749672,0.08310601860284805,1.6118857860565186
413,46073,46071,-0.05790191516280174,0.07158493995666504,1.1127172708511353,2.0433554649353027,0.9971986413002014,-2.1354451179504395,2.1388278007507324,3.9079606533050537,0.30146390199661255,-0.12623032927513123,0.11652443557977676,1.581107497215271
414,46083,46081,-0.07343646138906479,-0.03309185057878494,1.0759800672531128,0.6727916598320007,0.6756537556648254,-2.624330997467041,2.1396424770355225,3.9073433876037598,0.301658034324646,-0.12794747948646545,0.1474076211452484,1.527153730392456
415,46093,46091,-0.02426869422197342,-0.06632760167121887,1.0584497451782227,-2.2161450386047363,6.314090728759766,-1.5651906728744507,2.138946056365967,3.908165454864502,0.3019716739654541,-0.050265781581401825,0.08120382577180862,1.5305514335632324
416,46103,46101,-0.02798348478972912,0.02919769287109375,0.9976794719696045,-2.1727285385131836,1.3906620740890503,-1.1857930421829224,2.141568660736084,3.909407615661621,0.3022632598876953,-0.28543904423713684,0.053796280175447464,1.6163870096206665
417,46113,46111,-0.020179247483611107,0.1701347976922989,0.9803882241249084,-2.3860363960266113,0.20614665746688843,-1.9867132902145386,2.143362045288086,3.9107048511505127,0.2980327308177948,-0.35489118099212646,0.019191309809684753,1.6002590656280518
418,46123,46121,-0.0074012852273881435,0.11850663274526596,1.0188632011413574,-1.2461098432540894,-4.069841384887695,-2.892961263656616,2.1428091526031494,3.91233229637146,0.2983089089393616,-0.24163097143173218,-0.017034607008099556,1.6678216457366943
419,46133,46131,-0.060737162828445435,0.008747771382331848,1.0362813472747803,0.441156268119812,-6.6369948387146,-3.295959234237671,2.142587661743164,3.9124884605407715,0.2985294461250305,-0.1494753062725067,-0.028697671368718147,1.6514053344726562
420,46143,46141,-0.10163474082946777,-0.009470009244978428,0.9793355464935303,1.1134624481201172,-6.387365341186523,-3.4518301486968994,2.141836166381836,3.912637948989868,0.29739072918891907,-0.00900889653712511,-0.013952277600765228,1.6403992176055908
421,46153,46151,-0.17716990411281586,0.15881463885307312,1.0266586542129517,0.7014281153678894,-2.9268639087677,-2.7684268951416016,2.1435601711273193,3.9134654998779297,0.29746270179748535,-0.04397469013929367,0.08450596034526825,1.6964722871780396
422,46163,46161,-0.051116056740283966,0.12695182859897614,1.0050208568572998,0.2368459403514862,0.1992310732603073,-3.353909730911255,2.1442148685455322,3.914793014526367,0.29755699634552,0.02592850849032402,0.09134452044963837,1.737669825553894
423,46173,46171,-0.00828159973025322,0.08561447262763977,1.0524425506591797,-0.16022947430610657,2.962017059326172,-3.44685697555542,2.1454665660858154,3.916557788848877,0.2977883815765381,0.03432605043053627,0.016392862424254417,1.753857970237732
424,46183,46181,0.010736702010035515,-0.010551520623266697,0.9885790944099426,-0.6057842373847961,3.6952226161956787,-3.63985276222229,2.1470320224761963,3.9159083366394043,0.29786238074302673,-0.07087207585573196,0.09120965003967285,1.6744611263275146
425,46193,46191,-0.05233332887291908,0.078067846596241,0.9692902565002441,-0.8613267540931702,3.734996795654297,-3.412651300430298,2.149010419845581,3.9179792404174805,0.29791903495788574,-0.18239551782608032,0.0037528928369283676,1.7477980852127075
426,46203,46201,-0.009512387216091156,0.0283235814422369,0.9762725830078125,-1.8944034576416016,2.274109363555908,-3.337467670440674,2.1495213508605957,3.918280839920044,0.29810142517089844,-0.13264289498329163,-0.008508383296430111,1.7210865020751953
427,46213,46211,-0.015069813467562199,-0.006392608396708965,1.0068204402923584,-0.9816270470619202,-0.08721649646759033,-3.534213066101074,2.1496715545654297,3.91841721534729,0.2978481650352478,-0.06101076677441597,-0.03384007140994072,1.689413070678711
428,46223,46221,-0.03160575404763222,0.0058877854607999325,1.068433165550232,-0.07904281467199326,-2.8998680114746094,-3.5490286350250244,2.151301622390747,3.917691707611084,0.29785192012786865,-0.10960721969604492,0.029445236548781395,1.6458078622817993
429,46233,46231,-0.0302219670265913,0.02300327830016613,1.0580028295516968,1.6847079992294312,-1.83037531375885,-2.901036500930786,2.152531862258911,3.917142152786255,0.29788196086883545,-0.11984290927648544,0.10658498853445053,1.622536301612854
430,46243,46241,0.006157323718070984,0.006934852804988623,0.9867516160011292,2.018794298171997,-1.7500699758529663,-2.5163254737854004,2.1533775329589844,3.9167895317077637,0.2994484305381775,-0.06856066733598709,0.12484834343194962,1.5779669284820557
431,46253,46251,0.010184516198933125,-0.015058162622153759,1.0121678113937378,0.4215308427810669,-0.6037539839744568,-2.3621175289154053,2.155322551727295,3.916815757751465,0.29956865310668945,-0.16878364980220795,0.14211495220661163,1.5540649890899658
432,46263,46261,-0.0008416283526457846,0.10819681733846664,0.9535902738571167,-1.5816980600357056,1.7648733854293823,-2.6033806800842285,2.154386281967163,3.917696952819824,0.2998776435852051,-0.047808799892663956,0.06069934740662575,1.5529792308807373
433,46273,46271,0.012660696171224117,0.07331389933824539,0.9991167783737183,-3.0843374729156494,0.7883219718933105,-2.8971657752990723,2.153580904006958,3.9179670810699463,0.30176547169685364,-0.03714197501540184,0.03135443106293678,1.5540438890457153
434,46283,46281,-0.03420153632760048,0.02897600270807743,1.027894139289856,-2.9536025524139404,-0.40144482254981995,-2.8910064697265625,2.1535935401916504,3.917297601699829,0.30212879180908203,0.056367579847574234,0.05515158548951149,1.5202620029449463
435,46293,46291,-0.07029784470796585,0.01905197463929653,1.0449460744857788,-1.944474697113037,0.291573166847229,-2.4641222953796387,2.155850410461426,3.917358875274658,0.3024064600467682,-0.0719328373670578,0.0073341685347259045,1.4822821617126465
436,46303,46301,-0.06124930828809738,0.12881755828857422,1.0120346546173096,-0.5780187845230103,1.118751049041748,-2.1490583419799805,2.1564974784851074,3.9174141883850098,0.3027884364128113,-0.05722717195749283,-0.026585746556520462,1.4585882425308228
437,46313,46311,-0.026164595037698746,0.07498471438884735,1.0032620429992676,0.6222337484359741,1.842525839805603,-1.9759173393249512,2.1561059951782227,3.9176790714263916,0.3028154671192169,-0.05650677904486656,-0.03536587208509445,1.5040757656097412
438,46323,46321,0.03327738493680954,0.08927429467439651,0.9764406681060791,1.5294427871704102,2.5235695838928223,-2.649132251739502,2.1577041149139404,3.9183595180511475,0.30313482880592346,-0.13437773287296295,-0.026548102498054504,1.5450334548950195
439,46333,46331,0.03923766687512398,0.00483341608196497,0.9450270533561707,1.7971349954605103,-0.20122118294239044,-2.35245418548584,2.1592915058135986,3.9200406074523926,0.3034146726131439,-0.21161873638629913,-0.0012272155145183206,1.5542569160461426
440,46343,46341,0.012555278837680817,-0.031928468495607376,0.9647069573402405,0.0034820246510207653,-1.3382128477096558,-3.2087299823760986,2.1584246158599854,3.9200944900512695,0.30120140314102173,-0.08932210505008698,0.020854951813817024,1.5471733808517456
441,46353,46351,0.00833140593022108,-0.019045619294047356,0.9028398990631104,-1.2274951934814453,-2.6282827854156494,-3.3427670001983643,2.1596474647521973,3.919642448425293,0.3012907803058624,-0.11124751716852188,0.016863705590367317,1.4886783361434937
442,46363,46361,0.010467476211488247,-0.019182074815034866,0.9551724195480347,-1.8403370380401611,-3.668515682220459,-2.803830623626709,2.160001516342163,3.9199304580688477,0.30123811960220337,-0.10870467871427536,-0.005818108096718788,1.4757170677185059
443,46373,46371,-0.024598803371191025,0.04229443520307541,1.0211970806121826,-1.3772826194763184,-3.996065855026245,-2.557112693786621,2.1593923568725586,3.919560432434082,0.30053502321243286,0.05823322385549545,-0.0359707809984684,1.4458576440811157
444,46383,46381,0.016878722235560417,-0.032036490738391876,1.0560272932052612,-1.3160022497177124,-1.6388589143753052,-1.9083467721939087,2.1601691246032715,3.919769048690796,0.30035853385925293,-0.018142595887184143,-0.05961770936846733,1.441454529762268
445,46393,46391,0.07969830185174942,-0.14334028959274292,0.9960651993751526,-0.2295619249343872,0.7676674127578735,-2.1380629539489746,2.158776044845581,3.920387029647827,0.3003089129924774,0.10292665660381317,-0.07806511968374252,1.4505040645599365
446,46403,46401,0.03856360539793968,-0.06177300214767456,0.9954851865768433,0.41198697686195374,2.7338061332702637,-2.4654276371002197,2.1606712341308594,3.9217379093170166,0.30015799403190613,0.019369732588529587,-0.08089964091777802,1.4986698627471924
447,46413,46411,-0.01333790272474289,0.014484734274446964,1.003990650177002,1.199583649635315,4.072948455810547,-2.6917099952697754,2.1615025997161865,3.921703577041626,0.3000432848930359,-0.09039036184549332,-0.0719764307141304,1.4725780487060547
448,46423,46421,0.016247473657131195,-0.027421504259109497,0.9726307392120361,1.9689887762069702,3.8923346996307373,-2.4924283027648926,2.1618809700012207,3.922347068786621,0.3000614643096924,-0.05206294730305672,-0.048102036118507385,1.4803756475448608
449,46433,46431,0.05765596777200699,-0.12049221992492676,0.9871741533279419,1.725048303604126,3.301272392272949,-2.116123914718628,2.1635966300964355,3.922210931777954,0.2999076545238495,-0.16676366329193115,-0.013507714495062828,1.4742399454116821
450,46443,46441,0.06239084154367447,-0.22110901772975922,1.0245475769042969,1.4420994520187378,-1.5303248167037964,-1.7078192234039307,2.1651809215545654,3.9222421646118164,0.2998028099536896,-0.25541210174560547,0.015455922111868858,1.4435505867004395
451,46453,46451,0.0378626212477684,-0.24318525195121765,1.0571098327636719,1.2952665090560913,-4.960341453552246,-2.5467047691345215,2.164602279663086,3.9222776889801025,0.29991772770881653,-0.11813222616910934,0.037429019808769226,1.4404163360595703
452,46463,46461,0.007335089612752199,-0.04178953915834427,1.0075883865356445,0.3438517153263092,-4.271312236785889,-2.491382122039795,2.1665797233581543,3.9222724437713623,0.2997835874557495,-0.18181084096431732,0.05181356891989708,1.4143565893173218
453,46473,46471,0.05891995504498482,-0.022735128179192543,0.9458063244819641,-0.9023065567016602,-3.1543924808502197,-2.7283670902252197,2.1676461696624756,3.923326253890991,0.29915744066238403,-0.16136309504508972,-0.025693275034427643,1.4344227313995361
454,46483,46481,0.10507088154554367,-0.1161891296505928,0.9039841294288635,-1.3537204265594482,-2.8413491249084473,-2.434788942337036,2.1660799980163574,3.9236443042755127,0.2991621196269989,0.006255052518099546,-0.04003100469708443,1.4072641134262085
455,46493,46491,0.018970349803566933,-0.10033667832612991,0.9799784421920776,-0.08102782070636749,-4.496500492095947,-2.182321548461914,2.1679036617279053,3.9246857166290283,0.2989470958709717,-0.06450989842414856,-0.05419394373893738,1.4392786026000977
456,46503,46501,0.020893873646855354,-0.048698946833610535,0.9728235006332397,0.8584425449371338,-2.721266746520996,-2.3390188217163086,2.16739821434021,3.924659252166748,0.29826948046684265,0.11215368658304214,-0.045029982924461365,1.4168545007705688
457,46513,46511,-0.004800514318048954,-0.05642404779791832,1.0017859935760498,2.6056759357452393,-1.41245698928833,-1.7475814819335938,2.1676595211029053,3.924821376800537,0.2979726791381836,0.09338629990816116,-0.019437246024608612,1.4285309314727783
458,46523,46521,0.0375526025891304,-0.08062825351953506,0.9605663418769836,1.4671143293380737,1.1974986791610718,-2.178560972213745,2.169363021850586,3.926111936569214,0.2977343797683716,0.04628444463014603,0.02668146975338459,1.5118112564086914
459,46533,46531,0.008788110688328743,0.009235636331140995,1.0124200582504272,1.185441493988037,2.872703790664673,-1.9539883136749268,2.1698544025421143,3.926297187805176,0.2973391115665436,-0.029315853491425514,0.05189218744635582,1.4884194135665894
460,46543,46541,0.06537636369466782,-0.06649092584848404,0.9788790941238403,-0.01454686839133501,2.915688991546631,-2.8388006687164307,2.168557643890381,3.9260780811309814,0.2956615686416626,0.026992332190275192,0.06592569500207901,1.470533013343811
461,46553,46551,-0.006084097549319267,-0.016170859336853027,1.0117844343185425,-0.5738124847412109,1.1204315423965454,-2.649242639541626,2.1697068214416504,3.9245822429656982,0.295329749584198,0.00855000875890255,0.2152979075908661,1.3648144006729126
462,46563,46561,-0.02690538391470909,-0.004495653789490461,1.0230939388275146,-0.9041479825973511,-1.205071210861206,-2.2570855617523193,2.1697611808776855,3.9236583709716797,0.2948532998561859,-0.05898785963654518,0.18692466616630554,1.3751429319381714
463,46573,46571,-0.04619131609797478,-0.0012791845947504044,1.022660493850708,-2.9745030403137207,-0.9865825772285461,-1.6122205257415771,2.1701622009277344,3.9238221645355225,0.293592631816864,-0.014982234686613083,0.1473168581724167,1.3519760370254517
464,46583,46581,0.05799184739589691,-0.17253011465072632,1.0396664142608643,-4.036967754364014,-2.671049118041992,-2.240696907043457,2.1706862449645996,3.924344539642334,0.2931602895259857,-0.031717460602521896,0.08030972629785538,1.3958544731140137
465,46593,46591,0.019538234919309616,-0.07850661873817444,1.05967116355896,-5.085630893707275,-1.2075130939483643,-2.5076119899749756,2.170018434524536,3.9249918460845947,0.2929772436618805,0.10716777294874191,-0.0023725456558167934,1.3667001724243164
466,46603,46601,0.03178299590945244,-0.06461011618375778,0.9187853336334229,-3.45731258392334,1.3883739709854126,-2.610960006713867,2.1712088584899902,3.92602276802063,0.2924428880214691,0.06234224885702133,-0.09062197804450989,1.3415511846542358
467,46613,46611,0.027328411117196083,-0.02848629280924797,1.014962077140808,-1.9050718545913696,2.018301486968994,-2.353886842727661,2.171015501022339,3.9267067909240723,0.2922181487083435,0.14500533044338226,-0.1460884064435959,1.3838958740234375
468,46623,46621,0.049655571579933167,-0.07189252972602844,1.0773003101348877,0.6648159027099609,1.3280751705169678,-2.0094666481018066,2.1724472045898438,3.9275496006011963,0.2918907701969147,0.05860709398984909,-0.1654263138771057,1.4060580730438232
469,46633,46631,-0.0012129315873607993,-0.041206132620573044,1.0670207738876343,3.665393590927124,2.4107413291931152,-1.9457077980041504,2.173798084259033,3.9275729656219482,0.2915498614311218,-0.024607807397842407,-0.13725601136684418,1.3908603191375732
470,46643,46641,-0.0029666898772120476,-0.004313367884606123,1.026134967803955,4.009922981262207,5.230221271514893,-1.8448238372802734,2.1746180057525635,3.9276983737945557,0.29404497146606445,-0.04890301823616028,-0.07104196399450302,1.4640522003173828
471,46653,46651,-0.03193721920251846,0.13574065268039703,1.039656639099121,2.8386447429656982,5.542135715484619,-2.651386022567749,2.174914836883545,3.9298033714294434,0.2941316068172455,-0.022293629124760628,-0.0028977924957871437,1.5301048755645752
472,46663,46661,0.03290693461894989,0.09731558710336685,0.9564192891120911,0.22014647722244263,1.8792263269424438,-3.4480016231536865,2.1775407791137695,3.932161331176758,0.29410770535469055,-0.2143368273973465,0.040569089353084564,1.6266638040542603
473,46673,46671,0.026769204065203667,0.01656460389494896,1.0211434364318848,-1.900699496269226,-1.7313472032546997,-3.861835479736328,2.1783487796783447,3.9324934482574463,0.2934057414531708,-0.20150971412658691,0.03897399082779884,1.6095999479293823
474,46683,46681,-0.04463021829724312,0.10967981815338135,1.003090739250183,-1.8505759239196777,-4.801713466644287,-3.8871634006500244,2.1784138679504395,3.933605194091797,0.29327070713043213,-0.2163163423538208,-0.07756750285625458,1.5593692064285278
475,46693,46691,-0.032363638281822205,0.05560231953859329,0.9961588382720947,-1.9565317630767822,-5.275915622711182,-2.7933051586151123,2.1800472736358643,3.933371067047119,0.2931104302406311,-0.2525521516799927,-0.10296867042779922,1.6095446348190308
476,46703,46701,-0.038722600787878036,0.02107691392302513,1.0762851238250732,-1.7234249114990234,-4.658352851867676,-2.783118963241577,2.1797306537628174,3.934769630432129,0.2942655384540558,-0.04588408023118973,-0.0559927336871624,1.6579358577728271
