,timestamp_start,timestamp_end,acc.x,acc.y,acc.z,gyro.x,gyro.y,gyro.z,stateEstimate.x,stateEstimate.y,stateEstimate.z,stabilizer.pitch,stabilizer.roll,stabilizer.yaw
0,27028,27026,0.0016922339564189315,-0.09952118247747421,0.9366717338562012,-0.7272300720214844,-9.48072338104248,1.4301445484161377,1.8477307558059692,3.7904248237609863,0.16595718264579773,0.9506673812866211,-0.9107588529586792,2.091839075088501
1,27038,27036,0.03455604612827301,-0.05751677602529526,0.9207590222358704,4.2607221603393555,-9.707365989685059,1.9934598207473755,1.8487955331802368,3.790653705596924,0.16840367019176483,0.9410616755485535,-0.9405465722084045,2.111947774887085
2,27048,27046,0.05431324243545532,0.0012152384733781219,0.9864281415939331,8.493133544921875,-10.862181663513184,2.1018130779266357,1.8484171628952026,3.794257402420044,0.17118892073631287,1.0906996726989746,-0.8210155367851257,2.1239240169525146
3,27058,27056,0.03130593150854111,-0.001751089352183044,0.9868663549423218,11.405571937561035,-11.68519401550293,2.2382102012634277,1.848191499710083,3.7951622009277344,0.17442654073238373,1.180994987487793,-0.7129563689231873,2.1445162296295166
4,27068,27066,-4.0626051486469805e-05,-0.023534903302788734,0.9731786251068115,10.571932792663574,-10.818122863769531,2.7197015285491943,1.8480689525604248,3.794185161590576,0.17705737054347992,1.4961936473846436,-0.5638663172721863,2.1554863452911377
5,27078,27076,-0.03846708685159683,0.08254267275333405,0.9929112195968628,7.839550495147705,-9.494987487792969,2.839247941970825,1.848436713218689,3.798370599746704,0.17952857911586761,1.7067521810531616,-0.5640043616294861,2.19804310798645
6,27088,27086,-0.0006658487836830318,0.013907902874052525,0.9758757948875427,4.560824871063232,-5.0323805809021,2.9521493911743164,1.8497661352157593,3.7994959354400635,0.1809966117143631,1.8581390380859375,-0.5227044820785522,2.232060670852661
7,27098,27096,-0.007676160428673029,0.1145552322268486,0.9514950513839722,0.48006367683410645,0.36551761627197266,2.591747760772705,1.8501262664794922,3.7982053756713867,0.1834218055009842,1.9831054210662842,-0.24669606983661652,2.2185237407684326
8,27108,27106,-0.012807102873921394,0.05279793590307236,0.9930200576782227,-2.5440280437469482,5.2626729011535645,2.6493308544158936,1.85141921043396,3.799259662628174,0.18576356768608093,2.0818941593170166,-0.2743810713291168,2.247789144515991
9,27118,27116,-0.0006816159002482891,-0.03375191614031792,1.0010991096496582,-3.6034419536590576,9.840560913085938,2.9046406745910645,1.8517875671386719,3.798494577407837,0.18806353211402893,2.017643451690674,-0.12933745980262756,2.2412822246551514
10,27128,27126,-0.030137933790683746,-0.02327287197113037,1.0045933723449707,-3.8611488342285156,11.663125991821289,2.6080269813537598,1.852643370628357,3.7983760833740234,0.1918095052242279,1.9025646448135376,-0.23387140035629272,2.285067081451416
11,27138,27136,-0.053616270422935486,-0.02583910897374153,0.9892250895500183,-5.999373912811279,12.806349754333496,2.9798970222473145,1.8535842895507812,3.802424430847168,0.19453564286231995,1.7625508308410645,-0.5544698238372803,2.3872108459472656
12,27148,27146,-0.07789759337902069,0.058258604258298874,0.9671030640602112,-4.741344928741455,11.490774154663086,2.2344231605529785,1.8574892282485962,3.8056583404541016,0.19696716964244843,0.9104674458503723,-0.9863325953483582,2.514050006866455
13,27158,27156,0.023477796465158463,-0.06016624718904495,0.9891794919967651,-3.016878366470337,8.72666072845459,2.145500421524048,1.8581163883209229,3.806218385696411,0.1983112245798111,0.9343161582946777,-1.005495309829712,2.528404474258423
14,27168,27166,0.07301411032676697,-0.04689729958772659,1.016953706741333,5.0185370445251465,-0.00978231430053711,2.643749237060547,1.8576462268829346,3.8064608573913574,0.20130378007888794,0.9913886785507202,-0.9150227904319763,2.519836664199829
15,27178,27176,0.02416568621993065,-0.04470435157418251,1.0424116849899292,12.57614803314209,-7.764376640319824,3.2332069873809814,1.8582271337509155,3.8055224418640137,0.2040831446647644,1.0819731950759888,-0.7279233336448669,2.5140507221221924
16,27188,27186,0.06122725456953049,-0.07328661531209946,0.9069355130195618,18.32902717590332,-9.550451278686523,3.277987241744995,1.8574234247207642,3.8056869506835938,0.20475175976753235,1.2719531059265137,-0.5085956454277039,2.52388596534729
17,27198,27196,0.03755255043506622,-0.06935939192771912,0.8659681677818298,17.158300399780273,-13.127763748168945,4.403651714324951,1.8574820756912231,3.805121421813965,0.20703168213367462,1.4122482538223267,-0.29471907019615173,2.547961950302124
18,27208,27206,0.053864359855651855,-0.07920640707015991,0.8600881695747375,12.931577682495117,-9.320358276367188,4.196982383728027,1.8579106330871582,3.805690288543701,0.2093162089586258,1.4821856021881104,-0.1613798588514328,2.596412181854248
19,27218,27216,0.06641070544719696,-0.13170775771141052,0.9027271866798401,6.273746490478516,-3.7177884578704834,4.1811747550964355,1.8595813512802124,3.8067727088928223,0.21036317944526672,1.3615517616271973,-0.09838248044252396,2.6596879959106445
20,27228,27226,0.030350683256983757,-0.1870121955871582,0.992339015007019,-0.20347578823566437,3.025503635406494,3.634655714035034,1.8601001501083374,3.806912899017334,0.21230089664459229,1.4799590110778809,-0.058142390102148056,2.7080512046813965
21,27238,27236,-0.03903770074248314,-0.1417543888092041,1.056257724761963,-3.085395336151123,7.595650672912598,3.130315065383911,1.8594237565994263,3.806668281555176,0.21418805420398712,1.5117875337600708,0.0401717908680439,2.7344233989715576
22,27248,27246,-0.04161303862929344,-0.10144416242837906,0.9995988607406616,-5.139773368835449,10.096415519714355,3.0293846130371094,1.8597700595855713,3.806626796722412,0.21602974832057953,1.4738879203796387,0.00438499404117465,2.771359443664551
23,27258,27256,-0.05771980062127113,0.04177858680486679,0.9666749835014343,-4.331360340118408,10.133611679077148,3.042863607406616,1.8603515625,3.804835081100464,0.21757636964321136,1.3855550289154053,0.16498373448848724,2.769907236099243
24,27268,27266,0.034991584718227386,-0.049990322440862656,0.9641174077987671,-3.007115602493286,8.921424865722656,3.5910818576812744,1.8608347177505493,3.8093698024749756,0.21970054507255554,1.4135993719100952,-0.19778601825237274,2.86006760597229
25,27278,27276,0.06475290656089783,-0.03551505506038666,1.0197829008102417,0.20847798883914948,5.346638202667236,3.4053688049316406,1.862411618232727,3.8095450401306152,0.2216053456068039,1.1492022275924683,-0.2159971445798874,2.8883509635925293
26,27288,27286,0.01447294745594263,-0.02946537360548973,1.012393832206726,4.726551532745361,1.864434838294983,3.774451732635498,1.8573510646820068,3.810239315032959,0.22313794493675232,1.748603105545044,-0.26057928800582886,2.9428083896636963
27,27298,27296,-0.015885476022958755,-0.042193084955215454,0.974498987197876,8.711926460266113,0.4124258756637573,3.5542402267456055,1.8675634860992432,3.822282075881958,0.22736045718193054,0.30043697357177734,-1.6614772081375122,3.15828013420105
28,27308,27306,-0.007972687482833862,-0.024612480774521828,0.9120897650718689,12.361042022705078,3.0375816822052,2.9343783855438232,1.8678609132766724,3.821406841278076,0.23175203800201416,0.4152199327945709,-1.2938299179077148,3.1579482555389404
29,27318,27316,-0.02066350169479847,0.029728196561336517,0.99878990650177,22.465354919433594,0.9157712459564209,3.444411039352417,1.8675609827041626,3.8206253051757812,0.23192964494228363,0.49505507946014404,-0.9487687349319458,3.1611104011535645
30,27328,27326,0.02313399314880371,-0.0795208290219307,1.0001171827316284,32.78604507446289,-4.593454837799072,3.2361788749694824,1.8673419952392578,3.820420742034912,0.2344830483198166,0.6741132736206055,-0.6345529556274414,3.1768321990966797
31,27338,27336,-0.0020963195711374283,-0.0839177668094635,1.0540955066680908,37.52113342285156,-9.191108703613281,4.180727005004883,1.866853952407837,3.819777727127075,0.23719274997711182,0.9169968962669373,-0.04059446603059769,3.1838278770446777
32,27348,27346,0.01840960793197155,-0.08137091249227524,0.9841182231903076,36.49354934692383,-11.182618141174316,4.0721306800842285,1.8668286800384521,3.818056106567383,0.2393537312746048,1.135535478591919,0.6031832695007324,3.202180862426758
33,27358,27356,0.01149800419807434,-0.03360869362950325,0.9482638835906982,28.98805809020996,-9.309292793273926,4.309011459350586,1.8651471138000488,3.8198277950286865,0.23983952403068542,1.4258012771606445,0.8197173476219177,3.2525715827941895
34,27368,27366,0.050820495933294296,0.06211483106017113,0.93665611743927,12.679841995239258,-5.516417503356934,3.3172478675842285,1.8653405904769897,3.819213390350342,0.24171988666057587,1.4922772645950317,1.3571721315383911,3.2734882831573486
35,27378,27376,0.004597565159201622,0.030425604432821274,0.9427121877670288,-1.4877935647964478,-0.21824924647808075,2.8338778018951416,1.8639329671859741,3.819552421569824,0.2434042990207672,1.6387155055999756,1.5581250190734863,3.311476707458496
36,27388,27386,-0.05194595828652382,0.023124950006604195,1.0058684349060059,-15.557814598083496,5.820149898529053,2.6685965061187744,1.8632360696792603,3.8198392391204834,0.24393388628959656,1.695873498916626,1.6468467712402344,3.337019920349121
37,27398,27396,0.019506750628352165,-0.10800451785326004,0.9960918426513672,-21.517871856689453,10.634305953979492,2.4019360542297363,1.8626089096069336,3.8204588890075684,0.24564878642559052,1.5845422744750977,1.5171185731887817,3.356872320175171
38,27408,27406,0.06127099320292473,-0.10844075679779053,0.9039183259010315,-24.151273727416992,15.976705551147461,2.173783540725708,1.863338589668274,3.820828914642334,0.24736864864826202,1.447203278541565,1.3409368991851807,3.373687744140625
39,27418,27416,0.07791172713041306,-0.04771987348794937,0.9338268637657166,-20.975156784057617,17.648799896240234,2.3896517753601074,1.8611927032470703,3.819242000579834,0.2467840611934662,1.5249277353286743,1.2763025760650635,3.4123387336730957
40,27428,27426,0.10929646342992783,-0.0940178781747818,0.9833482503890991,-14.33405590057373,15.976119041442871,2.0858676433563232,1.859971046447754,3.8194432258605957,0.2480405569076538,1.5541393756866455,1.0119656324386597,3.4793262481689453
41,27438,27436,0.01429915614426136,-0.014705660752952099,0.9900886416435242,-7.161981105804443,14.366508483886719,1.925153136253357,1.8600332736968994,3.819401979446411,0.24943935871124268,1.357508659362793,0.8613020181655884,3.500916004180908
42,27448,27446,0.07419273257255554,-0.10726270079612732,0.9422020316123962,-0.5052379965782166,13.536506652832031,2.175987720489502,1.8613718748092651,3.818838596343994,0.2507067620754242,1.2584911584854126,0.9017375111579895,3.515847682952881
43,27458,27456,0.04739640653133392,-0.09664154052734375,0.9777278304100037,3.7053301334381104,12.953357696533203,2.242737293243408,1.8613803386688232,3.8178164958953857,0.2510419487953186,1.083776593208313,1.031173825263977,3.515507459640503
44,27468,27466,0.05329374596476555,-0.10888279974460602,0.9065572619438171,3.7168705463409424,12.60152530670166,2.5476489067077637,1.8606376647949219,3.817884683609009,0.25222471356391907,0.9991289973258972,1.0510624647140503,3.5474400520324707
45,27478,27476,0.04794510453939438,-0.12553991377353668,0.9626632332801819,-0.5173687934875488,13.544431686401367,2.4881505966186523,1.860003113746643,3.817728042602539,0.25304079055786133,1.0665502548217773,1.2150229215621948,3.594425678253174
46,27488,27486,0.041202008724212646,-0.18880698084831238,1.012274980545044,-7.261167049407959,14.749295234680176,2.4386637210845947,1.8608100414276123,3.8189783096313477,0.2546215057373047,0.8103839159011841,1.1413943767547607,3.6102511882781982
47,27498,27496,0.020785201340913773,-0.16222260892391205,1.028547763824463,-13.44845199584961,18.002824783325195,2.3778514862060547,1.8602914810180664,3.818053722381592,0.2554042935371399,0.7934720516204834,1.282713532447815,3.646204948425293
48,27508,27506,0.01116864662617445,-0.024141399189829826,0.9927504658699036,-19.692106246948242,20.35077667236328,2.305406093597412,1.8598757982254028,3.817869186401367,0.25657108426094055,0.546064555644989,1.2109832763671875,3.6556289196014404
49,27518,27516,0.04987183213233948,-0.11387689411640167,1.021202564239502,-22.71087646484375,21.103984832763672,2.399338960647583,1.8605023622512817,3.8201892375946045,0.25928908586502075,0.3193418085575104,0.8753337264060974,3.6851418018341064
50,27528,27526,0.029580626636743546,0.016209881752729416,0.9230964183807373,-22.891244888305664,16.930734634399414,2.7217609882354736,1.8596405982971191,3.8179829120635986,0.260324627161026,0.17866113781929016,0.8923408389091492,3.7186906337738037
51,27538,27536,-0.008623538538813591,-0.011014987714588642,1.0142673254013062,-20.17401695251465,12.214422225952148,2.7246367931365967,1.8606269359588623,3.81999135017395,0.26175281405448914,-0.16564472019672394,0.4945732653141022,3.7223281860351562
52,27548,27546,0.009939809329807758,-0.04580475762486458,0.99263995885849,-17.058147430419922,13.966788291931152,2.3753693103790283,1.8606886863708496,3.821293354034424,0.2609303295612335,-0.2785607874393463,0.2332543283700943,3.7570626735687256
53,27558,27556,0.09703849256038666,-0.1484520435333252,1.0014532804489136,-12.48939037322998,11.586274147033691,2.080170154571533,1.8609527349472046,3.819169044494629,0.2619030177593231,-0.48343425989151,0.25658515095710754,3.777026414871216
54,27568,27566,0.034617967903614044,-0.06724639236927032,0.9947126507759094,-7.141430377960205,7.497824192047119,2.2859079837799072,1.8612501621246338,3.819535732269287,0.2629367709159851,-0.6293872594833374,0.031584978103637695,3.796135187149048
55,27578,27576,0.010247478261590004,-0.004370551090687513,0.9931058287620544,-4.726692199707031,4.744152545928955,2.243980884552002,1.8601222038269043,3.8189876079559326,0.2639284133911133,-0.6900390982627869,-0.02299387939274311,3.8250060081481934
56,27588,27586,0.001859571086242795,-0.0014953471254557371,1.0000585317611694,-4.031365871429443,1.9079935550689697,1.472656488418579,1.8597700595855713,3.8183090686798096,0.2645740807056427,-0.7796363234519958,-0.03779286891222,3.8478281497955322
57,27598,27596,0.03237114101648331,-0.025933725759387016,0.9711658954620361,-4.755612850189209,1.1572597026824951,1.2530046701431274,1.8581817150115967,3.8170926570892334,0.2654975652694702,-0.670744776725769,-0.041957464069128036,3.882735252380371
58,27608,27606,-0.016926497220993042,0.017391514033079147,1.0268816947937012,-7.202661037445068,1.5975744724273682,1.046726107597351,1.8573347330093384,3.817350149154663,0.2665126919746399,-0.7151726484298706,-0.14514395594596863,3.8842523097991943
59,27618,27616,0.0067992983385920525,-0.029352862387895584,0.9701139330863953,-9.683987617492676,0.9494689106941223,0.6160367131233215,1.8581840991973877,3.8171331882476807,0.26791509985923767,-0.7649227380752563,-0.12501437962055206,3.910146474838257
60,27628,27626,-0.023013949394226074,-0.007936712354421616,0.9997032880783081,-12.605840682983398,5.600445747375488,0.6290749907493591,1.858414649963379,3.8171470165252686,0.26895710825920105,-0.9026433825492859,-0.23438990116119385,3.9087066650390625
61,27638,27636,-0.003139507956802845,-0.009717524982988834,0.9822404384613037,-14.973271369934082,6.27617883682251,0.6316375732421875,1.857326626777649,3.819875717163086,0.2700282335281372,-0.8351243138313293,-0.5400158762931824,3.8882150650024414
62,27648,27646,0.012389388866722584,-0.013207864947617054,0.9922036528587341,-14.056085586547852,6.287492275238037,0.4662138521671295,1.8580526113510132,3.8166303634643555,0.2726370096206665,-1.033996820449829,-0.39040493965148926,3.9428322315216064
63,27658,27656,0.04743189737200737,-0.046765394508838654,0.9747203588485718,-12.67132568359375,5.811415195465088,-0.4370115101337433,1.8588706254959106,3.818067789077759,0.2737593352794647,-1.236521601676941,-0.6593031883239746,3.9195661544799805
64,27668,27666,0.020048759877681732,-0.09210864454507828,1.0499300956726074,-11.142516136169434,2.35387921333313,-0.19712461531162262,1.8580913543701172,3.817803144454956,0.27480214834213257,-1.239688515663147,-0.7355629205703735,3.9305055141448975
65,27678,27676,-0.0066382307559251785,-0.04771944135427475,1.0355879068374634,-8.028181076049805,-1.7716039419174194,-0.24476483464241028,1.8562030792236328,3.8183677196502686,0.2759062349796295,-1.1638764142990112,-0.930074155330658,3.9099748134613037
66,27688,27686,0.018084019422531128,-0.04113383963704109,0.9606780409812927,-6.169230937957764,-5.418698310852051,0.01911635510623455,1.8564380407333374,3.819183588027954,0.2786870002746582,-1.1953924894332886,-0.9889172911643982,3.914686918258667
67,27698,27696,0.02369513362646103,-0.025182276964187622,0.9863097071647644,-2.7856080532073975,-4.053045272827148,-0.6539385914802551,1.8565025329589844,3.8181605339050293,0.2798537015914917,-1.2169785499572754,-1.0131784677505493,3.927316665649414
68,27708,27706,0.08109108358621597,-0.061422690749168396,0.974590003490448,-1.6158783435821533,-3.082399368286133,-0.47664669156074524,1.8567161560058594,3.819812059402466,0.28117382526397705,-1.2444002628326416,-1.163277268409729,3.8983004093170166
69,27718,27716,0.059948038309812546,-0.128941148519516,0.9751478433609009,-1.9377530813217163,-3.1434199810028076,-0.8888489007949829,1.8576276302337646,3.820431709289551,0.2818838953971863,-1.2556719779968262,-1.1937150955200195,3.8989241123199463
70,27728,27726,0.025457749143242836,-0.11156813055276871,0.9414085149765015,-1.6284334659576416,-3.3404757976531982,-0.9303968548774719,1.857122540473938,3.8201043605804443,0.28296416997909546,-1.1697487831115723,-1.21394944190979,3.883823871612549
71,27738,27736,-0.0025354335084557533,-0.03643786162137985,0.9592298865318298,-0.015771785750985146,-5.371965408325195,-1.2655696868896484,1.8566839694976807,3.820009469985962,0.2840261161327362,-1.1569123268127441,-1.224596619606018,3.8772549629211426
72,27748,27746,0.041066400706768036,-0.08257872611284256,0.9721260666847229,-0.49451500177383423,-4.598776340484619,-0.7365292906761169,1.8570624589920044,3.8186302185058594,0.2827022969722748,-1.1235151290893555,-1.1445152759552002,3.8933236598968506
73,27758,27756,0.0661773607134819,-0.14384163916110992,1.0356932878494263,-1.0434643030166626,-3.7791030406951904,-1.2619800567626953,1.8576841354370117,3.8181686401367188,0.28352880477905273,-1.1402487754821777,-1.146438717842102,3.898973226547241
74,27768,27766,0.04296734184026718,-0.08083150535821915,0.9495570659637451,-2.0877938270568848,-3.007075309753418,-0.7135767340660095,1.8575356006622314,3.8188486099243164,0.28436440229415894,-1.088216781616211,-1.2335360050201416,3.8694496154785156
75,27778,27776,-0.008552939631044865,-0.01832473836839199,0.9537144899368286,-2.4369499683380127,-2.1357080936431885,-0.5753527879714966,1.8570516109466553,3.8188159465789795,0.2851928472518921,-1.0516581535339355,-1.246297836303711,3.8630571365356445
76,27788,27786,0.06475365906953812,-0.08099793642759323,0.8520087599754333,-2.5722928047180176,-4.952345371246338,-0.5857715606689453,1.8568651676177979,3.8200137615203857,0.28689324855804443,-1.0508886575698853,-1.3452484607696533,3.8410496711730957
77,27798,27796,0.0658111646771431,-0.13182055950164795,0.897018551826477,-1.882624864578247,-7.291321754455566,-0.8895481824874878,1.8566648960113525,3.818589687347412,0.2876416742801666,-1.0014350414276123,-1.2824102640151978,3.855478048324585
78,27808,27806,-0.04048644378781319,-0.08902481198310852,1.058791995048523,0.001796859665773809,-7.319734573364258,-1.193403720855713,1.8563660383224487,3.8196723461151123,0.2882777750492096,-0.8799245357513428,-1.3625091314315796,3.8267946243286133
79,27818,27816,0.03149397298693657,-0.08639448881149292,0.9533271193504333,1.1097698211669922,-8.339153289794922,-1.780541181564331,1.8575046062469482,3.819300413131714,0.2894175946712494,-0.8350303769111633,-1.3244432210922241,3.837232828140259
80,27828,27826,-0.11536599695682526,0.1216290220618248,1.001881718635559,2.7572708129882812,-5.287317752838135,-1.3534992933273315,1.8574329614639282,3.8206124305725098,0.2900855541229248,-0.759919285774231,-1.3314926624298096,3.8206236362457275
81,27838,27836,-0.06631650030612946,0.17250394821166992,0.973788321018219,2.234083652496338,-3.3944039344787598,-1.5409785509109497,1.8571933507919312,3.8211770057678223,0.29068177938461304,-0.6568613052368164,-1.3201186656951904,3.799379587173462
82,27848,27846,-0.015673233196139336,0.12560397386550903,0.9990619421005249,2.1657042503356934,-2.420335531234741,-1.682098627090454,1.856683611869812,3.821746826171875,0.290822833776474,-0.6128211617469788,-1.3165298700332642,3.7816407680511475
83,27858,27856,0.060233280062675476,-0.003217369085177779,0.981839120388031,2.2219340801239014,-1.764265537261963,-1.5428123474121094,1.8564095497131348,3.822932243347168,0.2913728356361389,-0.584381639957428,-1.3110145330429077,3.7611334323883057
84,27868,27866,-0.04143808037042618,0.06023193150758743,0.960628092288971,3.3518283367156982,-3.0111260414123535,-1.697794795036316,1.8563021421432495,3.8240272998809814,0.2918955087661743,-0.5551526546478271,-1.3666664361953735,3.72741961479187
85,27878,27876,-0.07852272689342499,0.10665002465248108,0.957085132598877,3.001826047897339,-3.4385948181152344,-2.1688215732574463,1.8568369150161743,3.8244357109069824,0.29061076045036316,-0.5974469184875488,-1.3300672769546509,3.7198574542999268
86,27888,27886,-0.04682953655719757,0.10959950089454651,1.0000380277633667,4.412529945373535,-4.329680442810059,-2.1563024520874023,1.8565751314163208,3.8242175579071045,0.29097607731819153,-0.5435900688171387,-1.2933757305145264,3.694967269897461
87,27898,27896,0.005035675596445799,-0.01919044740498066,0.9734015464782715,5.046268939971924,-4.475655555725098,-2.115358591079712,1.8567829132080078,3.8238589763641357,0.29130032658576965,-0.5494764447212219,-1.2306658029556274,3.6878468990325928
88,27908,27906,-0.030936608090996742,0.061194851994514465,1.0082694292068481,6.271061420440674,-5.7700886726379395,-2.099644422531128,1.8559131622314453,3.8237733840942383,0.2916657030582428,-0.45003601908683777,-1.147842526435852,3.6645636558532715
89,27918,27916,-0.044392067939043045,0.16265016794204712,0.9512510299682617,5.915195941925049,-5.346752643585205,-1.7751837968826294,1.855760097503662,3.82327938079834,0.29348117113113403,-0.35594215989112854,-1.0473428964614868,3.6451215744018555
90,27928,27926,-0.03584474325180054,0.19090279936790466,0.9417205452919006,4.204075813293457,-4.7526535987854,-1.9483988285064697,1.8555328845977783,3.823431968688965,0.2938922643661499,-0.3031162619590759,-0.9651515483856201,3.6265869140625
91,27938,27936,0.005855618044734001,0.05679916590452194,1.0048741102218628,4.277610778808594,-3.505303144454956,-1.9602642059326172,1.8573004007339478,3.822990894317627,0.2943416237831116,-0.4121137857437134,-0.9114285111427307,3.6305949687957764
92,27948,27946,-0.042439453303813934,0.008295421488583088,1.0962249040603638,2.88124680519104,-2.8248393535614014,-2.191695213317871,1.8568825721740723,3.8230574131011963,0.2923497259616852,-0.3362632095813751,-0.8675013780593872,3.604989767074585
93,27958,27956,-0.06834112852811813,0.08564501255750656,1.068912148475647,1.7943423986434937,-2.7689406871795654,-1.641727089881897,1.8579986095428467,3.8245580196380615,0.2926046848297119,-0.3953167200088501,-0.9767190217971802,3.5819613933563232
94,27968,27966,-0.02609432116150856,0.17446181178092957,0.9766859412193298,3.637434482574463,-3.600543975830078,-1.4647483825683594,1.8585423231124878,3.824300527572632,0.2929547429084778,-0.3143201768398285,-0.923940896987915,3.561983823776245
95,27978,27976,-0.02325347624719143,0.27375707030296326,0.960419774055481,3.4232664108276367,-4.546559810638428,-1.2079805135726929,1.8589539527893066,3.824885606765747,0.29181480407714844,-0.26062753796577454,-0.9333342909812927,3.538078546524048
96,27988,27986,0.008041207678616047,0.011836530640721321,0.9741568565368652,5.624206066131592,-7.936230182647705,-1.0965038537979126,1.858350396156311,3.8257534503936768,0.2920061945915222,-0.1725543737411499,-0.9313766956329346,3.5147483348846436
97,27998,27996,-0.05209195241332054,0.020240064710378647,1.0111644268035889,5.681631088256836,-7.815960884094238,-0.9660524725914001,1.8588999509811401,3.825845241546631,0.2922247052192688,-0.17141865193843842,-0.8193987607955933,3.520160436630249
98,28008,28006,-0.08651873469352722,0.10489460080862045,1.014379620552063,6.317351818084717,-7.336207866668701,-1.2566789388656616,1.8591349124908447,3.825563430786133,0.2923929989337921,-0.07809095829725266,-0.7012178897857666,3.512577533721924
99,28018,28016,-0.02105424366891384,0.09587674587965012,1.0057573318481445,6.266901969909668,-6.272121429443359,-1.51034677028656,1.8586227893829346,3.826636552810669,0.29523980617523193,0.07373165339231491,-0.7345907092094421,3.486812114715576
100,28028,28026,-0.02955862507224083,-0.0010279162088409066,0.9920165538787842,5.40579891204834,-3.633812189102173,-1.8888100385665894,1.858187198638916,3.827085256576538,0.29560065269470215,0.2009028196334839,-0.6134752035140991,3.4750754833221436
101,28038,28036,-0.024971596896648407,-0.008829224854707718,0.9620351791381836,5.183228492736816,-4.883142471313477,-1.712465524673462,1.860076904296875,3.828226327896118,0.29601791501045227,0.07729434221982956,-0.6493672728538513,3.467310667037964
102,28048,28046,-0.04859257489442825,0.06224370747804642,0.9375326037406921,4.911884784698486,-3.381504535675049,-1.6457161903381348,1.8596774339675903,3.829509735107422,0.295840859413147,0.17966918647289276,-0.6796059608459473,3.4392573833465576
103,28058,28056,-0.04428710415959358,0.07039844244718552,1.0307917594909668,3.3287534713745117,1.5908443927764893,-1.594588041305542,1.8594229221343994,3.8293957710266113,0.2961050271987915,0.2507821321487427,-0.5718430876731873,3.422213554382324
104,28068,28066,-0.021937958896160126,0.02210751548409462,1.1003552675247192,4.673646926879883,8.831518173217773,-1.7178281545639038,1.8595507144927979,3.8286404609680176,0.2963332235813141,0.1907852739095688,-0.47922423481941223,3.4147000312805176
105,28078,28076,-0.02744545415043831,0.003243256825953722,1.040237307548523,6.415013790130615,15.739232063293457,-1.1908621788024902,1.858388900756836,3.829435110092163,0.29642897844314575,0.2526911199092865,-0.43891018629074097,3.392035484313965
106,28088,28086,-0.07787683606147766,0.06637818366289139,0.967860996723175,5.568089008331299,19.40244483947754,-1.1658315658569336,1.8597043752670288,3.830312490463257,0.2967921793460846,-0.053148746490478516,-0.44702741503715515,3.3867955207824707
107,28098,28096,-0.07204920798540115,0.07182199507951736,0.9682193398475647,4.582065105438232,20.443960189819336,-1.1350524425506592,1.8599683046340942,3.8306169509887695,0.2971198260784149,-0.2749185562133789,-0.38960424065589905,3.372164011001587
108,28108,28106,0.017104333266615868,-0.007120582275092602,1.0239561796188354,5.283717632293701,16.3601016998291,-1.0987073183059692,1.8614873886108398,3.8306519985198975,0.2973712384700775,-0.5685064792633057,-0.2818773686885834,3.3648476600646973
109,28118,28116,-0.009208085015416145,-0.010011788457632065,1.051012396812439,7.2771100997924805,11.86269474029541,-1.417993187904358,1.8609250783920288,3.8301591873168945,0.2983401119709015,-0.6405199766159058,-0.16121411323547363,3.3533570766448975
110,28128,28126,-0.007658123038709164,-0.02662852592766285,0.9766258597373962,7.631371974945068,4.755868911743164,-1.4840233325958252,1.8609968423843384,3.832329511642456,0.29872649908065796,-0.7648722529411316,-0.30982068181037903,3.331045389175415
111,28138,28136,-0.011300528421998024,-0.023513736203312874,1.010245442390442,5.903012752532959,0.7304369211196899,-1.2431257963180542,1.8604472875595093,3.8318369388580322,0.29925698041915894,-0.7211282253265381,-0.13589036464691162,3.318082094192505
112,28148,28146,0.038217250257730484,-0.10710013657808304,0.973585844039917,7.0130791664123535,-2.2283005714416504,-0.923683762550354,1.860702395439148,3.8314945697784424,0.30157750844955444,-0.7308514714241028,-0.007555223535746336,3.307826042175293
113,28158,28156,-0.00014070853649172932,-0.01628633216023445,1.0005897283554077,7.1622395515441895,-2.9660379886627197,-0.6160972714424133,1.8605931997299194,3.8331804275512695,0.3021158277988434,-0.6823441982269287,-0.08996906876564026,3.2895381450653076
114,28168,28166,-0.005287467036396265,-0.0913030132651329,1.0245648622512817,7.452889919281006,0.02050000987946987,-1.3370651006698608,1.8620723485946655,3.8339476585388184,0.3025665283203125,-0.7622188925743103,-0.06614277511835098,3.2773971557617188
115,28178,28176,0.0024473052471876144,-0.010963810607790947,1.0066801309585571,5.923941135406494,2.604008197784424,-1.546417474746704,1.8626083135604858,3.8339295387268066,0.30206823348999023,-0.7209050059318542,0.1063908189535141,3.274991989135742
116,28188,28186,0.027819853276014328,-0.026122920215129852,0.953309178352356,5.74404239654541,5.360408306121826,-1.4895092248916626,1.8635274171829224,3.8352811336517334,0.3025360107421875,-0.7438280582427979,0.10402774810791016,3.2564685344696045
117,28198,28196,-0.005205152556300163,0.11256386339664459,0.9495308995246887,6.1788530349731445,6.837017059326172,-1.1370784044265747,1.8642103672027588,3.835348606109619,0.30303674936294556,-0.8048743605613708,0.2481241673231125,3.2492733001708984
118,28208,28206,-0.021989597007632256,0.10413332283496857,0.9875065684318542,5.585453510284424,7.258237361907959,-1.1335159540176392,1.864599585533142,3.834800958633423,0.3022973835468292,-0.8825370073318481,0.38781362771987915,3.2441112995147705
119,28218,28216,0.008603334426879883,-0.039049629122018814,0.9664819240570068,4.5480194091796875,6.196377754211426,-1.7680017948150635,1.8649307489395142,3.836805820465088,0.30263370275497437,-0.955894947052002,0.28391531109809875,3.218397617340088
120,28228,28226,0.000942723941989243,-0.006300422362983227,1.0090389251708984,3.830312967300415,1.0148180723190308,-2.080108404159546,1.8667434453964233,3.8376941680908203,0.3028527796268463,-1.1551491022109985,0.39816248416900635,3.1994404792785645
121,28238,28236,-0.014942890033125877,-0.0133659141138196,0.9745790958404541,1.5047181844711304,2.2451889514923096,-2.358469247817993,1.866966962814331,3.8381736278533936,0.3031623959541321,-1.1504687070846558,0.4116377830505371,3.17977237701416
122,28248,28246,0.022927867248654366,-0.11279134452342987,0.993349552154541,1.7245612144470215,-1.22152578830719,-2.335498809814453,1.867289423942566,3.838958501815796,0.30378279089927673,-1.1167000532150269,0.47886645793914795,3.1666758060455322
123,28258,28256,0.004161288496106863,-0.13579179346561432,0.9904490113258362,1.955584168434143,-3.0177576541900635,-1.9858003854751587,1.8675299882888794,3.8400139808654785,0.3041084408760071,-1.035455346107483,0.5403962135314941,3.156446695327759
124,28268,28266,-0.004569718148559332,-0.09667522460222244,0.9123978018760681,1.5500774383544922,-2.6542248725891113,-1.089105248451233,1.8674862384796143,3.840914726257324,0.30441781878471375,-0.9420057535171509,0.4533328711986542,3.1256322860717773
125,28278,28276,0.011972349137067795,-0.015765760093927383,0.9744462370872498,0.7168802618980408,-1.4933397769927979,-1.1611965894699097,1.867864727973938,3.8425114154815674,0.3051290512084961,-0.8625344634056091,0.5192796587944031,3.1211397647857666
126,28288,28286,0.013118417002260685,-0.018884344026446342,0.9968025088310242,1.1590923070907593,1.371917963027954,-1.7709712982177734,1.8696397542953491,3.8427910804748535,0.30527716875076294,-0.9594523310661316,0.5685755610466003,3.1033103466033936
127,28298,28296,0.03702758997678757,-0.10538609325885773,1.0018295049667358,0.20845946669578552,4.9999470710754395,-1.7968268394470215,1.8700059652328491,3.843193292617798,0.3054209351539612,-0.9805058240890503,0.5385777354240417,3.08022141456604
128,28308,28306,0.011463585309684277,-0.04684799164533615,0.9899830222129822,-0.47948506474494934,6.00994873046875,-0.9169921278953552,1.8703892230987549,3.8438024520874023,0.3057211637496948,-0.9846804738044739,0.5807373523712158,3.0718398094177246
129,28318,28316,-0.004203643649816513,0.04324479401111603,1.0083332061767578,0.9690767526626587,6.641020774841309,-1.6521477699279785,1.8710415363311768,3.844153642654419,0.3059369623661041,-1.0149564743041992,0.6081428527832031,3.0662949085235596
130,28328,28326,0.027919676154851913,2.7639714971883222e-05,0.947372555732727,2.1739344596862793,2.3115122318267822,-1.4186378717422485,1.8705384731292725,3.8448774814605713,0.3061862885951996,-1.049544334411621,0.5667778253555298,3.0485284328460693
131,28338,28336,-0.008706524968147278,0.03739219903945923,0.980925440788269,0.9178705811500549,1.803380012512207,-1.702703833580017,1.8716151714324951,3.844310760498047,0.3063648045063019,-1.1102616786956787,0.6311918497085571,3.0374701023101807
132,28348,28346,-0.0005359109491109848,0.012206098064780235,1.0139296054840088,1.0023294687271118,0.21584194898605347,-2.169018268585205,1.8716371059417725,3.8466427326202393,0.3071199357509613,-1.061723232269287,0.5206408500671387,3.010772943496704
133,28358,28356,0.05310359224677086,-0.034765709191560745,0.9125258326530457,1.5148859024047852,-0.7290962338447571,-1.9068478345870972,1.8740434646606445,3.8462300300598145,0.3071993589401245,-1.2351313829421997,0.5772270560264587,2.974931001663208
134,28368,28366,0.008491202257573605,0.0004290502402000129,0.9900643229484558,0.3813396692276001,-1.6162807941436768,-2.183039903640747,1.8744903802871704,3.846560478210449,0.3074278235435486,-1.1383353471755981,0.54840087890625,2.959547519683838
135,28378,28376,0.0664510652422905,-0.1307184100151062,0.9993626475334167,0.6461015343666077,-3.6356019973754883,-1.9887663125991821,1.8752708435058594,3.8468825817108154,0.30769288539886475,-1.1371150016784668,0.5780622959136963,2.939781427383423
136,28388,28386,0.041602201759815216,-0.20598961412906647,1.019593596458435,2.241300106048584,-5.818517684936523,-2.468877077102661,1.877148151397705,3.847538471221924,0.3077855706214905,-1.1544034481048584,0.5407205820083618,2.906956195831299
137,28398,28396,0.006935331039130688,-0.12253595143556595,1.0109474658966064,0.47323644161224365,-4.816257953643799,-2.1126527786254883,1.8791477680206299,3.8482449054718018,0.3078134059906006,-1.2107714414596558,0.6038240194320679,2.8722238540649414
138,28408,28406,0.04248002916574478,-0.010880134999752045,0.9552904963493347,1.1593923568725586,-6.005346298217773,-2.1163883209228516,1.880129098892212,3.8484537601470947,0.30797505378723145,-1.1160422563552856,0.6442632079124451,2.862244129180908
139,28418,28416,0.057082805782556534,-0.006956377532333136,1.0226058959960938,-0.2843007445335388,-7.968510627746582,-2.382697582244873,1.8817857503890991,3.848583459854126,0.3080737888813019,-1.0934869050979614,0.6754249334335327,2.8399126529693604
140,28428,28426,0.05074260011315346,-0.05969240143895149,1.0188099145889282,-0.508104681968689,-8.455179214477539,-2.830487012863159,1.8829389810562134,3.8494808673858643,0.30816158652305603,-1.0412623882293701,0.6037962436676025,2.8032901287078857
141,28438,28436,0.02479591965675354,-0.007762047927826643,0.9588901400566101,-1.2812708616256714,-8.943892478942871,-3.4619674682617188,1.8837007284164429,3.8487179279327393,0.3083995580673218,-0.8929046392440796,0.6966428160667419,2.795750617980957
142,28448,28446,0.01453471090644598,0.0035331069957464933,1.0025297403335571,-3.665940046310425,-8.359238624572754,-3.2368781566619873,1.884648323059082,3.8487253189086914,0.30831512808799744,-0.8900735974311829,0.6728692054748535,2.7465739250183105
143,28458,28456,0.01847113110125065,-0.00034659067750908434,1.0116482973098755,-3.752835273742676,-7.828629493713379,-3.118356704711914,1.8839324712753296,3.848701238632202,0.3085933327674866,-0.6508628129959106,0.6211390495300293,2.7323195934295654
144,28468,28466,-0.001877108938060701,-0.028274428099393845,0.9992457628250122,-3.1591403484344482,-6.47236442565918,-3.115922451019287,1.886873483657837,3.849391222000122,0.3085840046405792,-0.7527365684509277,0.5672110915184021,2.6746504306793213
145,28478,28476,-0.02411273866891861,0.07166934758424759,1.0073529481887817,-1.4886318445205688,-6.824376583099365,-3.4142494201660156,1.8863511085510254,3.849810838699341,0.3099733591079712,-0.5298570394515991,0.5324468016624451,2.6628856658935547
146,28488,28486,0.010096834972500801,0.00773245096206665,0.9958195090293884,-2.5033199787139893,-4.671233654022217,-2.5835325717926025,1.888201355934143,3.850095748901367,0.3101564049720764,-0.4896825850009918,0.5144071578979492,2.6264824867248535
147,28498,28496,-0.032070644199848175,0.0828246995806694,1.0011199712753296,-2.505769729614258,-3.519322156906128,-3.248398542404175,1.8885374069213867,3.8506531715393066,0.3103736639022827,-0.42215317487716675,0.47943490743637085,2.601613998413086
148,28508,28506,-0.00961294211447239,0.05849406495690346,1.0413298606872559,-0.7696396112442017,-4.598368167877197,-3.5442206859588623,1.8916606903076172,3.85012149810791,0.31131935119628906,-0.5877239108085632,0.5286752581596375,2.550156831741333
149,28518,28516,0.007303864695131779,-0.00012959682499058545,1.0344303846359253,0.26778489351272583,-3.4174814224243164,-3.7532832622528076,1.8913424015045166,3.850006103515625,0.31175902485847473,-0.4163248538970947,0.5196144580841064,2.530984878540039
150,28528,28526,0.01115682814270258,0.012985257431864738,1.0322363376617432,-0.41240623593330383,-4.498435974121094,-3.536632776260376,1.8919923305511475,3.8501217365264893,0.31208428740501404,-0.3329889476299286,0.5155262351036072,2.5007903575897217
151,28538,28536,0.016167011111974716,-0.030040785670280457,0.991860032081604,-0.6135637164115906,-5.353572845458984,-2.632213592529297,1.8940047025680542,3.8499197959899902,0.3125463128089905,-0.3855993151664734,0.511876106262207,2.4545693397521973
152,28548,28546,-0.004549640230834484,-0.024955792352557182,0.9774138331413269,-1.6937332153320312,-6.4099440574646,-3.041266679763794,1.8937300443649292,3.850254774093628,0.3129834234714508,-0.1813591569662094,0.4998674690723419,2.44442081451416
153,28558,28556,-0.0014338018372654915,-0.014359135180711746,1.0171737670898438,-2.976595401763916,-5.433357238769531,-2.749738931655884,1.8960798978805542,3.8505067825317383,0.3132820427417755,-0.2298516184091568,0.4590489864349365,2.401454448699951
154,28568,28566,0.00601310795173049,0.0024027577601373196,0.9861359596252441,-3.6996724605560303,-4.1151227951049805,-2.914302110671997,1.8983509540557861,3.851219654083252,0.31355831027030945,-0.28651708364486694,0.40231937170028687,2.3610124588012695
155,28578,28576,-0.04848862811923027,-0.04896501079201698,1.029159426689148,-4.25993013381958,-3.911107063293457,-3.12481951713562,1.8994457721710205,3.8515560626983643,0.31677713990211487,-0.22453151643276215,0.3411361277103424,2.3342344760894775
156,28588,28586,-0.0447210893034935,0.015199585817754269,0.9731625318527222,-3.878416061401367,-3.4496636390686035,-3.020078420639038,1.8997575044631958,3.8512542247772217,0.31744128465652466,-0.01925557292997837,0.3559175133705139,2.320986270904541
157,28598,28596,-0.00518321106210351,0.007865499705076218,0.9812026023864746,-2.9975855350494385,-3.0157296657562256,-2.7569949626922607,1.900828242301941,3.851919651031494,0.3179381489753723,-0.015572255477309227,0.29342031478881836,2.290484666824341
158,28608,28606,0.024520890787243843,-0.009862820617854595,0.968810498714447,-3.0512092113494873,-3.0189425945281982,-2.8195056915283203,1.9028103351593018,3.850781202316284,0.31910890340805054,-0.015156855806708336,0.40326425433158875,2.2591490745544434
159,28618,28616,0.005465768743306398,-0.09859251976013184,1.0016658306121826,-1.5536246299743652,-3.499408006668091,-2.6672487258911133,1.9033184051513672,3.8519952297210693,0.3196677565574646,0.05960030108690262,0.2750093638896942,2.236163377761841
160,28628,28626,-0.005611513275653124,-0.19778922200202942,0.9906655550003052,-1.458431363105774,-3.904179811477661,-2.749540328979492,1.9048131704330444,3.8519973754882812,0.32014092803001404,0.06358876824378967,0.24037182331085205,2.2068324089050293
161,28638,28636,0.0005500547704286873,-0.0848350077867508,0.9655736684799194,-2.444931983947754,-2.440774440765381,-2.8518993854522705,1.905940294265747,3.8522069454193115,0.3184069097042084,0.13992589712142944,0.2084464430809021,2.182790994644165
162,28648,28646,-0.01760065369307995,-0.013060546480119228,0.9594079852104187,-2.7471563816070557,-2.287353754043579,-3.0284769535064697,1.9065150022506714,3.851223945617676,0.31877896189689636,0.21271634101867676,0.32530003786087036,2.1526317596435547
163,28658,28656,0.07284311205148697,-0.09152588248252869,0.9543554782867432,-3.2957592010498047,0.1053876206278801,-3.021374464035034,1.9070156812667847,3.8511886596679688,0.3191366493701935,0.3207477331161499,0.2592906653881073,2.1303467750549316
164,28668,28666,0.06555544584989548,-0.056856460869312286,0.9856976270675659,-3.928358554840088,-0.270364373922348,-2.848257541656494,1.9090090990066528,3.8518502712249756,0.319346159696579,0.18022160232067108,0.18981292843818665,2.0930259227752686
165,28678,28676,-0.0003522137994877994,-0.014883910305798054,0.9814081192016602,-3.952172040939331,1.5005275011062622,-2.320463180541992,1.909730076789856,3.8529300689697266,0.320229709148407,0.2704697251319885,0.11323001235723495,2.080291271209717
166,28688,28686,-0.012825013138353825,0.03793051466345787,0.9989446401596069,-4.260969161987305,2.210937023162842,-2.8624861240386963,1.911125898361206,3.8536853790283203,0.320524662733078,0.25273847579956055,0.03737952187657356,2.0594258308410645
167,28698,28696,-0.007615878712385893,-0.02545899711549282,0.9824339151382446,-2.1643006801605225,3.222912073135376,-2.415869951248169,1.913065791130066,3.853278398513794,0.3207394480705261,0.14381802082061768,0.058229006826877594,2.023517608642578
168,28708,28706,-0.0753118172287941,-0.0176838468760252,0.9552895426750183,-1.8188124895095825,2.425959825515747,-2.298387050628662,1.9134327173233032,3.8524258136749268,0.3201690912246704,0.19203896820545197,0.0927218496799469,1.9972784519195557
169,28718,28716,-0.05593626946210861,0.007501165848225355,0.9610407948493958,-1.1791154146194458,1.1535063982009888,-1.8873895406723022,1.9141494035720825,3.8523576259613037,0.3203628957271576,0.17425960302352905,0.055792100727558136,1.9744372367858887
170,28728,28726,-0.013842432759702206,-0.0009205995011143386,0.9744908809661865,-0.7218793034553528,0.4117888808250427,-2.0117604732513428,1.9151504039764404,3.853165864944458,0.32054004073143005,0.17780837416648865,-0.048514850437641144,1.9627010822296143
171,28738,28736,0.025836914777755737,-0.03665648400783539,0.967532753944397,-0.8906270861625671,1.723680019378662,-2.3240437507629395,1.9172066450119019,3.853808879852295,0.322489857673645,0.09653837233781815,-0.06144026294350624,1.9397618770599365
172,28748,28746,-0.030623286962509155,0.08804364502429962,1.0481799840927124,-1.4771665334701538,1.5161914825439453,-2.2863690853118896,1.917209506034851,3.8541617393493652,0.3227907717227936,0.17067274451255798,-0.08350250869989395,1.922349214553833
173,28758,28756,-0.021591583266854286,-0.015604835934937,0.9849976301193237,-0.07187014818191528,2.030416250228882,-1.8954086303710938,1.919071912765503,3.854107141494751,0.3229927718639374,0.08345428854227066,-0.0985259935259819,1.9005900621414185
174,28768,28766,-0.04223470389842987,-0.005118651781231165,0.9677639603614807,1.1724516153335571,2.344512701034546,-1.5897929668426514,1.9194517135620117,3.8542730808258057,0.3233121931552887,0.1374368667602539,-0.08977627754211426,1.882400631904602
175,28778,28776,-0.0064333099871873856,-0.026661768555641174,0.9501827359199524,2.1634316444396973,1.6046286821365356,-1.6604725122451782,1.9203969240188599,3.8541901111602783,0.32344362139701843,0.1085595041513443,-0.06548892706632614,1.864620566368103
176,28788,28786,-0.011792494915425777,-0.0046687051653862,0.9717292189598083,2.2551279067993164,1.0531940460205078,-1.5434541702270508,1.921658992767334,3.854227304458618,0.32366612553596497,0.08941894769668579,-0.028163859620690346,1.8446414470672607
177,28798,28796,0.0601804181933403,-0.13003413379192352,0.9695308804512024,1.0329272747039795,0.8887077569961548,-1.8114471435546875,1.921612024307251,3.854400396347046,0.3239116072654724,0.15374277532100677,0.0009070594096556306,1.831501841545105
178,28808,28806,0.057656921446323395,-0.1503247767686844,0.9864156246185303,0.023341579362750053,3.015005111694336,-2.252415895462036,1.9218672513961792,3.8541462421417236,0.32482486963272095,0.20690888166427612,0.015812110155820847,1.812581181526184
179,28818,28816,-0.020542209967970848,0.01296576764434576,1.0298508405685425,-0.35225191712379456,3.7956089973449707,-2.388319253921509,1.9218621253967285,3.8544178009033203,0.32506194710731506,0.2259862720966339,0.009652280248701572,1.7917561531066895
180,28828,28826,-0.03651862591505051,0.01594618335366249,0.9852428436279297,-0.9677702784538269,6.594620704650879,-2.151113748550415,1.922747254371643,3.8547208309173584,0.32530733942985535,0.23979946970939636,0.004940152168273926,1.768743872642517
181,28838,28836,0.003526663174852729,-0.06257182359695435,0.9762382507324219,-0.8817591071128845,7.2782440185546875,-1.812639832496643,1.924938678741455,3.8543717861175537,0.32324114441871643,0.04521358013153076,0.06335847824811935,1.7405142784118652
182,28848,28846,-0.005885782185941935,0.056962750852108,0.9320186376571655,-0.6194378733634949,7.864020824432373,-1.801833152770996,1.9255871772766113,3.854999303817749,0.3233370780944824,-0.010598866268992424,0.03909048065543175,1.7305445671081543
183,28858,28856,-0.0024368511512875557,0.0753479078412056,0.9258330464363098,-0.8318468928337097,7.023080348968506,-1.5519335269927979,1.9264016151428223,3.8559906482696533,0.32320013642311096,-0.22386467456817627,-0.05183517187833786,1.7190592288970947
184,28868,28866,0.022679921239614487,-0.0021852694917470217,0.9770700335502625,-1.0295841693878174,4.142109394073486,-1.6933729648590088,1.9260762929916382,3.855665922164917,0.323270708322525,-0.2501065731048584,-0.0687563344836235,1.7002627849578857
185,28878,28876,-0.016021044924855232,-0.08508406579494476,1.0334397554397583,-0.31730321049690247,0.916256844997406,-1.7928565740585327,1.926588773727417,3.855719566345215,0.3242511749267578,-0.22242967784404755,-0.08570964634418488,1.683589220046997
186,28888,28886,-0.02824017032980919,-0.14980915188789368,1.019643783569336,0.32111692428588867,-1.1354777812957764,-1.4551113843917847,1.9272757768630981,3.8558058738708496,0.32423192262649536,-0.21791672706604004,-0.0883549377322197,1.6717791557312012
187,28898,28896,-0.09891072660684586,-0.09176091104745865,1.0623912811279297,1.2144790887832642,-0.04487943649291992,-1.328926682472229,1.9263389110565186,3.855847120285034,0.3242000341415405,-0.15848717093467712,-0.06736888736486435,1.657010555267334
188,28908,28906,-0.03792794048786163,-0.01266103982925415,1.0029977560043335,1.203553318977356,3.2520506381988525,-1.0591959953308105,1.9279676675796509,3.8557467460632324,0.31961798667907715,-0.254482239484787,-0.04551505297422409,1.6459362506866455
189,28918,28916,0.003271927125751972,0.08264409750699997,0.9525986909866333,1.0166988372802734,4.064362525939941,-1.2781559228897095,1.9279361963272095,3.854997158050537,0.31947726011276245,-0.23110967874526978,-0.022476494312286377,1.6251626014709473
190,28928,28926,0.04995301738381386,0.10552781075239182,0.9483030438423157,0.5873537063598633,4.37934684753418,-0.8189317584037781,1.9293776750564575,3.8557634353637695,0.3192495107650757,-0.3083021342754364,-0.08108010143041611,1.617232322692871
191,28938,28936,0.061180174350738525,-0.0030322750099003315,0.9647640585899353,0.6351110935211182,3.854844093322754,-1.0510047674179077,1.9299396276474,3.855292558670044,0.31656143069267273,-0.3092845380306244,-0.068118616938591,1.5996946096420288
192,28948,28946,-0.0008260809700004756,-0.0007674609660170972,1.0216741561889648,1.3619294166564941,2.7431416511535645,-1.7851985692977905,1.9308968782424927,3.856394052505493,0.3161332607269287,-0.3702268600463867,-0.11675748974084854,1.5907655954360962
193,28958,28956,0.007764982525259256,-0.025967683643102646,0.9837062358856201,1.9696574211120605,0.30207687616348267,-1.4164714813232422,1.9313149452209473,3.856288433074951,0.31580430269241333,-0.32987353205680847,-0.0839552953839302,1.5712331533432007
194,28968,28966,-0.018764210864901543,-0.03546930104494095,0.9860926866531372,1.340111255645752,-0.6705206632614136,-1.226261854171753,1.9310898780822754,3.8558509349823,0.3149580955505371,-0.2530713677406311,-0.049525219947099686,1.554872751235962
195,28978,28976,0.0224823746830225,-0.049923721700906754,0.9696263074874878,1.6654634475708008,-0.07269933074712753,-1.0877256393432617,1.9325379133224487,3.855645179748535,0.31446170806884766,-0.32594063878059387,-0.017941052094101906,1.5445138216018677
196,28988,28986,0.016785848885774612,-0.03595888242125511,1.0271488428115845,1.6453357934951782,-0.24808229506015778,-0.5102559328079224,1.932733178138733,3.856414556503296,0.31405964493751526,-0.24756872653961182,-0.05635196715593338,1.5330352783203125
197,28998,28996,0.07799086719751358,-0.15366093814373016,1.0123775005340576,2.1911542415618896,2.2168915271759033,-1.0639687776565552,1.932793378829956,3.856152296066284,0.3136177062988281,-0.19769836962223053,-0.009480186738073826,1.5234140157699585
198,29008,29006,0.03415250778198242,-0.16590209305286407,0.9751150012016296,2.2216856479644775,4.83235502243042,-1.2940948009490967,1.9357328414916992,3.8564679622650146,0.3143301010131836,-0.42919808626174927,0.03746400028467178,1.5141053199768066
199,29018,29016,0.03798384219408035,-0.11500224471092224,0.9040127396583557,1.5584882497787476,5.423079013824463,-1.5307496786117554,1.9363983869552612,3.8565120697021484,0.3139454424381256,-0.517516553401947,0.07991021871566772,1.50677490234375
200,29028,29026,-0.00939437560737133,0.009977228939533234,1.0393410921096802,1.3629179000854492,2.0753440856933594,-1.791581392288208,1.9368311166763306,3.856067180633545,0.3136017322540283,-0.5028122663497925,0.10984748601913452,1.4830570220947266
201,29038,29036,0.025496844202280045,-0.028860757127404213,1.069917917251587,0.9513882398605347,-1.1325215101242065,-1.8600585460662842,1.936930537223816,3.856902599334717,0.3136880695819855,-0.5242915153503418,0.05156092718243599,1.4649227857589722
202,29048,29046,-0.0017960196128115058,-0.034109968692064285,1.0489343404769897,0.2846245765686035,-2.418680429458618,-1.8481355905532837,1.9388585090637207,3.857630729675293,0.31330353021621704,-0.5732747316360474,0.06693073362112045,1.458290934562683
203,29058,29056,-0.014703400433063507,0.11091327667236328,1.0140421390533447,1.935344934463501,-4.199779510498047,-2.4498860836029053,1.9394798278808594,3.8572723865509033,0.31309792399406433,-0.5058501958847046,0.0985022559762001,1.4382641315460205
204,29068,29066,-0.04297243431210518,0.1576404720544815,0.9743127822875977,1.7407591342926025,-4.126842021942139,-1.9738620519638062,1.9410442113876343,3.8577709197998047,0.3175027370452881,-0.5225719809532166,0.062403205782175064,1.4131397008895874
205,29078,29076,0.023148702457547188,0.018652578815817833,1.0037208795547485,0.9111160039901733,-5.044466018676758,-2.0432658195495605,1.9418435096740723,3.8577640056610107,0.3175637125968933,-0.44862276315689087,0.09120158106088638,1.3909498453140259
206,29088,29086,-0.009569359011948109,-0.07078886032104492,1.1067441701889038,1.6173062324523926,-4.8824872970581055,-2.533384323120117,1.9421944618225098,3.8584210872650146,0.3176210820674896,-0.3503439724445343,0.044398773461580276,1.3679767847061157
207,29098,29096,0.008314648643136024,-0.09993093460798264,1.0467256307601929,1.6488933563232422,-2.7201015949249268,-2.153287410736084,1.9433997869491577,3.858785629272461,0.31774452328681946,-0.2808021306991577,0.0894237756729126,1.3520570993423462
208,29108,29106,0.01122487522661686,-0.01347734872251749,0.9812712669372559,2.5249946117401123,-1.0858627557754517,-2.5212557315826416,1.9448941946029663,3.8587684631347656,0.31797686219215393,-0.301885187625885,0.14113619923591614,1.3298017978668213
209,29118,29116,-0.0034312447533011436,-0.01675916276872158,1.0052872896194458,2.5622828006744385,0.30263665318489075,-2.589632749557495,1.9450528621673584,3.8588247299194336,0.3181942403316498,-0.27620428800582886,0.19217243790626526,1.3126200437545776
210,29128,29126,0.06522072106599808,-0.06557956337928772,0.982866108417511,1.4422703981399536,2.0581436157226562,-2.885681390762329,1.9477251768112183,3.8585805892944336,0.3182189166545868,-0.45289039611816406,0.23153923451900482,1.288118600845337
211,29138,29136,0.04975273832678795,-0.13669799268245697,1.0214542150497437,1.3745076656341553,0.31728288531303406,-2.8812241554260254,1.9483126401901245,3.8596103191375732,0.3208993375301361,-0.38713890314102173,0.1852046698331833,1.2564284801483154
212,29148,29146,-0.0019274657825008035,-0.17877107858657837,1.011062502861023,1.1132394075393677,-3.1914453506469727,-3.087108850479126,1.9497969150543213,3.8594741821289062,0.3211826980113983,-0.4225265383720398,0.21992038190364838,1.2264370918273926
213,29158,29156,-0.007505308836698532,-0.05967438593506813,1.01384699344635,0.07271415740251541,-5.193663120269775,-3.076686382293701,1.9504895210266113,3.8593173027038574,0.3216073215007782,-0.32829466462135315,0.2402798980474472,1.1934233903884888
214,29168,29166,-0.001329897902905941,0.04548842832446098,0.9828179478645325,0.6393672227859497,-6.2740278244018555,-3.0595040321350098,1.950966238975525,3.859786033630371,0.3203388452529907,-0.2156987488269806,0.25321829319000244,1.1681649684906006
215,29178,29176,0.03135785460472107,0.0493912510573864,0.9661986231803894,1.6267350912094116,-7.27670431137085,-2.962303876876831,1.9535871744155884,3.860273599624634,0.32046157121658325,-0.31433701515197754,0.20545360445976257,1.1317036151885986
216,29188,29186,0.041655320674180984,-0.0027256093453615904,0.9670377969741821,0.7992455959320068,-6.313572883605957,-2.7613046169281006,1.9523228406906128,3.8601086139678955,0.3206106424331665,-0.10944932699203491,0.23036420345306396,1.1045039892196655
217,29198,29196,0.006207828875631094,0.020241858437657356,1.005428671836853,1.1319172382354736,-5.76563835144043,-2.615403175354004,1.9530378580093384,3.860058546066284,0.3208691477775574,0.002079712925478816,0.2522646486759186,1.077072262763977
218,29208,29206,-0.0354139469563961,0.07801531255245209,1.0189059972763062,1.0651435852050781,-2.7768030166625977,-2.700953722000122,1.9550544023513794,3.859952926635742,0.32135722041130066,-0.06366473436355591,0.27945390343666077,1.044562816619873
219,29218,29216,-0.04409153386950493,0.11997752636671066,0.9667156338691711,-0.36023128032684326,0.9741660356521606,-2.4749248027801514,1.9552313089370728,3.8597729206085205,0.32160261273384094,-0.031613461673259735,0.29032155871391296,1.0168386697769165
220,29228,29226,-0.02989574894309044,0.08676639944314957,0.959868311882019,-0.5573065280914307,1.4950398206710815,-2.6028075218200684,1.9561814069747925,3.8596112728118896,0.32181957364082336,-0.02010491117835045,0.28750598430633545,0.994463324546814
221,29238,29236,-0.025332670658826828,0.030495116487145424,1.0095493793487549,-0.9543102383613586,1.4082448482513428,-2.7007510662078857,1.957639217376709,3.859635829925537,0.3202190399169922,-0.1705155223608017,0.28186821937561035,0.9663938283920288
222,29248,29246,-0.018688438460230827,0.05339116230607033,0.9883120059967041,-1.1702862977981567,2.30049729347229,-2.511329412460327,1.958966612815857,3.8597137928009033,0.3202965259552002,-0.17587177455425262,0.264372855424881,0.9394708275794983
223,29258,29256,-0.016005009412765503,0.043494462966918945,1.0031694173812866,-0.5744028687477112,-0.5222976207733154,-2.991661787033081,1.9609451293945312,3.859665632247925,0.32022789120674133,-0.2878257930278778,0.26177462935447693,0.9134281277656555
224,29268,29266,-0.07378280907869339,0.012307878583669662,1.0622732639312744,0.15935243666172028,-2.8012561798095703,-2.2571234703063965,1.9601861238479614,3.860687017440796,0.3213847279548645,-0.03915330022573471,0.18361231684684753,0.9010909199714661
225,29278,29276,-0.06875481456518173,0.004815923050045967,1.0483728647232056,1.3910019397735596,-6.208252906799316,-1.8939402103424072,1.9613314867019653,3.8603532314300537,0.3215099573135376,0.013915224000811577,0.21416322886943817,0.8741788268089294
226,29288,29286,-0.006530218757688999,0.018331723287701607,0.9725942611694336,1.759778380393982,-4.937408924102783,-2.0360777378082275,1.9617637395858765,3.860837936401367,0.3217019736766815,0.11386720836162567,0.17468950152397156,0.8567933440208435
227,29298,29296,-0.006536764558404684,0.08620063215494156,0.9184014797210693,2.7445695400238037,-6.415639400482178,-1.2363275289535522,1.9620665311813354,3.86091947555542,0.3233208656311035,0.3181501626968384,0.23219208419322968,0.8459444046020508
228,29308,29306,-0.041380565613508224,0.1813894659280777,0.9498591423034668,2.3900561332702637,-2.7211856842041016,-1.205366849899292,1.9639074802398682,3.8607828617095947,0.3235306739807129,0.23764929175376892,0.2860211133956909,0.8292887806892395
229,29318,29316,-0.02774292789399624,0.21094927191734314,0.9553912281990051,2.69604229927063,2.261924982070923,-0.8778696656227112,1.965110421180725,3.8604891300201416,0.32369959354400635,0.16474196314811707,0.3316461741924286,0.8180646896362305
230,29328,29326,0.014980942010879517,0.11311988532543182,0.9177883863449097,2.149168014526367,5.715333461761475,-1.2967290878295898,1.9664608240127563,3.8623180389404297,0.3237970471382141,0.1109519973397255,0.376205712556839,0.8420937061309814
231,29338,29336,-0.018142959102988243,-0.048084013164043427,1.010894536972046,0.006297423969954252,5.644532203674316,-1.49311363697052,1.966916561126709,3.8630013465881348,0.3200814127922058,0.13355007767677307,0.3954008221626282,0.8481972813606262
232,29348,29346,-0.0382932685315609,-0.01664583571255207,1.0495847463607788,-1.9212108850479126,4.8280229568481445,-1.9871927499771118,1.9686652421951294,3.863093614578247,0.3198137879371643,-0.011190393939614296,0.3803216218948364,0.8281056880950928
233,29358,29356,-0.048156894743442535,-0.05360116437077522,0.9936860203742981,-3.138646364212036,2.786190986633301,-1.7458443641662598,1.9686628580093384,3.8624565601348877,0.3197118639945984,0.04125732183456421,0.4177252948284149,0.8108176589012146
234,29368,29366,-0.01828153431415558,-0.04595904052257538,0.9656003713607788,-4.6146721839904785,1.0994343757629395,-1.9570358991622925,1.9692596197128296,3.862882614135742,0.3194253444671631,0.10697811096906662,0.34090542793273926,0.7983811497688293
235,29378,29376,-0.05667470768094063,0.03323051333427429,0.9719737768173218,-4.208240509033203,-2.1267001628875732,-1.6603727340698242,1.9720547199249268,3.86296010017395,0.3191169798374176,-0.10186029970645905,0.2585641145706177,0.7769863605499268
236,29388,29386,-0.028718333691358566,0.023266522213816643,0.9775251746177673,-5.127696514129639,-1.567774772644043,-1.5071947574615479,1.972717523574829,3.864332914352417,0.31896844506263733,-0.040688663721084595,0.1764286756515503,0.7853553891181946
237,29398,29396,0.0254996195435524,-0.013107072561979294,0.9992573261260986,-2.447446823120117,-4.572218418121338,-1.4860899448394775,1.973018765449524,3.864518880844116,0.31892767548561096,0.12411736696958542,0.10980674624443054,0.777321457862854
238,29408,29406,-0.01633216254413128,0.00662896828725934,1.0395214557647705,-0.7672103047370911,-2.7215592861175537,-1.2549535036087036,1.9738378524780273,3.8652937412261963,0.31869810819625854,0.19084320962429047,0.0918259397149086,0.7743307948112488
239,29418,29416,0.007365316152572632,-0.03549962490797043,0.9679992198944092,2.3220572471618652,-2.010669231414795,-1.5500291585922241,1.9761303663253784,3.865189790725708,0.31841158866882324,0.09094282984733582,0.12115345150232315,0.7694200277328491
240,29428,29426,0.00535608222708106,-0.02235035039484501,0.9737486243247986,3.4642064571380615,0.3739795982837677,-0.9068399667739868,1.9764530658721924,3.865609884262085,0.3183121383190155,0.20338107645511627,0.17688877880573273,0.7595015168190002
241,29438,29436,-0.00865896511822939,0.010551314800977707,1.0295954942703247,4.671933650970459,1.2065922021865845,-1.4252092838287354,1.9772706031799316,3.865353584289551,0.31664445996284485,0.18695789575576782,0.24863331019878387,0.7445679306983948
242,29448,29446,0.03811131417751312,-0.05518462881445885,0.973372757434845,2.088012456893921,3.3947651386260986,-0.9729090929031372,1.9791367053985596,3.865151882171631,0.31628814339637756,0.06140042096376419,0.2916003465652466,0.7296172976493835
243,29458,29456,0.019386587664484978,-0.0760764554142952,1.0196236371994019,0.9542107582092285,2.9429469108581543,-0.7298403978347778,1.9800864458084106,3.8650646209716797,0.31594085693359375,0.031627871096134186,0.31763920187950134,0.7143084406852722
244,29468,29466,-0.00906379148364067,-0.04103703051805496,1.0268017053604126,-2.6847400665283203,3.5684516429901123,-1.0194882154464722,1.9820809364318848,3.8664097785949707,0.31803929805755615,-0.09156591445207596,0.21655677258968353,0.724418044090271
245,29478,29476,0.00646369019523263,-0.012575779110193253,1.003779411315918,-4.46378755569458,2.5760858058929443,-1.163084626197815,1.9826886653900146,3.8666117191314697,0.317940354347229,-0.03471335023641586,0.16034068167209625,0.7105118036270142
246,29488,29486,-0.009932270273566246,0.01335909217596054,1.026750922203064,-4.342311382293701,0.8530425429344177,-1.4208834171295166,1.9836575984954834,3.8668274879455566,0.31781163811683655,-0.04381859302520752,0.17058077454566956,0.7112554311752319
247,29498,29496,0.017311563715338707,0.08483372628688812,0.8975377082824707,-3.3835809230804443,0.48557063937187195,-2.239987850189209,1.9854503870010376,3.866748809814453,0.3148047626018524,-0.1343121975660324,0.11072731018066406,0.6859506368637085
248,29508,29506,0.005641516298055649,0.03872538357973099,0.9857993721961975,-0.8744592070579529,-1.9844492673873901,-1.636836290359497,1.9869718551635742,3.8665406703948975,0.31442293524742126,-0.1663946807384491,0.15490007400512695,0.6648067831993103
249,29518,29516,-0.005868818610906601,0.009182355366647243,1.019607663154602,0.7761267423629761,-3.2039542198181152,-0.9718617796897888,1.987350344657898,3.86641526222229,0.3142011761665344,-0.005397358443588018,0.1550898253917694,0.6535916328430176
250,29528,29526,0.008864028379321098,-0.015229095704853535,1.0287636518478394,0.5424144864082336,-3.561683416366577,-0.8392388224601746,1.988053321838379,3.8662045001983643,0.31389105319976807,0.06784127652645111,0.15912240743637085,0.6457661390304565
251,29538,29536,-0.04770268127322197,0.008480657823383808,1.081214427947998,0.5072537064552307,-5.0402727127075195,-0.7461297512054443,1.9886149168014526,3.8663923740386963,0.3143947720527649,0.17812752723693848,0.16735675930976868,0.6383143067359924
252,29548,29546,-0.014284434728324413,-0.024515831843018532,1.031728744506836,-0.227889284491539,-1.8330698013305664,-0.34630244970321655,1.9915598630905151,3.8663792610168457,0.31401753425598145,0.0038252470549196005,0.16089339554309845,0.6313733458518982
253,29558,29556,0.013452901504933834,0.009167884476482868,1.023281455039978,-0.8653292059898376,1.3541215658187866,-0.3613683879375458,1.991745114326477,3.8665971755981445,0.3138767182826996,0.1127045601606369,0.14561335742473602,0.6299167275428772
254,29568,29566,-0.04490865394473076,0.03949815034866333,1.0057446956634521,-1.756501317024231,1.976457953453064,-0.22236786782741547,1.9928817749023438,3.8670706748962402,0.3104730546474457,0.1032361313700676,0.11064092814922333,0.6347852945327759
255,29578,29576,-0.008117275312542915,0.006923251785337925,1.0295661687850952,-2.4067347049713135,2.2897369861602783,-0.4631557762622833,1.9941527843475342,3.8675315380096436,0.31012770533561707,0.08198969811201096,0.06681210547685623,0.6371806263923645
256,29588,29586,0.0034165505785495043,-0.030786680057644844,0.987781822681427,-2.232700824737549,2.1601779460906982,-0.12892048060894012,1.994650959968567,3.867687702178955,0.3098028302192688,0.061646636575460434,0.023728491738438606,0.6341015100479126
257,29598,29596,-0.011473890393972397,-0.05709880590438843,1.0282446146011353,-1.3281382322311401,1.6028603315353394,-0.04987126216292381,1.9954967498779297,3.867048740386963,0.30964168906211853,0.050507307052612305,0.0709751695394516,0.630021870136261
258,29608,29606,0.011987358331680298,-0.04582944139838219,0.999602198600769,0.20961853861808777,1.1547915935516357,0.07341078668832779,1.9957290887832642,3.867056369781494,0.3093719780445099,0.04174426943063736,0.05717192962765694,0.6363527774810791
259,29618,29616,0.009241366758942604,-0.062312882393598557,1.0073240995407104,0.8639329671859741,1.3905773162841797,0.16459664702415466,1.9960012435913086,3.8670332431793213,0.30912965536117554,0.10625920444726944,0.060982413589954376,0.6368757486343384
260,29628,29626,0.04958898946642876,-0.1068219393491745,1.049460768699646,0.7097022533416748,0.870432436466217,0.42698368430137634,1.9969570636749268,3.8667805194854736,0.3092251420021057,0.09632051736116409,0.06983242928981781,0.628292441368103
261,29638,29636,0.05705678090453148,-0.10538024455308914,1.0747888088226318,0.5645865201950073,0.6825411915779114,0.2845817804336548,1.999157428741455,3.866213083267212,0.3088805675506592,-0.06125393882393837,0.08208876103162766,0.614275336265564
262,29648,29646,0.0065255542285740376,-0.02581818960607052,1.039272427558899,0.6670359969139099,1.8957432508468628,0.20157963037490845,1.9996531009674072,3.866100549697876,0.30876412987709045,0.008954540826380253,0.09214912354946136,0.6139222383499146
263,29658,29656,0.0017333519645035267,-0.00295079592615366,1.0180033445358276,-0.8728019595146179,1.4757494926452637,-0.03604956716299057,2.0005557537078857,3.866032838821411,0.3086114823818207,-0.005228967405855656,0.07569271326065063,0.6101145148277283
264,29668,29666,-0.012282751500606537,0.09016332030296326,0.9938892126083374,-2.3121471405029297,3.028951644897461,-0.5049183964729309,2.0031301975250244,3.8658461570739746,0.306862473487854,-0.20795385539531708,0.04943164810538292,0.5987548232078552
265,29678,29676,0.0069632017984986305,0.05805619806051254,1.027898907661438,-1.9655640125274658,0.9963828921318054,0.29391735792160034,2.003396987915039,3.8655917644500732,0.30678272247314453,-0.1309749037027359,0.007980205118656158,0.5926326513290405
266,29688,29686,-0.005754250101745129,0.04021166265010834,1.0552315711975098,-1.101471185684204,-2.8489537239074707,0.30571067333221436,2.00398588180542,3.8656790256500244,0.3066401779651642,-0.08357294648885727,-0.017634714022278786,0.602683424949646
267,29698,29696,0.0052983639761805534,-0.03222610801458359,1.0231587886810303,-0.9891155362129211,-4.144952297210693,0.6436020731925964,2.0047237873077393,3.865903615951538,0.3053944706916809,-0.0016261012060567737,-0.03794000297784805,0.6056559085845947
268,29708,29706,-0.017612457275390625,0.03405528888106346,0.9841983914375305,1.2372158765792847,-5.037234306335449,0.9931142926216125,2.0047202110290527,3.866154670715332,0.3053394854068756,0.18714827299118042,0.04430966079235077,0.6328672170639038
269,29718,29716,0.010377212427556515,-0.019704250618815422,1.0040603876113892,1.0691481828689575,-0.8202897310256958,1.0851938724517822,2.007767677307129,3.8658392429351807,0.3050999641418457,-0.020884552970528603,0.12153388559818268,0.6528082489967346
270,29728,29726,0.08302218466997147,-0.07180129736661911,0.9931206703186035,-0.43985360860824585,2.213717460632324,1.1063001155853271,2.0087344646453857,3.8658719062805176,0.3065860867500305,-0.02095877006649971,0.10417979210615158,0.6631777286529541
271,29738,29736,0.00945938192307949,-0.032751936465501785,1.036620020866394,-0.6388960480690002,2.0253489017486572,1.063009262084961,2.009692430496216,3.865757942199707,0.3065764904022217,-0.023782916367053986,0.08236628770828247,0.6739030480384827
272,29748,29746,0.00439508305862546,-0.13315235078334808,1.021433711051941,-1.998811960220337,1.282952904701233,0.9016512036323547,2.0117135047912598,3.865762233734131,0.30650976300239563,-0.09669014066457748,0.052413210272789,0.6771413683891296
273,29758,29756,-0.009805203415453434,-0.08851764351129532,1.0321720838546753,-2.3424220085144043,1.1621298789978027,0.9745795726776123,2.011873960494995,3.866110324859619,0.30660250782966614,-0.02180102840065956,0.006184757221490145,0.7033806443214417
274,29768,29766,0.0775650218129158,0.024739814922213554,0.9863020777702332,-3.2026777267456055,-0.12053225934505463,0.24816764891147614,2.0125062465667725,3.866579532623291,0.3064713776111603,0.03672991693019867,-0.044575776904821396,0.7108376622200012
275,29778,29776,0.03950739651918411,0.02318442612886429,1.0129634141921997,-3.946033239364624,-1.9298453330993652,-0.25489214062690735,2.0136749744415283,3.866971969604492,0.306464821100235,0.0005100907292217016,-0.1159411370754242,0.70979905128479
276,29788,29786,-0.02490699477493763,0.018897611647844315,1.0047158002853394,-1.736212968826294,-2.545767307281494,-0.1005166620016098,2.013782024383545,3.8666913509368896,0.3065881133079529,0.12449069321155548,-0.1594887375831604,0.7068685293197632
277,29798,29796,-0.04627841338515282,0.07719535380601883,1.0239239931106567,-0.639733612537384,-1.4797407388687134,0.0588252879679203,2.015242099761963,3.8659610748291016,0.3087795078754425,0.09032496809959412,-0.10881997644901276,0.7016409039497375
278,29808,29806,0.005568560212850571,0.02531575970351696,0.9727329015731812,0.7685893177986145,1.5056123733520508,-0.3101486563682556,2.0169405937194824,3.8662421703338623,0.30889931321144104,0.006728448439389467,-0.11872899532318115,0.7020008563995361
279,29818,29816,-0.015153766609728336,0.08483938872814178,1.010434865951538,2.7705578804016113,2.3645994663238525,-0.16000226140022278,2.017320394515991,3.8659098148345947,0.30914175510406494,0.06183202564716339,-0.09273342043161392,0.700468897819519
280,29828,29826,0.03475397452712059,0.04149435833096504,1.0235363245010376,4.04102087020874,0.9549205303192139,0.2894906997680664,2.019007444381714,3.8661298751831055,0.3098231256008148,-0.016412537544965744,-0.04405413195490837,0.7029732465744019
281,29838,29836,-0.021671971306204796,0.08499390631914139,1.1114749908447266,4.128384590148926,0.5804641246795654,0.486508846282959,2.0197043418884277,3.865666151046753,0.3100961148738861,0.004051271826028824,0.019630393013358116,0.712189257144928
282,29848,29846,-0.002571643330156803,0.04220089316368103,1.045578122138977,2.2892563343048096,2.577314853668213,0.010460211895406246,2.019913673400879,3.8653106689453125,0.3104311525821686,0.05856882408261299,0.06950874626636505,0.7021629214286804
283,29858,29856,-0.004609967581927776,-0.01590791903436184,0.9654850959777832,0.1853257566690445,3.049335479736328,-0.07463520020246506,2.0213959217071533,3.8651351928710938,0.31049206852912903,-0.06589527428150177,0.08077386766672134,0.705487072467804
284,29868,29866,-0.024614159017801285,-0.03834451735019684,0.978552520275116,-2.5795576572418213,1.2435452938079834,0.1765383929014206,2.0222606658935547,3.8669321537017822,0.3108406364917755,-0.07814216613769531,0.04731648787856102,0.7583440542221069
285,29878,29876,0.009949816390872002,-0.0559035986661911,0.9892961382865906,-2.866199016571045,2.5429892539978027,-0.7326405048370361,2.0228352546691895,3.868300437927246,0.3112541139125824,-0.029669392853975296,-0.011504529975354671,0.8716858625411987
286,29888,29886,-0.07761957496404648,0.009252378717064857,1.1004142761230469,-3.6767001152038574,0.14751166105270386,-1.2630680799484253,2.02486515045166,3.870652437210083,0.31166136264801025,-0.015016752295196056,-0.0061944895423948765,0.8620873689651489
287,29898,29896,-0.08301209658384323,-0.04576723650097847,1.075218915939331,-1.6253317594528198,-0.4681756794452667,-1.5330902338027954,2.0268943309783936,3.873307943344116,0.31132030487060547,-0.05836893990635872,-0.13505762815475464,0.8986232876777649
288,29908,29906,-0.104993537068367,-0.02932545728981495,1.0610719919204712,-0.5437321662902832,-0.17511317133903503,-1.804054617881775,2.0262997150421143,3.872471332550049,0.31180939078330994,0.055124830454587936,-0.07206863164901733,0.8781492710113525
289,29918,29916,-0.10961606353521347,0.08376514166593552,1.0092660188674927,0.3438001871109009,1.0866262912750244,-1.6517832279205322,2.027945041656494,3.8723766803741455,0.3127392530441284,0.05647040531039238,-0.08065548539161682,0.8617494702339172
290,29928,29926,-0.068696990609169,0.1516079306602478,0.9598462581634521,0.7359669208526611,4.035161018371582,-1.2895727157592773,2.0275590419769287,3.872110366821289,0.3101629316806793,0.09070970863103867,-0.07004682719707489,0.8449564576148987
291,29938,29936,-0.033221956342458725,0.20803102850914001,0.9696502089500427,0.8683138489723206,5.8085432052612305,-1.0233514308929443,2.0274910926818848,3.872097969055176,0.3101887106895447,0.0691365897655487,-0.06752478331327438,0.8319963812828064
292,29948,29946,0.029925385490059853,0.06211131811141968,0.9390976428985596,1.320220708847046,5.516256809234619,-0.8016744256019592,2.0287692546844482,3.8724260330200195,0.31045541167259216,-0.036018501967191696,-0.12805818021297455,0.8145958781242371
293,29958,29956,-0.0074655115604400635,-0.09065481275320053,0.9670940637588501,0.7590059041976929,6.610104084014893,-1.1543148756027222,2.02860951423645,3.872368335723877,0.31117138266563416,0.0036818310618400574,-0.10855218768119812,0.8122638463973999
294,29968,29966,-0.04728618264198303,-0.029385317116975784,1.0059826374053955,0.9783324599266052,6.278335094451904,-1.258105993270874,2.030752182006836,3.8726894855499268,0.31160247325897217,-0.11484888941049576,-0.08860208094120026,0.8003048300743103
295,29978,29976,-0.07196193188428879,0.02666281722486019,0.9941149353981018,0.8607895970344543,4.982065677642822,-1.5499763488769531,2.029849052429199,3.87241268157959,0.3116644322872162,-0.1379537582397461,-0.06347915530204773,0.7859687209129333
296,29988,29986,-0.06537050008773804,0.0354955792427063,0.9647953510284424,0.42124152183532715,5.233016490936279,-1.3099943399429321,2.030766725540161,3.8721649646759033,0.3120650053024292,-0.15085859596729279,-0.04708006978034973,0.7664587497711182
297,29998,29996,-0.07688789069652557,0.13478252291679382,0.9899701476097107,-0.018154431134462357,4.280523777008057,-1.3619914054870605,2.0318028926849365,3.872243642807007,0.3088151812553406,-0.31811997294425964,-0.048573706299066544,0.8132143020629883
298,30008,30006,-0.045294150710105896,0.12921075522899628,0.9867664575576782,-0.45685604214668274,3.4539380073547363,-1.3575202226638794,2.0343940258026123,3.8740572929382324,0.30857861042022705,-0.45762717723846436,-0.04887045919895172,0.8028380274772644
299,30018,30016,-0.032943058758974075,0.08805350214242935,1.0381214618682861,0.17574749886989594,2.0468380451202393,-0.9130262136459351,2.035444498062134,3.876338481903076,0.3086426556110382,-0.41117680072784424,-0.05459613353013992,0.8518815636634827
300,30028,30026,-0.027272697538137436,0.06144159287214279,1.0648343563079834,1.4071424007415771,-0.43264174461364746,-1.2631361484527588,2.0355982780456543,3.8770430088043213,0.3084268271923065,-0.44052639603614807,-0.03612678125500679,0.8616853356361389
301,30038,30036,-0.016142290085554123,0.05102641135454178,1.0563353300094604,1.298315405845642,-0.1950455904006958,-1.5499184131622314,2.0359268188476562,3.876918077468872,0.30845504999160767,-0.36343488097190857,-0.013865061104297638,0.8435020446777344
302,30048,30046,-0.03811626136302948,0.09201084822416306,0.9739563465118408,1.727136254310608,-0.5783398151397705,-1.5227748155593872,2.03598952293396,3.876166582107544,0.30850037932395935,-0.3547872006893158,0.09092825651168823,0.8338602185249329
303,30058,30056,-0.06600753217935562,0.18873490393161774,0.9416574835777283,0.763651430606842,-0.21188165247440338,-1.3591876029968262,2.037423610687256,3.875861406326294,0.31295084953308105,-0.43443337082862854,0.10517524927854538,0.831901490688324
304,30068,30066,-0.042822446674108505,0.16173703968524933,0.9535579085350037,-1.3984383344650269,2.245502471923828,-1.1399550437927246,2.0390520095825195,3.878465414047241,0.3131934404373169,-0.5320330262184143,0.0037133614532649517,0.8701776266098022
305,30078,30076,-0.030342670157551765,0.08463536202907562,1.0326263904571533,-1.9212161302566528,0.9316404461860657,-1.5089855194091797,2.03985595703125,3.878981113433838,0.3134489953517914,-0.5395246148109436,-0.023205285891890526,0.8706519603729248
306,30088,30086,-0.06407558172941208,0.009842334315180779,1.084417462348938,-2.4930732250213623,-1.2102563381195068,-1.879228115081787,2.0409746170043945,3.879117965698242,0.3137185573577881,-0.5084711313247681,-0.0648689866065979,0.8531911373138428
307,30098,30096,-0.08986077457666397,-0.039645370095968246,1.0798231363296509,-1.1644537448883057,-2.799539804458618,-1.8512301445007324,2.0425775051116943,3.879122257232666,0.315402626991272,-0.5172843933105469,-0.09502102434635162,0.8336333632469177
308,30108,30106,-0.12188848108053207,0.04256868734955788,1.0363860130310059,0.6315273642539978,-3.5848002433776855,-1.4261406660079956,2.0413804054260254,3.8784000873565674,0.3155364692211151,-0.35699015855789185,-0.02214156463742256,0.8171097040176392
309,30118,30116,-0.04647320881485939,0.013383581303060055,0.976612389087677,1.112886905670166,-2.904583692550659,-1.5426452159881592,2.0427656173706055,3.880767345428467,0.3159429728984833,-0.38292109966278076,-0.09018192440271378,0.8543005585670471
310,30128,30126,-0.004792266990989447,0.11870750784873962,0.9814759492874146,2.0664331912994385,-0.9829652905464172,-1.2008296251296997,2.0435950756073,3.8807380199432373,0.3152579367160797,-0.3443449139595032,-0.05815416947007179,0.8403965830802917
311,30138,30136,0.02209092304110527,0.04207887127995491,0.9503275156021118,2.044206142425537,-0.652854323387146,-1.2184083461761475,2.0453152656555176,3.880422592163086,0.31601375341415405,-0.3223181962966919,-0.01838800683617592,0.829990565776825
312,30148,30146,-0.020159265026450157,-0.06717561930418015,0.9862249493598938,2.539611577987671,-3.873920440673828,-1.3794256448745728,2.044219970703125,3.880810022354126,0.3161121904850006,-0.1961807757616043,0.019457245245575905,0.8122619986534119
313,30158,30156,-0.07009861618280411,-0.1205214112997055,1.023696780204773,2.061624765396118,-2.6843819618225098,-1.2968940734863281,2.045095920562744,3.8808693885803223,0.31729835271835327,-0.14865460991859436,0.05223863944411278,0.8257620930671692
314,30168,30166,-0.06817743182182312,-0.08383652567863464,0.9541332125663757,0.37559717893600464,0.551288366317749,-1.3542498350143433,2.0470073223114014,3.880345106124878,0.31761589646339417,-0.2828351557254791,0.06915446370840073,0.7953690886497498
315,30178,30176,-0.07988613098859787,0.025158662348985672,0.9396218657493591,-1.6656162738800049,2.8529052734375,-2.0000264644622803,2.047992706298828,3.8810677528381348,0.3179733455181122,-0.2981833219528198,0.060427941381931305,0.8058840036392212
316,30188,30186,-0.10137156397104263,0.11436770111322403,0.9721742868423462,-2.169102191925049,2.609156847000122,-1.827484369277954,2.0490365028381348,3.88128399848938,0.3182838261127472,-0.3363226652145386,0.022067228332161903,0.7785794734954834
317,30198,30196,-0.05986744910478592,0.05325973406434059,0.9702034592628479,-2.776129961013794,2.0713229179382324,-1.8696961402893066,2.0505406856536865,3.881427049636841,0.317566454410553,-0.4487813413143158,-0.023802539333701134,0.7433967590332031
318,30208,30206,-0.0013539473293349147,-0.03737446293234825,0.934299886226654,-2.111816167831421,0.7335692644119263,-1.8042603731155396,2.0521838665008545,3.8811841011047363,0.3176634609699249,-0.5205475687980652,-0.058262817561626434,0.7698962688446045
319,30218,30216,0.021065523847937584,0.042459890246391296,0.955601692199707,-0.16474352777004242,-2.391185760498047,-2.354457378387451,2.0523383617401123,3.8827176094055176,0.31797289848327637,-0.39690515398979187,-0.07461272925138474,0.760847806930542
320,30228,30226,-0.011446845717728138,0.022947881370782852,0.9905332922935486,1.5999557971954346,-4.037086486816406,-2.194666862487793,2.0523266792297363,3.8829076290130615,0.3160601258277893,-0.24625635147094727,-0.05796321481466293,0.7385464906692505
321,30238,30236,-0.007604637183248997,0.004603000357747078,0.9891207218170166,3.111051082611084,-4.869308948516846,-2.016813278198242,2.052663564682007,3.882551908493042,0.3160169720649719,-0.15979145467281342,-0.013411834836006165,0.7128364443778992
322,30248,30246,-0.034799788147211075,0.060481127351522446,1.0171788930892944,3.7633349895477295,-3.1705434322357178,-1.7598683834075928,2.053847551345825,3.882516622543335,0.3159220516681671,-0.17061372101306915,0.047580428421497345,0.68648362159729
323,30258,30256,-0.025958476588129997,0.0784200131893158,0.9765723347663879,1.923038125038147,0.3752013146877289,-1.9632012844085693,2.056131362915039,3.8819518089294434,0.314158171415329,-0.30876052379608154,0.09243540465831757,0.6704602241516113
324,30268,30266,0.02702701836824417,0.027669645845890045,0.9016265273094177,-0.17236843705177307,3.136934757232666,-2.0281107425689697,2.056769371032715,3.8831851482391357,0.3140591084957123,-0.2531707286834717,-0.053410209715366364,0.6339004039764404
325,30278,30276,0.03444664180278778,0.038856010884046555,0.9181514978408813,-1.2355047464370728,3.7947630882263184,-1.8590010404586792,2.057706832885742,3.8833513259887695,0.3138292133808136,-0.31467515230178833,-0.05800314247608185,0.6191326975822449
326,30288,30286,0.012732724659144878,0.026286158710718155,0.9796698689460754,-1.3993589878082275,0.8183196187019348,-1.608206868171692,2.059929132461548,3.88318133354187,0.31163448095321655,-0.4831458330154419,-0.06280050426721573,0.6007869243621826
327,30298,30296,0.02997765876352787,-0.05261753499507904,1.0021796226501465,-0.8971933722496033,0.7261448502540588,-1.5365395545959473,2.060283899307251,3.8835129737854004,0.3112817704677582,-0.3939397931098938,-0.07979089021682739,0.5843586921691895
328,30308,30306,0.013351745903491974,-0.03970056027173996,1.0155408382415771,1.0380756855010986,-2.882911205291748,-1.2055777311325073,2.0608887672424316,3.882868528366089,0.3108483552932739,-0.3465786278247833,0.013800413347780704,0.5740147233009338
329,30318,30316,-0.032766710966825485,0.05218261107802391,1.0153687000274658,3.9563333988189697,-4.112026691436768,-1.3235853910446167,2.062912940979004,3.882375955581665,0.3101940155029297,-0.41183045506477356,0.0659990906715393,0.5509727597236633
330,30328,30326,-0.03296072781085968,0.04243379086256027,0.9991219639778137,6.140113830566406,-5.448936939239502,-0.7368242144584656,2.063427686691284,3.882537603378296,0.31023937463760376,-0.2837139964103699,0.08775974065065384,0.530286431312561
331,30338,30336,-0.0031507692765444517,-0.021066568791866302,1.0180696249008179,4.29345703125,-7.557002544403076,0.5474258065223694,2.063194751739502,3.882082462310791,0.3099449574947357,-0.12773296236991882,0.12454407662153244,0.5228846073150635
332,30348,30346,-0.011665781028568745,-0.1729535013437271,1.080678939819336,1.5000495910644531,-0.5082815885543823,-0.37942156195640564,2.066135883331299,3.881953716278076,0.3093552887439728,-0.2837388515472412,0.1987355798482895,0.525777280330658
333,30358,30356,0.05366358533501625,0.004028417635709047,0.9645543694496155,-2.330522298812866,2.510216474533081,-0.057531535625457764,2.066755771636963,3.8841845989227295,0.30941030383110046,-0.15825797617435455,0.1276487410068512,0.5753433704376221
334,30368,30366,-0.037457771599292755,0.08589546382427216,1.0872454643249512,-3.5864360332489014,0.4579828679561615,-0.517067015171051,2.068378448486328,3.883941411972046,0.3090624511241913,-0.23521704971790314,0.09592506289482117,0.5525287985801697
335,30378,30376,-0.01353529840707779,-0.020602475851774216,1.0360121726989746,-3.283672332763672,-0.30837905406951904,-0.30688610672950745,2.071302890777588,3.8840558528900146,0.30861061811447144,-0.44088253378868103,0.046180203557014465,0.5542406439781189
336,30388,30386,0.05125854164361954,-0.03544134274125099,1.0087777376174927,-1.421560287475586,-2.5426278114318848,-0.4397103190422058,2.0710501670837402,3.883655548095703,0.30804958939552307,-0.3069916069507599,0.0035501737147569656,0.5179282426834106
337,30398,30396,-0.020403670147061348,0.033401791006326675,0.9978737235069275,1.2122060060501099,-6.661172866821289,0.44119706749916077,2.073455333709717,3.8838891983032227,0.30765798687934875,-0.4604361057281494,-0.006947778165340424,0.5300189852714539
338,30408,30406,-0.03330251947045326,0.15304207801818848,1.0242947340011597,2.5082266330718994,-7.989617347717285,0.8222238421440125,2.072438955307007,3.883876085281372,0.30764079093933105,-0.2145431488752365,0.0182922575622797,0.5452491044998169
339,30418,30416,0.02035609260201454,0.023966174572706223,1.0421028137207031,4.012819290161133,-9.955575942993164,0.6356312036514282,2.0728282928466797,3.8835227489471436,0.3074997365474701,-0.09982850402593613,0.0717320665717125,0.5428382754325867
340,30428,30426,-0.0016010850667953491,-0.11329039186239243,1.0349899530410767,4.3976149559021,-9.12951946258545,0.7625028491020203,2.075066089630127,3.88297700881958,0.3036348521709442,-0.13202901184558868,0.1405923068523407,0.5503250956535339
341,30438,30436,-0.018696404993534088,-0.1337180882692337,0.9857326745986938,4.688753604888916,-7.595498561859131,0.9621073007583618,2.0754408836364746,3.883331775665283,0.3034047484397888,0.08153025060892105,0.14116306602954865,0.5557754635810852
342,30448,30446,-0.00568814342841506,-0.09546660631895065,0.976568341255188,2.080531597137451,-4.342763423919678,1.3421958684921265,2.0754666328430176,3.883519172668457,0.30314502120018005,0.24957062304019928,0.21756167709827423,0.5812642574310303
343,30458,30456,0.0141610037535429,-0.03592871502041817,1.013175368309021,-3.208423376083374,1.191776990890503,0.8424476981163025,2.077632427215576,3.883697032928467,0.30350202322006226,0.179077610373497,0.23356054723262787,0.5950904488563538
344,30468,30466,0.029232023283839226,-0.10537464171648026,1.0166071653366089,-4.964617729187012,3.131033182144165,0.9955329298973083,2.077723979949951,3.8842573165893555,0.3032798171043396,0.2880638539791107,0.1829531490802765,0.6183415651321411
345,30478,30476,0.003341151401400566,-0.08639264851808548,1.0541279315948486,-4.603644847869873,3.464495897293091,0.8733711838722229,2.079427719116211,3.8846189975738525,0.3029318153858185,0.1910293847322464,0.1073438972234726,0.6289997696876526
346,30488,30486,0.0286552757024765,-0.08860460668802261,0.9530155062675476,-3.254940986633301,3.976652145385742,0.4448629915714264,2.080772876739502,3.884960651397705,0.3051091432571411,0.1514739841222763,0.041598934680223465,0.6380003094673157
347,30498,30496,0.019324805587530136,-0.026602555066347122,1.012677788734436,-1.8957995176315308,2.7044811248779297,1.0208073854446411,2.0815675258636475,3.8843629360198975,0.3050384223461151,0.12256748229265213,0.07182782888412476,0.6399298906326294
348,30508,30506,0.028896717354655266,-0.03197408467531204,1.0110188722610474,2.8664402961730957,-1.5459927320480347,0.918701708316803,2.0815980434417725,3.8864994049072266,0.3050388693809509,0.21637415885925293,-0.014623453840613365,0.7134379744529724
349,30518,30516,0.018055787310004234,-0.027476273477077484,1.066732406616211,4.744694232940674,-3.6844725608825684,0.6688051819801331,2.0827548503875732,3.8867673873901367,0.30204999446868896,0.1961069107055664,0.04117124527692795,0.7234523892402649
350,30528,30526,0.02564234845340252,-0.012758644297719002,1.1032044887542725,4.938369274139404,-2.2850258350372314,1.2161262035369873,2.083625316619873,3.8877198696136475,0.30185577273368835,0.27286648750305176,0.05226040259003639,0.7868950366973877
351,30538,30536,0.029768746346235275,-0.027940824627876282,0.9937253594398499,3.6879000663757324,-1.2581000328063965,1.2717187404632568,2.0841903686523438,3.8893377780914307,0.30172452330589294,0.32987749576568604,0.1354956179857254,0.8572835922241211
352,30548,30546,-0.04083532467484474,0.1484195441007614,1.046066403388977,1.51638925075531,2.928013801574707,-0.03463808819651604,2.086902141571045,3.8904216289520264,0.3015070855617523,0.10130636394023895,0.1159137487411499,0.8953080773353577
353,30558,30556,-0.0042284466326236725,0.08841630816459656,1.0624898672103882,-0.19037123024463654,2.9869189262390137,-0.011656166054308414,2.0873641967773438,3.8895623683929443,0.3002614974975586,0.10453508049249649,0.15120285749435425,0.8663464784622192
354,30568,30566,-0.02681777998805046,0.06514180451631546,1.1359050273895264,-0.3809615671634674,0.26871001720428467,0.38338905572891235,2.0888776779174805,3.8894102573394775,0.30008888244628906,0.041691627353429794,0.16293953359127045,0.8430613875389099
355,30578,30576,-0.014784893952310085,0.030873937532305717,1.0685460567474365,-1.7319399118423462,0.027244044467806816,0.6992080211639404,2.0897605419158936,3.8893215656280518,0.3001597821712494,0.07243478298187256,0.1596418023109436,0.8451690077781677
356,30588,30586,-0.008056162856519222,-0.015151912346482277,1.010956048965454,-1.1062027215957642,-2.2812554836273193,1.3322581052780151,2.090768575668335,3.8890628814697266,0.29845982789993286,0.04707375913858414,0.155931755900383,0.8389684557914734
357,30598,30596,0.00894969329237938,0.017630252987146378,1.0087921619415283,-0.2116842418909073,-2.4456541538238525,0.4280843436717987,2.091463327407837,3.8884873390197754,0.29850447177886963,0.10969051718711853,0.22009959816932678,0.8520892262458801
358,30608,30606,-0.009123900905251503,0.054615676403045654,1.0386162996292114,0.8311835527420044,-3.9020602703094482,0.48448702692985535,2.092931032180786,3.8915834426879883,0.2986333668231964,0.18889406323432922,0.21358610689640045,0.9743341207504272
359,30618,30616,0.006665411870926619,-0.03541303053498268,1.0124658346176147,-0.3792530596256256,-3.3811304569244385,-0.5597878098487854,2.0934433937072754,3.891808271408081,0.3024168908596039,0.2828434407711029,0.22242671251296997,0.9844778180122375
360,30628,30626,0.052510980516672134,-0.08265295624732971,0.9628979563713074,-1.4920068979263306,-0.6995813846588135,-0.24992813169956207,2.0963518619537354,3.891770124435425,0.3025967478752136,0.11501848697662354,0.21448607742786407,0.9782583713531494
361,30638,30636,0.0030282107181847095,-0.025927985087037086,1.0095025300979614,-2.10587477684021,-1.0149959325790405,0.08024965226650238,2.097257137298584,3.8919804096221924,0.3029387593269348,0.1729399412870407,0.18921005725860596,0.9737326502799988
362,30648,30646,0.015883587300777435,0.004183351062238216,0.9787206053733826,-3.6158175468444824,1.3042749166488647,0.07678458839654922,2.097236394882202,3.892460823059082,0.30334481596946716,0.284284770488739,0.14878195524215698,0.9890672564506531
363,30658,30656,-0.013136163353919983,0.05907547473907471,1.003339409828186,-2.638461112976074,1.2072303295135498,-0.6866884827613831,2.0980093479156494,3.892782211303711,0.3064870834350586,0.2205711305141449,0.0995037779211998,1.0068023204803467
364,30668,30666,-0.0033071537036448717,-0.09356401115655899,0.9999760389328003,-2.61152982711792,-0.6162340641021729,-0.4874840974807739,2.0994560718536377,3.893050193786621,0.306927353143692,0.18904410302639008,0.05542397126555443,1.0030303001403809
365,30678,30676,-0.09945269674062729,-0.02378026209771633,1.068114995956421,-1.3187320232391357,-0.8702608942985535,-0.7953016757965088,2.099418878555298,3.8933145999908447,0.3073968291282654,0.25690507888793945,0.026324667036533356,1.0137791633605957
366,30688,30686,-0.07108147442340851,0.05768885463476181,0.9716593027114868,0.877517580986023,-0.38303065299987793,-1.017613172531128,2.0999763011932373,3.8941619396209717,0.30751627683639526,0.22476385533809662,-0.055416978895664215,1.0260146856307983
367,30698,30696,-0.010422514751553535,0.14466392993927002,0.9446704983711243,1.0890594720840454,1.333686351776123,-1.264202356338501,2.1001155376434326,3.8943164348602295,0.3081423342227936,0.32391873002052307,-0.036931321024894714,1.0326427221298218
368,30708,30706,0.05413872376084328,0.08095388114452362,0.9382898211479187,2.8160207271575928,0.6736291646957397,-1.2660030126571655,2.1006429195404053,3.894371271133423,0.308711975812912,0.397869348526001,-0.007013237569481134,1.0195503234863281
369,30718,30716,-0.015349257737398148,0.046355582773685455,1.032953143119812,4.575364589691162,1.058258056640625,-1.6454784870147705,2.1035025119781494,3.8947463035583496,0.3070438802242279,0.1658099889755249,0.04939208924770355,1.0271813869476318
370,30728,30726,-0.00937599502503872,-0.06836657971143723,0.9606592059135437,5.14506721496582,-0.387218177318573,-1.7038145065307617,2.1034603118896484,3.8924672603607178,0.3074285387992859,0.26319149136543274,0.12795646488666534,0.920730471611023
371,30738,30736,-0.028765032067894936,-0.03144587576389313,0.9894565343856812,3.015178918838501,0.5481718182563782,-1.449037790298462,2.1044538021087646,3.892216920852661,0.30771538615226746,0.26608356833457947,0.20599374175071716,0.9018449783325195
372,30748,30746,-0.09780611842870712,0.0866570696234703,0.9902791976928711,0.040955789387226105,1.097570776939392,-1.4235255718231201,2.105067729949951,3.89319109916687,0.3080221712589264,0.2553361654281616,0.18714389204978943,0.8953049778938293
373,30758,30756,-0.06741052865982056,0.18981841206550598,0.9614903330802917,-2.7176332473754883,2.6182937622070312,-1.4033055305480957,2.1060309410095215,3.893305778503418,0.3075770437717438,0.25862911343574524,0.17967864871025085,0.8958318829536438
374,30768,30766,-0.005907678976655006,0.18213148415088654,0.9751647710800171,-3.9384186267852783,2.220817804336548,-1.8947396278381348,2.1062915325164795,3.8928654193878174,0.30782458186149597,0.31036704778671265,0.2174745351076126,0.8791354298591614
375,30778,30776,0.017810432240366936,0.16185635328292847,1.0197534561157227,-2.8406121730804443,2.7422068119049072,-1.993911623954773,2.107142448425293,3.8928842544555664,0.30797165632247925,0.271001398563385,0.15700756013393402,0.854649543762207
376,30788,30786,0.007743282243609428,0.05407029017806053,1.0041165351867676,-1.7244105339050293,2.6807072162628174,-2.537672281265259,2.1077427864074707,3.891475200653076,0.30516496300697327,0.13302212953567505,0.08450647443532944,0.7245238423347473
377,30798,30796,-0.03171442449092865,0.03568458557128906,0.9977569580078125,-0.6776291728019714,4.127387046813965,-2.5704185962677,2.1081936359405518,3.8911218643188477,0.30518242716789246,0.19588299095630646,0.08018449693918228,0.7432193756103516
378,30808,30806,-0.018661750480532646,0.05758034437894821,0.9515602588653564,0.27909407019615173,3.834148645401001,-2.4180688858032227,2.1102631092071533,3.893325090408325,0.3051082193851471,0.0624598003923893,0.06770600378513336,0.7930019497871399
379,30818,30816,-0.010143996216356754,0.015225263312458992,0.9723471999168396,0.28705501556396484,2.7091169357299805,-2.2842655181884766,2.11125111579895,3.893399953842163,0.3071058690547943,0.017322713509202003,0.14292751252651215,0.8027270436286926
380,30828,30826,-0.01773292012512684,0.11539848148822784,1.0113219022750854,1.8373900651931763,2.379733085632324,-2.303175210952759,2.1113009452819824,3.893500804901123,0.3070974349975586,-0.011005283333361149,0.14538228511810303,0.8268294930458069
381,30838,30836,0.022591482847929,0.029880374670028687,0.9875829815864563,0.6341824531555176,1.1555447578430176,-2.0550503730773926,2.111158847808838,3.8945887088775635,0.3072592616081238,0.05221762880682945,0.08699183166027069,0.8078235387802124
382,30848,30846,-0.014865347184240818,0.012260864488780499,1.0620460510253906,0.6783544421195984,0.35584113001823425,-2.1803364753723145,2.112039089202881,3.8945255279541016,0.30356401205062866,0.046785514801740646,0.10528907924890518,0.786600649356842
383,30858,30856,-0.02387748286128044,0.02089913934469223,1.0552152395248413,-0.7281414270401001,0.974627673625946,-2.1956357955932617,2.1120476722717285,3.8961446285247803,0.3034282922744751,0.05173623561859131,0.10993517190217972,0.8462884426116943
384,30868,30866,-0.03513675555586815,0.10489897429943085,1.029075026512146,-1.5904433727264404,2.7363216876983643,-3.165452241897583,2.113689661026001,3.8964123725891113,0.30325764417648315,-0.037848494946956635,0.09384867548942566,0.8224397897720337
385,30878,30876,0.012032924219965935,0.11555761843919754,0.9422206878662109,-2.2606754302978516,5.5731401443481445,-3.422758102416992,2.1132822036743164,3.896707773208618,0.30318209528923035,-0.004702417179942131,0.06520118564367294,0.810632586479187
386,30888,30886,0.013045397587120533,0.03818398341536522,0.9703080654144287,-2.0436346530914307,5.823325157165527,-2.853864908218384,2.114987373352051,3.89650559425354,0.30543625354766846,-0.1432669311761856,0.10752251744270325,0.812720775604248
387,30898,30896,0.02742788940668106,-0.013162702322006226,0.974250853061676,-1.0263957977294922,4.852352142333984,-2.476619005203247,2.1147449016571045,3.8975582122802734,0.3054881989955902,-0.14215907454490662,-0.009524901397526264,0.7847835421562195
388,30908,30906,0.008352345786988735,-0.03284382075071335,1.0263569355010986,-0.06531606614589691,1.0074714422225952,-2.3607170581817627,2.1142849922180176,3.896989345550537,0.3055534362792969,-0.1122683435678482,0.05932285636663437,0.7739667296409607
389,30918,30916,-0.017344247549772263,-0.053089749068021774,1.0916396379470825,1.3562703132629395,-1.7990037202835083,-2.428943634033203,2.1170544624328613,3.8969578742980957,0.3023640811443329,-0.34054505825042725,0.06160704791545868,0.7492374181747437
390,30928,30926,-0.036593761295080185,0.04750920087099075,1.0798817873001099,1.1221439838409424,-1.6444774866104126,-2.273319959640503,2.116940498352051,3.8974647521972656,0.3024325668811798,-0.1944132298231125,0.16177967190742493,0.7964168787002563
391,30938,30936,-0.03504699468612671,0.18188276886940002,1.0016810894012451,1.417386770248413,-0.9131925106048584,-2.4895689487457275,2.118659019470215,3.8969569206237793,0.3023515045642853,-0.2263270765542984,0.2522159218788147,0.7945653200149536
392,30948,30946,-0.03346598893404007,0.21632637083530426,0.9782694578170776,-1.5942904949188232,1.0094636678695679,-2.4741923809051514,2.119152307510376,3.8979079723358154,0.29942429065704346,-0.27775904536247253,0.15575151145458221,0.7853104472160339
393,30958,30956,0.03620993718504906,0.05828838795423508,0.9366426467895508,-3.5611279010772705,-0.20271199941635132,-2.5461559295654297,2.1190617084503174,3.899876594543457,0.2993653118610382,-0.17697745561599731,0.10763242095708847,0.8319330811500549
394,30968,30966,-0.025337664410471916,0.022713573649525642,1.0513588190078735,-6.2798261642456055,-0.0556827075779438,-3.290940761566162,2.1192128658294678,3.9018280506134033,0.2993001341819763,-0.08365973085165024,0.026892824098467827,0.8845034837722778
395,30978,30976,-0.04107606038451195,-0.008812462911009789,1.039946436882019,-5.510564804077148,-3.095153331756592,-4.251435279846191,2.1208109855651855,3.9016125202178955,0.29898107051849365,-0.2105848342180252,0.0031905153300613165,0.861929714679718
396,30988,30986,-0.08454067260026932,0.06399881839752197,1.037108302116394,-6.011102199554443,0.4377134442329407,-3.2871670722961426,2.121696949005127,3.9009628295898438,0.3051760494709015,-0.2545698881149292,-0.1057216003537178,0.7950417995452881
397,30998,30996,-0.043381936848163605,0.04260815307497978,0.9937810897827148,-2.624685287475586,1.908769965171814,-3.4776008129119873,2.121460437774658,3.8999931812286377,0.30552056431770325,-0.16088096797466278,-0.03436358645558357,0.7644410729408264
398,31008,31006,-0.021309731528162956,-0.02347690239548683,1.0154497623443604,1.1131964921951294,-0.9715335965156555,-2.449416160583496,2.1221601963043213,3.9016036987304688,0.30580881237983704,-0.14764326810836792,-0.06996878981590271,0.8115301728248596
399,31018,31016,-0.007203043904155493,0.04935258999466896,1.0353270769119263,1.6472572088241577,-0.3932092487812042,-2.4804956912994385,2.122642993927002,3.9026169776916504,0.30410265922546387,-0.12171468138694763,-0.065188929438591,0.8433135747909546
400,31028,31026,-0.019197478890419006,-0.004997408017516136,1.0258375406265259,2.2005136013031006,-0.1830039918422699,-3.7161245346069336,2.1253583431243896,3.9044103622436523,0.30414122343063354,-0.32818174362182617,-0.11365120857954025,0.8876785635948181
401,31038,31036,-0.05500902235507965,-0.018313072621822357,0.9975264668464661,1.6124523878097534,0.04665705934166908,-3.9804556369781494,2.125688076019287,3.903822183609009,0.30439817905426025,-0.28263574838638306,-0.07932873070240021,0.8412923216819763
402,31048,31046,-0.03771588206291199,0.007918271236121655,0.9963981509208679,0.11335676908493042,-0.2547636032104492,-3.271470785140991,2.1254074573516846,3.903801441192627,0.30154743790626526,-0.2481967806816101,-0.06451282650232315,0.794437050819397
403,31058,31056,0.02053036540746689,-0.01958644576370716,0.9692983627319336,-2.3512113094329834,-1.8774522542953491,-3.285470485687256,2.1267776489257812,3.904562473297119,0.3015166223049164,-0.28314778208732605,-0.15879890322685242,0.7560135722160339
404,31068,31066,-0.008214197121560574,-0.017047913745045662,1.0030239820480347,-2.8589303493499756,-2.7076573371887207,-3.2714359760284424,2.1281063556671143,3.904829502105713,0.3014761507511139,-0.2904801070690155,-0.19330522418022156,0.722607433795929
405,31078,31076,-0.02406354621052742,-0.003589565632864833,1.0162615776062012,-2.639241933822632,-5.769870758056641,-2.9313087463378906,2.1271822452545166,3.9044761657714844,0.30161404609680176,-0.11207693070173264,-0.15154294669628143,0.707292914390564
406,31088,31086,-0.036928024142980576,-0.03188931569457054,1.0564764738082886,0.7337517142295837,-5.678625106811523,-3.6475629806518555,2.1277694702148438,3.9046900272369385,0.296695351600647,-0.06262621283531189,-0.1744556427001953,0.6942946314811707
407,31098,31096,-0.037579648196697235,0.007425451651215553,1.047149896621704,1.6040077209472656,-2.017632246017456,-3.789452075958252,2.128962278366089,3.9037482738494873,0.2964516580104828,-0.03143656998872757,-0.15589937567710876,0.6174444556236267
408,31108,31106,0.0023946822620928288,0.014771999791264534,0.9557044506072998,1.564828872680664,2.564901828765869,-2.9968373775482178,2.1302521228790283,3.9038827419281006,0.2962016761302948,-0.06869854032993317,-0.1230214536190033,0.6210570335388184
409,31118,31116,0.015898844227194786,-0.05689011886715889,0.9423774480819702,0.8492539525032043,3.153932809829712,-2.3025877475738525,2.130594253540039,3.9039618968963623,0.2972736954689026,-0.08241605758666992,-0.10517814755439758,0.6152694225311279
410,31128,31126,0.01865077018737793,-0.13766808807849884,1.0511364936828613,-0.6015223264694214,3.6611733436584473,-2.2481343746185303,2.1314034461975098,3.9039032459259033,0.2971024513244629,-0.11422736942768097,-0.10620097815990448,0.5649235844612122
411,31138,31136,0.053069211542606354,-0.1991545557975769,1.0671969652175903,-0.14521154761314392,1.3982298374176025,-2.512704849243164,2.132117986679077,3.9042725563049316,0.2969328761100769,-0.20238758623600006,-0.11054300516843796,0.5668904185295105
412,31148,31146,0.011047889478504658,-0.15963955223560333,1.0774576663970947,-0.23509006202220917,0.5305923819541931,-3.0458850860595703,2.1328086853027344,3.9054508209228516,0.29692333936691284,-0.17487511038780212,-0.11358287930488586,0.5993714928627014
413,31158,31156,0.02600909024477005,-0.11234470456838608,0.977022647857666,-0.6848958134651184,1.8759756088256836,-3.979187488555908,2.133181095123291,3.905446767807007,0.29698508977890015,-0.1506507843732834,-0.04167470708489418,0.6087031364440918
414,31168,31166,-0.0037381374277174473,0.08468451350927353,0.9896530508995056,-1.655337929725647,2.5445876121520996,-4.4193925857543945,2.1347315311431885,3.9068427085876465,0.2969343960285187,-0.22273147106170654,-0.1487186998128891,0.6211782693862915
415,31178,31176,0.07412286102771759,0.041544314473867416,0.916897714138031,-2.4180147647857666,0.7585884928703308,-4.174405574798584,2.1340811252593994,3.907437562942505,0.2969716787338257,-0.12715546786785126,-0.17497742176055908,0.5932983756065369
416,31188,31186,0.013780483044683933,0.03743431344628334,1.0472193956375122,-1.8562524318695068,-3.9696760177612305,-3.953709125518799,2.1354944705963135,3.907480001449585,0.29578375816345215,-0.16136567294597626,-0.20638889074325562,0.5444492697715759
417,31198,31196,0.00410046149045229,-0.039692897349596024,1.0398401021957397,-0.4982098639011383,-4.387566089630127,-3.396007776260376,2.1368956565856934,3.907219409942627,0.29564398527145386,-0.14024898409843445,-0.21961236000061035,0.4835660457611084
418,31208,31206,-0.015260716900229454,-0.06621172279119492,1.0678026676177979,1.6335703134536743,-3.466062068939209,-3.1547863483428955,2.138883113861084,3.9072275161743164,0.2954426109790802,-0.2013714760541916,-0.2070416808128357,0.47152623534202576
419,31218,31216,-0.07818863540887833,0.10268336534500122,1.0468039512634277,3.016489028930664,-2.0726091861724854,-2.9144482612609863,2.138807535171509,3.906613826751709,0.2942207455635071,-0.09315319359302521,-0.08023052662611008,0.46078255772590637
420,31228,31226,-0.027230815961956978,0.13395315408706665,1.0028419494628906,1.9604095220565796,0.671429455280304,-2.9616951942443848,2.139385223388672,3.9068210124969482,0.29420205950737,-0.03696654736995697,-0.03586394339799881,0.42927947640419006
421,31238,31236,0.020205965265631676,0.06705757230520248,1.0400869846343994,0.9440863132476807,0.6733924150466919,-2.8372299671173096,2.140807867050171,3.9070963859558105,0.2941262722015381,-0.0903235599398613,-0.09126097708940506,0.3870120048522949
422,31248,31246,0.01885799504816532,-0.16881926357746124,1.0396819114685059,-0.22046202421188354,0.30003151297569275,-2.948988676071167,2.1409800052642822,3.9072580337524414,0.2961755692958832,-0.05524158477783203,-0.08314366638660431,0.37225717306137085
423,31258,31256,-0.003365479875355959,-0.053673796355724335,1.0220392942428589,-1.3060754537582397,-0.21181847155094147,-3.365863800048828,2.141757011413574,3.9073450565338135,0.2963513433933258,-0.020965760573744774,-0.09152879565954208,0.3611411154270172
424,31268,31266,-0.009367884136736393,-0.014843595214188099,1.0220240354537964,-1.2956452369689941,-1.3780542612075806,-3.3119850158691406,2.1415233612060547,3.908238649368286,0.2965003550052643,0.01936085894703865,-0.191669762134552,0.3455771803855896
425,31278,31276,0.026642145588994026,-0.047799646854400635,0.9882020354270935,-0.728584349155426,-0.5752639770507812,-2.974381685256958,2.1428215503692627,3.90847110748291,0.29746001958847046,-0.009594166651368141,-0.20160095393657684,0.304079532623291
426,31288,31286,0.04291106015443802,-0.019921818748116493,1.0064016580581665,1.122788906097412,-0.16442623734474182,-4.071915149688721,2.1439573764801025,3.908855438232422,0.2976807653903961,-0.04436367377638817,-0.18811434507369995,0.2972738742828369
427,31298,31296,-0.06799863278865814,0.03995607793331146,1.0329846143722534,2.270780563354492,0.08126339316368103,-3.9114673137664795,2.144731283187866,3.90995454788208,0.29795190691947937,-0.00966340396553278,-0.15118519961833954,0.3186649680137634
428,31308,31306,-0.024005066603422165,0.005396501161158085,1.0226736068725586,2.6083507537841797,-1.5178031921386719,-3.87483286857605,2.1459107398986816,3.9098708629608154,0.29819178581237793,-0.037464894354343414,-0.0989527478814125,0.27821508049964905
429,31318,31316,0.0039923423901200294,-0.024028608575463295,1.0206085443496704,2.503574848175049,-2.2205896377563477,-3.34427547454834,2.1472668647766113,3.90942645072937,0.2980484962463379,-0.05127605423331261,-0.051440827548503876,0.24077869951725006
430,31328,31326,-0.013907133601605892,-0.05894056707620621,1.0341740846633911,3.8871328830718994,-1.7246239185333252,-2.9277212619781494,2.147684097290039,3.909722089767456,0.2982513904571533,-0.0669703260064125,0.007948778569698334,0.24900272488594055
431,31338,31336,0.033603012561798096,-0.015707146376371384,0.9976540207862854,2.7380990982055664,-2.3135526180267334,-2.4171676635742188,2.1482961177825928,3.9094364643096924,0.29861849546432495,-0.002470932900905609,0.06646318733692169,0.21348422765731812
432,31348,31346,-0.016502711921930313,0.07249663025140762,1.0786737203598022,1.8090894222259521,-3.4077870845794678,-2.4210641384124756,2.1493980884552,3.909510850906372,0.2982557713985443,-0.0827161967754364,0.1041741594672203,0.2089405208826065
433,31358,31356,0.00010913778532994911,-0.012315930798649788,1.009639859199524,-0.25632160902023315,-1.6668039560317993,-3.3214783668518066,2.1494693756103516,3.909587860107422,0.2986815273761749,0.000393949041608721,0.1155422180891037,0.19428803026676178
434,31368,31366,-0.013962744735181332,-0.024648239836096764,0.9991196990013123,-1.8941172361373901,-1.0907185077667236,-2.7278571128845215,2.150275945663452,3.9099485874176025,0.29913559556007385,0.07270371168851852,0.023657318204641342,0.13829192519187927
435,31378,31376,-0.0038332100957632065,0.0050862450152635574,1.018142819404602,-1.975655436515808,-2.3127894401550293,-3.0831987857818604,2.1501386165618896,3.909679889678955,0.2982819974422455,0.07013498991727829,0.07856762409210205,0.14510178565979004
436,31388,31386,-0.004686959553509951,0.07245979458093643,0.9595033526420593,-2.595430374145508,-0.44175779819488525,-2.8907370567321777,2.1502554416656494,3.9098870754241943,0.2987353503704071,0.21674728393554688,0.03790304437279701,0.1167963519692421
437,31398,31396,0.02659662812948227,-0.01426562387496233,0.9220821261405945,-2.41355299949646,-0.5814452767372131,-2.371105909347534,2.1531155109405518,3.9093871116638184,0.2989036738872528,0.012477378360927105,-0.009564721025526524,0.049327302724123
438,31408,31406,0.01283301692456007,-0.08081697672605515,0.9588177800178528,-1.4071366786956787,0.08086185902357101,-2.174062967300415,2.1536760330200195,3.9098076820373535,0.2991850674152374,0.05790271982550621,-0.04378441721200943,0.04966556653380394
439,31418,31416,-0.005628538783639669,-0.08019373565912247,1.0026570558547974,-0.5183444023132324,0.271902471780777,-2.6402721405029297,2.154108762741089,3.9104862213134766,0.30064189434051514,0.020486706867814064,-0.13593660295009613,0.04128563031554222
440,31428,31426,0.018304480239748955,-0.02971726469695568,0.9884617924690247,0.2038206309080124,-0.2030784636735916,-2.7174770832061768,2.1556618213653564,3.9105136394500732,0.3008420169353485,-0.015796242281794548,-0.12199176102876663,0.0002544187882449478
441,31438,31436,0.001368942903354764,-0.01627299375832081,0.9763189554214478,1.5403400659561157,-1.2122690677642822,-2.775073289871216,2.1554603576660156,3.9100255966186523,0.3012530207633972,0.10835222154855728,-0.10058927536010742,-0.04263145849108696
442,31448,31446,0.012989263981580734,-0.08545790612697601,0.9534280896186829,2.6229140758514404,-0.595190167427063,-2.9105286598205566,2.155245304107666,3.9100522994995117,0.30136436223983765,0.17217673361301422,-0.05453292280435562,-0.0476122610270977
443,31458,31456,0.01871621422469616,-0.04614992067217827,0.9606853127479553,3.131028652191162,-2.7650249004364014,-2.7072718143463135,2.1560580730438232,3.9097812175750732,0.301552414894104,0.1664814054965973,-0.004281815607100725,-0.07443257421255112
444,31468,31466,-0.005218250676989555,0.015434615314006805,1.0050323009490967,1.6382440328598022,-1.4889038801193237,-2.147883653640747,2.158003330230713,3.9109697341918945,0.30158719420433044,0.08867597579956055,0.04421060532331467,-0.025186119601130486
445,31478,31476,-0.0440199077129364,-0.03542986884713173,1.0356146097183228,1.6479302644729614,-4.212716102600098,-3.1552422046661377,2.1572673320770264,3.9107208251953125,0.2996017634868622,0.2828357219696045,0.07548326998949051,-0.05938567593693733
446,31488,31486,-0.04174094274640083,-0.009872623719274998,1.0320305824279785,0.7440928816795349,-1.4644922018051147,-2.5252225399017334,2.1592094898223877,3.9123668670654297,0.29957714676856995,0.2012130469083786,-0.057630084455013275,-0.0530100017786026
447,31498,31496,0.02549901232123375,0.009000623598694801,0.9195466041564941,-1.083268642425537,0.9528864026069641,-1.8746492862701416,2.1602303981781006,3.9127395153045654,0.2996540665626526,0.23554494976997375,-0.042813219130039215,-0.07072523236274719
448,31508,31506,-0.02781130187213421,-0.03188428655266762,1.019474744796753,-0.6187947392463684,0.576111912727356,-2.102938652038574,2.1597540378570557,3.912839651107788,0.2995286285877228,0.3189149796962738,-0.05129116773605347,-0.08214759826660156
449,31518,31516,-0.028255203738808632,-0.0030652908608317375,1.0327949523925781,-0.5327470898628235,3.7739760875701904,-2.049715757369995,2.1609199047088623,3.9124653339385986,0.29952943325042725,0.29732438921928406,-0.05256318673491478,-0.1313129961490631
450,31528,31526,0.02018897980451584,-0.020564015954732895,1.002355694770813,1.7469823360443115,4.470241546630859,-1.1577297449111938,2.1609718799591064,3.913522720336914,0.2994711101055145,0.24720843136310577,-0.10873585939407349,-0.1088457927107811
451,31538,31536,-0.025159506127238274,0.08169110119342804,0.9987231492996216,3.409677028656006,5.690129280090332,-1.7170625925064087,2.1632070541381836,3.912501811981201,0.29932981729507446,0.033853959292173386,-0.03879884257912636,-0.14964158833026886
452,31548,31546,0.020583704113960266,0.11230428516864777,0.9218786358833313,3.89320707321167,4.805175304412842,-1.592928171157837,2.1642346382141113,3.9133424758911133,0.2995541989803314,-0.014977069571614265,0.040774211287498474,-0.11638094484806061
453,31558,31556,-0.005338053219020367,0.11095477640628815,1.0328601598739624,4.31054162979126,0.9612368941307068,-1.537860631942749,2.164141893386841,3.9145359992980957,0.29967138171195984,0.04374434053897858,0.047337695956230164,-0.08213302493095398
454,31568,31566,-0.009245584718883038,-0.046561289578676224,1.0160001516342163,3.4338269233703613,-3.5906105041503906,-1.4643762111663818,2.1648123264312744,3.914109706878662,0.29970303177833557,0.0821925550699234,0.13272586464881897,-0.12404406070709229
455,31578,31576,-0.0767531543970108,-0.20849119126796722,1.1113595962524414,3.154273748397827,-7.648858070373535,-1.2598515748977661,2.1663312911987305,3.914824962615967,0.3018597960472107,0.055776458233594894,0.1263299137353897,-0.052538689225912094
456,31588,31586,-0.06740453839302063,-0.09644918143749237,1.1069968938827515,1.3372573852539062,-1.9575169086456299,-1.9198038578033447,2.1674370765686035,3.915888547897339,0.30211907625198364,0.21727919578552246,0.1728740930557251,-0.07685896754264832
457,31598,31596,0.009578506462275982,-0.010231426917016506,0.9818166494369507,-1.3704913854599,-0.6998816132545471,-1.6767826080322266,2.1679186820983887,3.9165923595428467,0.3024247884750366,0.11130443960428238,0.10917147248983383,-0.0760226920247078
458,31608,31606,0.03478693962097168,0.054692208766937256,0.9584183692932129,-3.242636203765869,2.6011109352111816,-1.8904972076416016,2.1694884300231934,3.9168262481689453,0.3041784465312958,0.060618333518505096,0.09179743379354477,-0.09343327581882477
459,31618,31616,0.05748322606086731,-0.034270621836185455,0.9472137689590454,-3.0991079807281494,4.333415985107422,-1.61623215675354,2.1694254875183105,3.9182209968566895,0.30462563037872314,0.12522917985916138,0.05715993046760559,-0.04042763635516167
460,31628,31626,0.012072636745870113,-0.07531923800706863,0.9942314028739929,-0.7963294386863708,0.5660482048988342,-2.2181479930877686,2.1708691120147705,3.918017864227295,0.30490273237228394,0.04822096601128578,0.04747680574655533,-0.09706342220306396
461,31638,31636,0.032563213258981705,-0.1020260825753212,0.9932090640068054,2.1211061477661133,-0.6309278011322021,-1.8075752258300781,2.1720361709594727,3.9177658557891846,0.30522963404655457,0.15435171127319336,0.07713547348976135,-0.1178252100944519
462,31648,31646,0.0042788307182490826,-0.07568657398223877,1.035897970199585,4.125547885894775,-1.844583511352539,-1.177874207496643,2.1717300415039062,3.918256998062134,0.3066527843475342,0.19433557987213135,0.14455018937587738,-0.08019506186246872
463,31658,31656,-0.0030577979050576687,-0.19950689375400543,1.0167585611343384,5.226834297180176,-2.1443309783935547,-1.7108041048049927,2.172832727432251,3.9192211627960205,0.3070443868637085,0.16828285157680511,0.15547722578048706,-0.07448150217533112
464,31668,31666,0.03327207267284393,-0.09906335920095444,0.940241813659668,5.296986103057861,-0.8271514177322388,-2.013849973678589,2.1741790771484375,3.9204559326171875,0.30752238631248474,0.21870090067386627,0.2630196511745453,-0.005517233163118362
465,31678,31676,0.03572435677051544,0.06813282519578934,0.9702070951461792,3.3481369018554688,2.275688648223877,-2.4650723934173584,2.174987554550171,3.9205095767974854,0.3084356486797333,0.2238713651895523,0.26851797103881836,0.02244632877409458
466,31688,31686,0.09285587072372437,0.0759747251868248,0.9463176131248474,1.0244240760803223,3.9249589443206787,-2.4955053329467773,2.1767654418945312,3.922734260559082,0.308762788772583,0.12386524677276611,0.24767810106277466,0.04754748195409775
467,31698,31696,0.12615308165550232,-0.013394688256084919,0.9387666583061218,-1.709929347038269,4.774041652679443,-2.7871129512786865,2.1772918701171875,3.9229390621185303,0.3090396523475647,0.08743874728679657,0.26436901092529297,0.018420789390802383
468,31708,31706,0.07155866175889969,-0.030889589339494705,0.9789208173751831,-1.3464552164077759,-0.5662906765937805,-2.4937376976013184,2.17767596244812,3.9231317043304443,0.31065279245376587,0.06778807938098907,0.2524372339248657,-0.012342434376478195
469,31718,31716,0.05102924257516861,-0.016828902065753937,0.976476788520813,-1.8672773838043213,2.5917139053344727,-3.388624429702759,2.1790390014648438,3.924960136413574,0.31098416447639465,0.06308411806821823,0.23801612854003906,0.0694659948348999
470,31728,31726,0.014667246490716934,-0.0993439108133316,0.9598331451416016,-0.39408889412879944,1.3872039318084717,-3.6911122798919678,2.1797549724578857,3.925461530685425,0.31128281354904175,0.054271284490823746,0.23123230040073395,0.05436629056930542
471,31738,31736,-0.013495441526174545,-0.12253483384847641,0.954189121723175,1.6231961250305176,-0.20197637379169464,-3.2250661849975586,2.1821658611297607,3.925231695175171,0.31140974164009094,-0.07822858542203903,0.25816866755485535,0.0033457621466368437
472,31748,31746,-0.013403092510998249,-0.04914136230945587,0.9698212146759033,2.1183245182037354,-0.638710618019104,-2.3444738388061523,2.183051109313965,3.926051378250122,0.3100116550922394,-0.03443291038274765,0.22493748366832733,0.03396783024072647
473,31758,31756,-0.00014143659791443497,0.0069213141687214375,0.9770485162734985,1.9151159524917603,-1.2907812595367432,-2.291912794113159,2.1834840774536133,3.9266083240509033,0.31013113260269165,0.009699883870780468,0.27319255471229553,0.012424374930560589
474,31768,31766,0.057904548943042755,-0.014790828339755535,0.9442785382270813,1.7187659740447998,-0.7172147035598755,-1.6900873184204102,2.1838157176971436,3.926433801651001,0.31009674072265625,-0.019229967147111893,0.31505540013313293,0.0011687964433804154
475,31778,31776,0.08825913071632385,-0.014342384412884712,0.9715752601623535,1.6334151029586792,-0.30050164461135864,-1.539552927017212,2.183548927307129,3.926741600036621,0.30980241298675537,0.10455792397260666,0.27807652950286865,-0.013967727310955524
476,31788,31786,0.08738352358341217,-0.05803603306412697,0.9939276576042175,1.1072746515274048,0.6099492907524109,-1.456916093826294,2.1851963996887207,3.926478385925293,0.3097139000892639,0.058799199759960175,0.3160001039505005,-0.053584661334753036
477,31798,31796,0.026051942259073257,-0.03525368496775627,0.9934292435646057,0.9837045669555664,1.8776710033416748,-1.3746620416641235,2.1868112087249756,3.9267027378082275,0.3096049427986145,0.01552350353449583,0.3503195643424988,-0.04251745715737343
478,31808,31806,0.021992845460772514,-0.03516710549592972,0.9954296946525574,0.5904566645622253,3.3893356323242188,-1.5143351554870605,2.1872520446777344,3.9260435104370117,0.30899715423583984,0.009767013601958752,0.4491385519504547,-0.04176478087902069
