,timestamp_start,timestamp_end,acc.x,acc.y,acc.z,gyro.x,gyro.y,gyro.z,stateEstimate.x,stateEstimate.y,stateEstimate.z,stabilizer.pitch,stabilizer.roll,stabilizer.yaw
0,20312,20309,0.0310196615755558,0.0006003116141073406,1.057094693183899,0.9996119141578674,0.3327878713607788,1.4350014925003052,2.041470766067505,4.0703229904174805,0.17637783288955688,-0.23551718890666962,-0.8118101954460144,3.381380319595337
1,20322,20319,0.005739159882068634,0.019792303442955017,1.0702741146087646,-2.8003828525543213,5.012912273406982,1.2675408124923706,2.0395638942718506,4.0721354484558105,0.1781039834022522,-0.36021196842193604,-0.8725358843803406,3.399001121520996
2,20332,20329,-0.04273303970694542,0.009251638315618038,0.9981511831283569,-3.4936094284057617,7.145847320556641,1.1701689958572388,2.0391759872436523,4.074743270874023,0.1796705722808838,-0.44510769844055176,-0.8852223753929138,3.411391258239746
3,20342,20339,-0.019515080377459526,-0.038017839193344116,0.9866757392883301,-1.7184016704559326,7.450150489807129,1.6271402835845947,2.0364749431610107,4.076319694519043,0.1814800202846527,-0.5814407467842102,-0.9084064364433289,3.414930582046509
4,20352,20349,0.020753992721438408,-0.17003871500492096,1.071683645248413,4.972658634185791,3.735722064971924,0.5226178765296936,2.036700963973999,4.076322555541992,0.1833854764699936,-0.6801440119743347,-0.887162446975708,3.4349517822265625
5,20362,20359,0.03717200458049774,-0.0862509086728096,1.094427466392517,8.196371078491211,-0.17180010676383972,1.0009135007858276,2.036147356033325,4.077892780303955,0.1859229952096939,-0.6897603273391724,-0.8473556637763977,3.439671754837036
6,20372,20369,0.021751025691628456,-0.018401654437184334,0.9635884761810303,12.873824119567871,-5.711916923522949,0.192537322640419,2.036956787109375,4.079555034637451,0.18782463669776917,-0.7488434910774231,-0.9375864267349243,3.430480718612671
7,20382,20379,-0.009300051257014275,-0.009491326287388802,1.0753552913665771,13.754512786865234,-10.584925651550293,0.12725086510181427,2.031883716583252,4.081529140472412,0.19064785540103912,0.017290543764829636,-0.9530593752861023,3.3624954223632812
8,20392,20389,-0.05149153620004654,-0.04978166148066521,1.1458368301391602,12.482060432434082,-6.773946285247803,0.0875462219119072,2.033729076385498,4.082778453826904,0.19287782907485962,-0.12021514028310776,-0.785270631313324,3.387242078781128
9,20402,20399,-0.019363338127732277,-0.009373404085636139,1.0918047428131104,14.558247566223145,-5.247878074645996,1.0935739278793335,2.033188581466675,4.084914684295654,0.1954648643732071,-0.0052553946152329445,-0.6034319400787354,3.393414258956909
10,20412,20409,-0.03825857490301132,0.09998864680528641,1.039502501487732,14.083745956420898,0.052598919719457626,0.605185329914093,2.0338735580444336,4.085403919219971,0.19807955622673035,-0.04530540108680725,-0.42307522892951965,3.4152162075042725
11,20422,20419,0.009767209179699421,-0.024575022980570793,1.0142959356307983,12.44258975982666,4.702934741973877,0.43117445707321167,2.032971143722534,4.082705974578857,0.20084425806999207,-0.11346476525068283,-0.14049121737480164,3.436763286590576
12,20432,20429,-0.03673936426639557,-0.05631604045629501,1.0419244766235352,8.697258949279785,7.856078624725342,0.06958227604627609,2.032043933868408,4.085567474365234,0.20342616736888885,-0.2154839038848877,-0.31116849184036255,3.4191973209381104
13,20442,20439,-0.04669535160064697,-0.01601864956319332,0.967382550239563,7.777409553527832,7.124466896057129,-0.299714058637619,2.03174090385437,4.0869669914245605,0.20596610009670258,-0.3421875536441803,-0.21506567299365997,3.42002010345459
14,20452,20449,-0.02934671752154827,-0.002883395180106163,0.9940974712371826,7.553528785705566,3.5943782329559326,-0.11798103898763657,2.0304770469665527,4.085023403167725,0.20847882330417633,-0.445739209651947,-0.14404243230819702,3.419631242752075
15,20462,20459,0.016751421615481377,-0.11006098240613937,1.0458199977874756,9.089434623718262,0.5983148217201233,-0.7716235518455505,2.0295441150665283,4.084349632263184,0.21116484701633453,-0.5545524954795837,-0.06508874148130417,3.416461944580078
16,20472,20469,0.017056239768862724,-0.09196702390909195,1.0124962329864502,11.14706802368164,-3.619842052459717,-1.55364990234375,2.0296406745910645,4.084834098815918,0.21387848258018494,-0.5668473243713379,0.17995597422122955,3.4233925342559814
17,20482,20479,-0.004913250915706158,-0.027504941448569298,0.9904118180274963,14.376668930053711,-12.003018379211426,-1.371675968170166,2.0278961658477783,4.082678318023682,0.21639971435070038,-0.6050064563751221,0.3023437261581421,3.409146785736084
18,20492,20489,-0.002483607502654195,0.04019623622298241,0.9134224653244019,12.517691612243652,-14.675955772399902,-1.7926433086395264,2.027376174926758,4.081310749053955,0.21883341670036316,-0.4973883330821991,0.5221899151802063,3.4014408588409424
19,20502,20499,-0.012116237543523312,0.0025871023535728455,0.9484235048294067,9.125484466552734,-13.124029159545898,-1.5260260105133057,2.0275135040283203,4.082092761993408,0.22139334678649902,-0.3272841274738312,0.6154024600982666,3.3834078311920166
20,20512,20509,-0.02786259911954403,-0.0016703177243471146,0.993126630783081,5.027677059173584,-12.422789573669434,-1.5240956544876099,2.027545690536499,4.082453727722168,0.223907932639122,-0.15876805782318115,0.6636132597923279,3.365684747695923
21,20522,20519,0.03265225514769554,0.07844497263431549,0.963519811630249,1.7530285120010376,-8.222540855407715,-2.051999092102051,2.0290071964263916,4.083238124847412,0.2258596271276474,-0.17296820878982544,0.5794438123703003,3.3279600143432617
22,20532,20529,-0.029031310230493546,0.03873705491423607,0.9376929402351379,-1.418854832649231,-7.637875556945801,-2.300828456878662,2.0285305976867676,4.082920074462891,0.2283824384212494,0.04611087962985039,0.688642144203186,3.3234856128692627
23,20542,20539,-0.0766221359372139,0.04445439204573631,0.9417949914932251,-2.3036956787109375,-4.274238109588623,-2.5845303535461426,2.0305399894714355,4.084100246429443,0.23074191808700562,-0.08895839750766754,0.5818056464195251,3.271423578262329
24,20552,20549,-0.027267705649137497,0.007944975979626179,0.9403836131095886,-0.6788924336433411,-2.4685118198394775,-2.6564526557922363,2.0307605266571045,4.084325790405273,0.23300763964653015,-0.04475976154208183,0.5511771440505981,3.245121717453003
25,20562,20559,-0.0029355273582041264,0.03423359990119934,0.9629162549972534,1.3579387664794922,-2.952021360397339,-2.9668915271759033,2.030186653137207,4.084091663360596,0.23457467555999756,0.0659690871834755,0.6257652044296265,3.233633041381836
26,20572,20569,-0.029099583625793457,0.04240941256284714,0.9939649701118469,5.767147541046143,-4.184836387634277,-2.8312604427337646,2.0302698612213135,4.085093975067139,0.23675329983234406,0.10661197453737259,0.6575095653533936,3.20605731010437
27,20582,20579,-0.05070866644382477,0.04428238421678543,0.9836265444755554,7.551369667053223,-5.057266712188721,-3.128138542175293,2.0290768146514893,4.0854620933532715,0.2389136254787445,0.2386387437582016,0.7577957510948181,3.188668727874756
28,20592,20589,0.020438628271222115,-0.08074751496315002,0.9745122790336609,7.191082000732422,-6.5934882164001465,-2.9323668479919434,2.027998685836792,4.0849080085754395,0.23890945315361023,0.2104286402463913,0.9408351182937622,3.1490910053253174
29,20602,20599,0.021739011630415916,0.018101297318935394,0.9682400226593018,5.256683349609375,-6.103815078735352,-3.2086455821990967,2.03016996383667,4.085011005401611,0.24084867537021637,0.03768721595406532,1.099173903465271,3.085994005203247
30,20612,20609,0.030182892456650734,0.12017376720905304,0.8684694766998291,0.4552341401576996,-6.272195816040039,-3.610093116760254,2.031780481338501,4.084341049194336,0.24258282780647278,-0.06631478667259216,1.1939374208450317,3.029940605163574
31,20622,20619,0.024955149739980698,0.0947280004620552,0.9098518490791321,-3.4929769039154053,-6.4342169761657715,-3.902255058288574,2.0312883853912354,4.085539817810059,0.24155515432357788,0.14203457534313202,1.1997334957122803,3.016277551651001
32,20632,20629,0.12686650454998016,0.03528942912817001,0.8739472031593323,-7.978397846221924,-12.030191421508789,-3.9036946296691895,2.033773183822632,4.086605072021484,0.24311599135398865,0.0626995712518692,1.0531079769134521,2.952152729034424
33,20642,20639,0.11336064338684082,-0.09204266220331192,0.9193570017814636,-10.580962181091309,-14.774922370910645,-3.9614248275756836,2.034376382827759,4.08842658996582,0.24466681480407715,0.23978357017040253,0.9206324815750122,2.922738790512085
34,20652,20649,0.0770074650645256,-0.16430306434631348,0.9454697966575623,-10.484326362609863,-15.740781784057617,-3.3778014183044434,2.034869909286499,4.088408470153809,0.2460263967514038,0.3891180157661438,0.8389602303504944,2.8834023475646973
35,20662,20659,0.02865551970899105,-0.14489540457725525,0.9503117799758911,-7.745287895202637,-15.23448371887207,-3.5529751777648926,2.0339033603668213,4.0898966789245605,0.24702435731887817,0.7108950018882751,0.770267903804779,2.8768129348754883
36,20672,20669,-0.009554901160299778,-0.04233591631054878,0.9514585137367249,-5.139552116394043,-12.53589153289795,-3.567277193069458,2.035226821899414,4.090026378631592,0.24827244877815247,0.7032462954521179,0.6728944778442383,2.8110511302948
37,20682,20679,-0.003806873457506299,-0.031143050640821457,0.9522266983985901,-1.6568827629089355,-8.372237205505371,-2.8931844234466553,2.035454034805298,4.089854717254639,0.24949273467063904,0.8852410912513733,0.6265047192573547,2.7861244678497314
38,20692,20689,-0.004829585086554289,-0.011209318414330482,0.986029863357544,0.34164461493492126,-3.7008464336395264,-2.619703531265259,2.0373172760009766,4.090050220489502,0.2494010180234909,0.8385676145553589,0.6224789023399353,2.7350189685821533
39,20702,20699,0.006448907312005758,0.012733257375657558,0.9971573352813721,2.222599506378174,-1.3043678998947144,-2.9081077575683594,2.037620782852173,4.090401649475098,0.25048911571502686,0.8862835764884949,0.6551150679588318,2.7093276977539062
40,20712,20709,-0.012926892377436161,0.002998659387230873,0.9976859092712402,0.21929819881916046,0.4453375041484833,-2.888774871826172,2.0381851196289062,4.091900825500488,0.2515657842159271,0.8940093517303467,0.6982831358909607,2.6817734241485596
41,20722,20719,0.014065274968743324,-0.03898873180150986,0.957517683506012,-3.296088933944702,-0.7483195662498474,-2.2992594242095947,2.038346767425537,4.092472553253174,0.2538040578365326,0.8865755796432495,0.6220355033874512,2.6576592922210693
42,20732,20729,-0.037053197622299194,-0.007651261519640684,0.9875556230545044,-3.7557032108306885,2.287440538406372,-3.7133262157440186,2.034161329269409,4.092818737030029,0.2549874484539032,0.9485905766487122,0.5673837661743164,2.6391758918762207
43,20742,20739,-0.0233672633767128,0.04928052797913551,0.9717784523963928,-4.155966281890869,-0.2242685705423355,-3.4729111194610596,2.034857988357544,4.091644763946533,0.2560792565345764,0.9277580976486206,0.5942880511283875,2.5966243743896484
44,20752,20749,0.006478980649262667,0.07297416031360626,0.9719883799552917,-4.457383155822754,-4.6330461502075195,-2.8556699752807617,2.0353622436523438,4.091763973236084,0.2574176788330078,0.9232801795005798,0.527567982673645,2.5628695487976074
45,20762,20759,0.023138560354709625,-0.027062784880399704,0.9780559539794922,-3.2381014823913574,-9.109708786010742,-2.412964105606079,2.0350472927093506,4.091207504272461,0.2584612965583801,1.0586943626403809,0.5375874638557434,2.5417122840881348
46,20772,20769,-0.049878425896167755,-0.030394334346055984,1.065641164779663,-3.7087268829345703,-4.160461902618408,-2.6968719959259033,2.0340726375579834,4.092187881469727,0.25847962498664856,1.2257509231567383,0.47011494636535645,2.5261404514312744
47,20782,20779,0.023127684369683266,-0.015300707891583443,0.9320025444030762,-3.803621292114258,-4.025025844573975,-2.754251718521118,2.0331947803497314,4.093934059143066,0.2595859169960022,1.3424423933029175,0.4095894396305084,2.50915789604187
48,20792,20789,0.003069294383749366,0.0015124647179618478,1.0093357563018799,-5.016634941101074,1.5836881399154663,-2.2848219871520996,2.0340139865875244,4.0961456298828125,0.2607687711715698,1.337112545967102,0.3402388095855713,2.47998046875
49,20802,20799,0.0725899487733841,-0.11363746970891953,0.9952929615974426,-3.340082883834839,1.6380486488342285,-2.1452252864837646,2.0338475704193115,4.095622539520264,0.2617867887020111,1.349306344985962,0.3640669286251068,2.4526867866516113
50,20812,20809,-0.010451595298945904,-0.024220820516347885,1.0189460515975952,-3.601775646209717,5.160342693328857,-1.723193645477295,2.034191846847534,4.0948872566223145,0.2628094553947449,1.3144694566726685,0.3802318274974823,2.425344705581665
51,20822,20819,0.004237057641148567,-0.021474473178386688,0.9881840348243713,-3.6065635681152344,7.312864303588867,-1.9488307237625122,2.034296989440918,4.095846176147461,0.26422345638275146,1.2227553129196167,0.31561926007270813,2.40887713432312
52,20832,20829,0.001956809312105179,-0.006725540850311518,0.9910148978233337,-2.5887081623077393,7.605674743652344,-1.9450554847717285,2.0337729454040527,4.095258712768555,0.2652483880519867,1.1915699243545532,0.32889896631240845,2.3867688179016113
53,20842,20839,-0.014219257049262524,-0.03815045207738876,1.0088554620742798,-3.7560677528381348,6.783233165740967,-2.0468838214874268,2.0341217517852783,4.095256328582764,0.266293466091156,1.07010018825531,0.2635590434074402,2.367244243621826
54,20852,20849,-0.010846497491002083,-0.02798594906926155,1.0033009052276611,-4.730056285858154,5.9475884437561035,-1.8502179384231567,2.0332112312316895,4.09492826461792,0.2691463530063629,1.1224687099456787,0.2595319449901581,2.3531038761138916
55,20862,20859,0.008625086396932602,-0.06030233949422836,0.9809000492095947,-4.14220666885376,4.056519031524658,-1.830858826637268,2.03328537940979,4.095844745635986,0.27033090591430664,1.0323313474655151,0.16550002992153168,2.3405823707580566
56,20872,20869,0.05197083204984665,-0.14777125418186188,0.9937617182731628,-5.396744728088379,3.123553514480591,-1.739485740661621,2.0325005054473877,4.094729900360107,0.2714950144290924,0.9755153059959412,0.07154432684183121,2.330927610397339
57,20882,20879,0.003036805661395192,-0.0297387707978487,1.0419796705245972,-2.530195713043213,2.8637702465057373,-2.648794651031494,2.0346128940582275,4.094484806060791,0.2726757824420929,0.6988801956176758,-0.01477191410958767,2.3004801273345947
58,20892,20889,0.00852328259497881,-0.03098255954682827,0.9789761900901794,-2.6141748428344727,0.9417728781700134,-1.6341187953948975,2.03375244140625,4.095080852508545,0.27496013045310974,0.7838422060012817,-0.05002826824784279,2.286618947982788
59,20902,20899,-0.02275470271706581,-0.0017111452762037516,0.966377854347229,-0.3458573520183563,-1.2181566953659058,-1.4617940187454224,2.033031940460205,4.095767498016357,0.2762312889099121,0.934073269367218,-0.08096127957105637,2.2782061100006104
60,20912,20909,0.01291233953088522,0.04322953522205353,0.9131239652633667,1.1541084051132202,-1.7858692407608032,-1.8771086931228638,2.03483510017395,4.095045566558838,0.27751994132995605,0.6915785670280457,0.00706641236320138,2.2343695163726807
61,20922,20919,0.00423346646130085,0.03781967982649803,0.9394717812538147,2.8616738319396973,-1.7586541175842285,-0.8403629660606384,2.0325441360473633,4.094557285308838,0.2802722156047821,0.9646498560905457,0.035050734877586365,2.228372812271118
62,20932,20929,0.003966050688177347,-0.024256011471152306,0.9328401684761047,1.874760389328003,-0.21362414956092834,-0.9687266945838928,2.033581495285034,4.093681335449219,0.28150054812431335,0.8212388753890991,0.14488397538661957,2.2033638954162598
63,20942,20939,-0.04211181029677391,-0.0326184406876564,0.9930728673934937,-0.5227247476577759,2.4372010231018066,-0.45974671840667725,2.029200792312622,4.093023777008057,0.2826511263847351,1.2203001976013184,0.06915831565856934,2.219219207763672
64,20952,20949,-0.06763389706611633,-0.052176933735609055,1.0438929796218872,-2.464571714401245,8.960477828979492,-0.15365444123744965,2.0267906188964844,4.0933308601379395,0.2833406329154968,1.3107937574386597,0.030268259346485138,2.2215540409088135
65,20962,20959,-0.0008807315607555211,-0.028186950832605362,0.9926820993423462,-3.994394063949585,12.580316543579102,-0.5460518002510071,2.0267415046691895,4.092592239379883,0.2845350205898285,1.0803446769714355,0.04463287815451622,2.208170175552368
66,20972,20969,-0.026464873924851418,-0.018033985048532486,0.9960331916809082,-4.77561616897583,17.076030731201172,-0.47711047530174255,2.027523994445801,4.089202880859375,0.28559958934783936,0.8576602935791016,0.19145812094211578,2.1761934757232666
67,20982,20979,-0.024825429543852806,0.07684776932001114,0.9634580016136169,-4.70598840713501,17.7993106842041,-0.6508779525756836,2.0278921127319336,4.085145950317383,0.2873073220252991,0.5293578505516052,0.4711364507675171,2.127615451812744
68,20992,20989,0.0016920159105211496,0.16656441986560822,0.9358748197555542,-6.9564738273620605,15.77016830444336,-0.4890686571598053,2.027824878692627,4.085073471069336,0.28854525089263916,0.20904690027236938,0.3191377818584442,2.1287922859191895
69,21002,20999,0.019489536061882973,0.2145269513130188,0.9649192690849304,-10.94294548034668,10.682854652404785,-0.6839964985847473,2.0250792503356934,4.085246562957764,0.289691299200058,0.17038851976394653,0.19632074236869812,2.1304125785827637
70,21012,21009,0.01893431320786476,0.023945119231939316,0.9529997110366821,-12.952004432678223,2.527117967605591,-1.2857913970947266,2.024906635284424,4.084939956665039,0.29076772928237915,0.10421022772789001,0.02863677404820919,2.1263654232025146
71,21022,21019,-0.00682669784873724,-0.038785625249147415,0.9579824805259705,-13.87930679321289,-3.7754757404327393,-1.2560844421386719,2.023374557495117,4.084871292114258,0.2908362150192261,0.2276129424571991,-0.10289406776428223,2.1168534755706787
72,21032,21029,-0.030823437497019768,0.060341376811265945,0.9703075885772705,-13.396838188171387,-6.758586883544922,-1.0207380056381226,2.023116111755371,4.085062026977539,0.2917647957801819,0.28130272030830383,-0.3067449927330017,2.1074697971343994
73,21042,21039,-0.0551561564207077,0.1817290335893631,0.9404693841934204,-10.555212020874023,-5.5028228759765625,-0.9860471487045288,2.0217463970184326,4.083110809326172,0.29269152879714966,0.272243857383728,-0.47883662581443787,2.094311475753784
74,21052,21049,-0.0048109497874975204,0.09796102344989777,0.9059436917304993,-7.326828956604004,-0.10110758244991302,-1.443488597869873,2.0197384357452393,4.082752704620361,0.2950172424316406,0.3071746230125427,-0.5143998265266418,2.0821733474731445
75,21062,21059,0.024218669161200523,0.024798491969704628,0.9254730343818665,-3.454172372817993,4.17806339263916,-0.6978185772895813,2.0204720497131348,4.0852952003479,0.2959061563014984,0.24228891730308533,-0.6493664979934692,2.073988437652588
76,21072,21069,-0.04255273565649986,0.08853939920663834,0.9609193205833435,0.20300395786762238,7.316103458404541,-1.1376550197601318,2.020218849182129,4.088822364807129,0.29674941301345825,0.10644024610519409,-0.7094973921775818,2.067140817642212
77,21082,21079,-0.03060312755405903,0.046340007334947586,0.9713853001594543,2.1580398082733154,9.40807056427002,-1.3013135194778442,2.0188777446746826,4.0888261795043945,0.2950342297554016,0.16118954122066498,-0.7250995635986328,2.0508670806884766
78,21092,21089,0.01936931349337101,-0.03494427353143692,0.9411031603813171,3.1067752838134766,12.327179908752441,-1.7475686073303223,2.0188090801239014,4.089398384094238,0.2955728769302368,0.03415633738040924,-0.7021099925041199,2.0368123054504395
79,21102,21099,-0.024812297895550728,0.039878472685813904,0.9992188811302185,3.4323337078094482,8.415339469909668,-1.774435043334961,2.017828941345215,4.087438106536865,0.29607659578323364,-0.0691743865609169,-0.660805344581604,2.0213398933410645
80,21112,21109,-0.012018772773444653,0.013456612825393677,0.9993214011192322,4.461868762969971,6.028822422027588,-1.5740649700164795,2.0136806964874268,4.086828231811523,0.29645439982414246,0.07114345580339432,-0.6170282363891602,1.9920260906219482
81,21122,21119,0.017870493233203888,-0.0006008895579725504,0.9852128028869629,2.584191083908081,4.467517375946045,-1.6610301733016968,2.012566089630127,4.088127613067627,0.2972821593284607,0.012898506596684456,-0.6402462124824524,1.9749821424484253
82,21132,21129,0.004376435652375221,-0.003623706754297018,0.9796680212020874,1.7409324645996094,4.1618475914001465,-0.7770533561706543,2.012103319168091,4.088225364685059,0.29777124524116516,-0.1034034863114357,-0.6148059964179993,1.9683740139007568
83,21142,21139,0.005560437683016062,-0.04610401764512062,0.9620093703269958,1.0090644359588623,4.585877895355225,-1.1537811756134033,2.0095391273498535,4.0876593589782715,0.2981695830821991,0.008432015776634216,-0.59940505027771,1.945818305015564
84,21152,21149,0.0035377186723053455,0.10546014457941055,0.9762452244758606,0.2574865221977234,7.652566909790039,-0.7826560735702515,2.0090906620025635,4.089663982391357,0.2990806996822357,-0.15194064378738403,-0.6757545471191406,1.941354751586914
85,21162,21159,0.0368448942899704,-0.1157107725739479,0.9663866758346558,-0.840277373790741,15.607665061950684,-0.8474029898643494,2.0078649520874023,4.089103698730469,0.2994649112224579,-0.380706250667572,-0.684246838092804,1.9434075355529785
86,21172,21169,0.003976442385464907,-0.14622509479522705,0.9926298260688782,-0.5514344573020935,22.922977447509766,-1.321378469467163,2.0069527626037598,4.092522144317627,0.2998390197753906,-0.521148145198822,-0.6967971920967102,1.924492597579956
87,21182,21179,-0.049536459147930145,-0.13006380200386047,1.0457080602645874,1.7689414024353027,23.835477828979492,-1.7914512157440186,2.007094144821167,4.093916416168213,0.304696649312973,-0.8810330629348755,-0.7684072852134705,1.9142229557037354
88,21192,21189,-0.006787111051380634,-0.18263857066631317,0.9869677424430847,4.895012378692627,25.55401611328125,-2.1502468585968018,2.006784439086914,4.095382213592529,0.3053509294986725,-1.1180511713027954,-0.7835215926170349,1.8862992525100708
89,21202,21199,0.00154736521653831,-0.031206026673316956,0.9901652932167053,6.998565196990967,23.71853256225586,-2.5170187950134277,2.005275011062622,4.095903396606445,0.306087851524353,-1.2789862155914307,-0.6700350046157837,1.8554160594940186
90,21212,21209,0.0030220486223697662,-0.012999799102544785,0.9729196429252625,8.484973907470703,17.42247200012207,-2.360149621963501,2.003934860229492,4.097932815551758,0.30689167976379395,-1.4252029657363892,-0.5972908139228821,1.8236697912216187
91,21222,21219,0.0505654513835907,-0.056240782141685486,0.9467498660087585,8.97927474975586,12.332845687866211,-2.4534294605255127,2.0036678314208984,4.097985744476318,0.3051818907260895,-1.5902073383331299,-0.5036452412605286,1.7967681884765625
92,21232,21229,0.08353224396705627,-0.09176868200302124,1.0033754110336304,7.943027019500732,7.147280216217041,-2.6747493743896484,2.0042481422424316,4.0983147621154785,0.30567649006843567,-1.7900254726409912,-0.41711756587028503,1.7833218574523926
93,21242,21239,0.08825235813856125,-0.11684597283601761,1.0046534538269043,6.596465110778809,3.628598928451538,-2.847182273864746,2.003800392150879,4.097991466522217,0.306148499250412,-1.8282325267791748,-0.2770610749721527,1.7668635845184326
94,21252,21249,0.04922623559832573,-0.08241360634565353,0.9832839369773865,4.273017406463623,2.0707945823669434,-3.4271090030670166,2.0039615631103516,4.099070072174072,0.3059561550617218,-1.9009548425674438,-0.3191896677017212,1.7193100452423096
95,21262,21259,-0.02025114744901657,-0.007747074123471975,1.0013117790222168,1.9531551599502563,1.7737326622009277,-2.6105716228485107,2.0034401416778564,4.096616268157959,0.30635032057762146,-1.9347501993179321,-0.2370748370885849,1.702181339263916
96,21272,21269,0.017922144383192062,0.05522369593381882,0.9231063723564148,1.0564683675765991,2.8662891387939453,-3.0879459381103516,2.003446102142334,4.097785949707031,0.3067619502544403,-2.0226027965545654,-0.2701262831687927,1.659307837486267
97,21282,21279,0.01832841895520687,0.028736328706145287,0.9659881591796875,0.98370361328125,2.455556631088257,-3.048583745956421,2.0032970905303955,4.0978569984436035,0.30808326601982117,-2.002251386642456,-0.23421376943588257,1.6332974433898926
98,21292,21289,0.02572515606880188,0.06599592417478561,0.9560180902481079,2.879446506500244,2.2999119758605957,-2.8043079376220703,2.0010130405426025,4.095438480377197,0.3084956109523773,-2.02311372756958,-0.18927061557769775,1.607730746269226
99,21302,21299,-0.011957623064517975,-0.07403618842363358,1.002816915512085,3.545260190963745,1.0008950233459473,-2.2512431144714355,1.999111533164978,4.096344947814941,0.3087494671344757,-2.0321874618530273,-0.19436724483966827,1.572855830192566
100,21312,21309,-0.06028071045875549,-0.0552559420466423,1.06658136844635,4.802397727966309,2.3831915855407715,-2.554969072341919,1.9990870952606201,4.095558166503906,0.30631476640701294,-2.073638677597046,-0.09964632987976074,1.564383864402771
101,21322,21319,-0.0791262611746788,-0.03546663373708725,1.070233941078186,5.626638412475586,1.7389228343963623,-2.7039926052093506,1.9973875284194946,4.098048686981201,0.3065594732761383,-1.9344213008880615,-0.14111047983169556,1.5003021955490112
102,21332,21329,-0.07813505083322525,-0.07517382502555847,1.0369893312454224,5.616749286651611,2.065410852432251,-2.412646770477295,1.9981416463851929,4.097649097442627,0.30678361654281616,-2.012336254119873,-0.016991835087537766,1.5012266635894775
103,21342,21339,-0.021893229335546494,-0.02410314418375492,1.0042426586151123,4.3659892082214355,2.9326727390289307,-2.4405829906463623,1.9976602792739868,4.0991058349609375,0.3070206940174103,-2.0555312633514404,-0.06485605984926224,1.4468436241149902
104,21352,21349,-0.030311038717627525,0.02293414995074272,0.9660861492156982,3.3039121627807617,4.408923149108887,-2.3984479904174805,1.9973572492599487,4.1005730628967285,0.3046492636203766,-2.055880546569824,-0.03561319038271904,1.4195654392242432
105,21362,21359,0.005387399811297655,-0.0007515770266763866,0.9651392102241516,3.165308952331543,2.2258098125457764,-1.8272682428359985,1.9973803758621216,4.1001458168029785,0.30477529764175415,-2.0812060832977295,0.054066792130470276,1.4195157289505005
106,21372,21369,0.04303380846977234,-0.05490850657224655,0.9853515028953552,3.743303060531616,0.48011964559555054,-1.8490803241729736,1.9981719255447388,4.102456569671631,0.30487456917762756,-2.0807137489318848,-0.12265152484178543,1.3594379425048828
107,21382,21379,0.05736991763114929,-0.10882708430290222,1.0015827417373657,3.760237455368042,-0.7781277298927307,-1.29784095287323,1.9983792304992676,4.102268695831299,0.3066842257976532,-2.0790534019470215,-0.014568503014743328,1.3604118824005127
108,21392,21389,0.06433302164077759,-0.14860208332538605,0.9861545562744141,5.811361789703369,-2.2148962020874023,-1.7609806060791016,1.9991635084152222,4.103126525878906,0.30681928992271423,-2.1233367919921875,0.012855933979153633,1.349230170249939
109,21402,21399,0.03617771714925766,-0.04888307303190231,1.0274243354797363,6.402820110321045,-4.015924453735352,-1.4655879735946655,1.9993687868118286,4.104660511016846,0.30696412920951843,-2.1334049701690674,0.07228100299835205,1.337259292602539
110,21412,21409,-0.0006127860979177058,-0.007525256834924221,0.9904071688652039,7.3341450691223145,-4.0722432136535645,-1.9540046453475952,2.0006563663482666,4.104916572570801,0.30457791686058044,-2.195342540740967,0.14966098964214325,1.3295862674713135
111,21422,21419,0.027479980140924454,-0.03854021057486534,0.9616116285324097,6.517982482910156,-5.476742267608643,-2.4028866291046143,1.9999420642852783,4.106160640716553,0.30463796854019165,-2.0877156257629395,0.22871506214141846,1.3070508241653442
112,21432,21429,-0.02332185208797455,0.012946108356118202,1.0326253175735474,4.477064609527588,-6.050928592681885,-2.5612990856170654,2.0009114742279053,4.105982303619385,0.3046615421772003,-2.035749912261963,0.36822840571403503,1.3107339143753052
113,21442,21439,0.016750847920775414,-0.050652842968702316,0.9449136853218079,3.601180076599121,-5.495851516723633,-2.934340476989746,2.0006628036499023,4.105004787445068,0.3046402633190155,-1.9612646102905273,0.4031631052494049,1.2800105810165405
114,21452,21449,-0.002975288312882185,0.004580811131745577,1.026206612586975,1.7605875730514526,-7.521636962890625,-2.243729591369629,2.00070858001709,4.10477876663208,0.3047610819339752,-1.800527811050415,0.5002345442771912,1.2703897953033447
115,21462,21459,-0.002807745710015297,-0.008691935800015926,1.036434292793274,-0.23606781661510468,-4.647409439086914,-2.4541773796081543,2.0028650760650635,4.105076789855957,0.30466267466545105,-1.9448307752609253,0.48400431871414185,1.230412244796753
116,21472,21469,-0.010915770195424557,-0.029765449464321136,0.999330461025238,-0.06283307075500488,-4.395504474639893,-2.517944574356079,2.002446174621582,4.104883193969727,0.3047036826610565,-1.8573514223098755,0.4430333375930786,1.1894242763519287
117,21482,21479,0.02046235091984272,-0.018533065915107727,1.0113873481750488,-2.5860652923583984,-0.39003074169158936,-2.254617214202881,2.0053329467773438,4.104808807373047,0.30569562315940857,-2.0159809589385986,0.4726594090461731,1.1677606105804443
118,21492,21489,0.05143860727548599,-0.08959199488162994,0.9363345503807068,-0.17009888589382172,-5.359663009643555,-1.9835513830184937,2.004591226577759,4.1041364669799805,0.305914968252182,-1.888562798500061,0.47223541140556335,1.152666449546814
119,21502,21499,0.02821436896920204,-0.0651150792837143,0.9675994515419006,1.923977255821228,-12.093330383300781,-1.683267593383789,2.0042409896850586,4.1040568351745605,0.3061716854572296,-1.703927993774414,0.4880889058113098,1.1456185579299927
120,21512,21509,0.004311959724873304,0.02302643284201622,1.047087550163269,2.1847763061523438,-13.666690826416016,-1.578474521636963,2.006070375442505,4.103848934173584,0.3042893409729004,-1.7489279508590698,0.5312313437461853,1.1297924518585205
121,21522,21519,-0.021317902952432632,-0.0635845735669136,1.0492819547653198,3.6225106716156006,-14.922955513000488,-1.3754889965057373,2.005995035171509,4.103503704071045,0.3043501675128937,-1.509432315826416,0.5859615802764893,1.1285598278045654
122,21532,21529,-0.005226226057857275,0.002363396342843771,1.058129072189331,0.4296843707561493,-11.503983497619629,-1.3498971462249756,2.0057477951049805,4.103963851928711,0.30441150069236755,-1.2690404653549194,0.48557204008102417,1.0808995962142944
123,21542,21539,-0.025293860584497452,0.06171723082661629,1.005515217781067,-0.19407998025417328,-8.24095344543457,-0.8359447717666626,2.0085082054138184,4.103316783905029,0.30435141921043396,-1.3718098402023315,0.5322392582893372,1.0622243881225586
124,21552,21549,0.003972485661506653,0.21043802797794342,0.9715968370437622,-1.1877388954162598,-4.487358570098877,-1.7618290185928345,2.008857488632202,4.102799415588379,0.3046659827232361,-1.1920890808105469,0.5598125457763672,1.0622161626815796
125,21562,21559,0.0451202467083931,0.0660027489066124,0.9788637757301331,-2.311980962753296,-2.6823716163635254,-1.6912766695022583,2.0098702907562256,4.102671146392822,0.3046927750110626,-1.1725802421569824,0.561812698841095,1.0466480255126953
126,21572,21569,0.05757840722799301,0.01474777888506651,1.022784948348999,-3.2901580333709717,-3.8164961338043213,-2.0796821117401123,2.011533737182617,4.103018283843994,0.30469366908073425,-1.1867949962615967,0.5316048264503479,1.0243922472000122
127,21582,21579,0.01228049211204052,-0.07233735173940659,1.0188987255096436,-1.7341914176940918,-5.62212610244751,-1.8431031703948975,2.01350998878479,4.103571891784668,0.30471479892730713,-1.2490109205245972,0.4146948754787445,0.9809910655021667
128,21592,21589,-0.05086243525147438,-0.08366592228412628,0.9913833141326904,-1.2226821184158325,-8.26005744934082,-1.8868176937103271,2.0131869316101074,4.10296106338501,0.3050171434879303,-1.0221844911575317,0.4864838719367981,0.9931684732437134
129,21602,21599,-0.05341657996177673,-0.01973288506269455,0.984944224357605,1.2720152139663696,-10.257159233093262,-1.5685017108917236,2.0150272846221924,4.1034722328186035,0.3050462603569031,-1.0102369785308838,0.40940141677856445,0.9518455266952515
130,21612,21609,-0.01363222487270832,0.06582798063755035,1.0095937252044678,0.7265552282333374,-10.57101058959961,-1.88728666305542,2.015801429748535,4.103780269622803,0.30475053191185,-0.8798138499259949,0.4401410222053528,0.9396156072616577
131,21622,21619,0.0036241381894797087,0.014384963549673557,1.0651311874389648,0.884895920753479,-10.85601806640625,-1.657936930656433,2.019040822982788,4.1045823097229,0.30465996265411377,-0.9762184023857117,0.38945433497428894,0.8957592248916626
132,21632,21629,0.002468966878950596,0.01578223891556263,1.0453662872314453,0.2442450374364853,-10.21253490447998,-2.0724937915802,2.0194079875946045,4.103818416595459,0.3049353361129761,-0.7373325824737549,0.5007961988449097,0.9059074521064758
133,21642,21639,-0.012597266584634781,-0.09270144999027252,0.9835519790649414,0.045436032116413116,-9.723726272583008,-2.1131856441497803,2.0203781127929688,4.103419303894043,0.3056420087814331,-0.6722636222839355,0.5168615579605103,0.8857388496398926
134,21652,21649,0.0007645470905117691,0.007717454805970192,1.0399948358535767,-0.6386508941650391,-8.306841850280762,-2.267195224761963,2.0211117267608643,4.10386848449707,0.3058606684207916,-0.5317539572715759,0.5272835493087769,0.8740188479423523
135,21662,21659,-0.005354996304959059,-0.0373479388654232,1.0021421909332275,-1.504396677017212,-6.33273983001709,-2.1855785846710205,2.022062063217163,4.104628562927246,0.306081086397171,-0.41539818048477173,0.45087841153144836,0.8454425930976868
136,21672,21669,-0.005363763775676489,-0.047868963330984116,0.9965440034866333,-1.7818663120269775,-8.06208610534668,-1.6658746004104614,2.0227246284484863,4.104809761047363,0.30640268325805664,-0.24100349843502045,0.4482620358467102,0.831355094909668
137,21682,21679,0.0028190389275550842,-0.001618594746105373,0.9966658353805542,-2.7313895225524902,-5.49487829208374,-1.6176334619522095,2.0245580673217773,4.104989051818848,0.3081457018852234,-0.23442131280899048,0.4271070063114166,0.8082769513130188
138,21692,21689,-0.0029126161243766546,-0.05418700352311134,0.9709683656692505,-0.8656854629516602,-6.574897766113281,-1.807815432548523,2.0238966941833496,4.104074478149414,0.3083508312702179,-0.24459800124168396,0.4001545310020447,0.7875457406044006
139,21702,21699,-0.06314754486083984,0.16742581129074097,1.0239721536636353,-0.7581461668014526,-5.056677341461182,-1.4470527172088623,2.0253653526306152,4.102634906768799,0.3086675703525543,-0.16684873402118683,0.47256165742874146,0.7755125761032104
140,21712,21709,-0.02388518676161766,0.0460047572851181,1.0224682092666626,-0.6271624565124512,-3.6863555908203125,-1.7295396327972412,2.0271286964416504,4.103498458862305,0.3092556297779083,-0.1921413391828537,0.37756097316741943,0.7514793276786804
141,21722,21719,-0.00976541731506586,-0.023368094116449356,1.0297565460205078,0.35741958022117615,-5.327526092529297,-1.4621418714523315,2.0273680686950684,4.104349136352539,0.309768408536911,0.01778855174779892,0.29632246494293213,0.7442363500595093
142,21732,21729,-0.028788043186068535,0.04458879306912422,1.0431097745895386,2.3117430210113525,-6.275179386138916,-1.8996697664260864,2.027038335800171,4.103004455566406,0.3101893663406372,0.1467689573764801,0.32010191679000854,0.732383668422699
143,21742,21739,-0.014331231825053692,0.0575086735188961,1.0168006420135498,1.153794288635254,-4.569486141204834,-1.1763654947280884,2.0289978981018066,4.101620197296143,0.3097008168697357,0.12194665521383286,0.4443811774253845,0.7066062092781067
144,21752,21749,0.00018646095122676343,-0.1387190818786621,1.0293891429901123,1.3367185592651367,-3.5193800926208496,-1.3191734552383423,2.0311524868011475,4.101476192474365,0.31003686785697937,0.08483542501926422,0.46490591764450073,0.6854036450386047
145,21762,21759,0.030517790466547012,-0.13023413717746735,0.989853024482727,0.405953586101532,-1.7504661083221436,-1.1970630884170532,2.0302340984344482,4.100917339324951,0.31058067083358765,0.26493924856185913,0.4795016646385193,0.6820936799049377
146,21772,21769,-0.03118925727903843,-0.048568662256002426,1.0467652082443237,-1.540519118309021,-1.3021833896636963,-1.7536250352859497,2.0316529273986816,4.10062837600708,0.3109731674194336,0.2571888864040375,0.47786957025527954,0.6688143014907837
147,21782,21779,-0.03356315568089485,-0.013247575610876083,1.0180269479751587,-2.456967830657959,0.33868277072906494,-1.6355787515640259,2.033174991607666,4.1015706062316895,0.31032294034957886,0.22911512851715088,0.4458049237728119,0.6507800817489624
148,21792,21789,0.019327880814671516,-0.029814178124070168,0.9699546694755554,-3.014738082885742,0.5911958813667297,-2.0333516597747803,2.0357019901275635,4.10186767578125,0.3105979859828949,0.1080971211194992,0.39748844504356384,0.6292005181312561
149,21802,21799,0.011438700370490551,0.14788976311683655,0.9696923494338989,-3.6451454162597656,0.25760072469711304,-1.4492380619049072,2.0359370708465576,4.101168632507324,0.31111064553260803,0.22998347878456116,0.42151105403900146,0.622504711151123
150,21812,21809,-0.0015368288150057197,0.048435717821121216,0.9828052520751953,-3.0513739585876465,-2.866630792617798,-1.7636890411376953,2.0354561805725098,4.10205078125,0.3121473789215088,0.2673777937889099,0.3520193099975586,0.6126963496208191
151,21822,21819,-0.013285988010466099,-0.007735744118690491,0.9652574062347412,-2.9360857009887695,-3.6103861331939697,-1.9931899309158325,2.038039207458496,4.103196144104004,0.31236305832862854,0.11594061553478241,0.2943127155303955,0.5965510606765747
152,21832,21829,0.008764575235545635,-0.012920632027089596,0.9541356563568115,-2.1891415119171143,-5.217668533325195,-1.55879545211792,2.0366291999816895,4.101630210876465,0.3128974735736847,0.31051909923553467,0.3203459680080414,0.5800228714942932
153,21842,21839,-0.004870194476097822,-0.015569351613521576,0.9973927140235901,-1.0376728773117065,-6.750565528869629,-1.6989201307296753,2.0370333194732666,4.101774215698242,0.31590598821640015,0.35556286573410034,0.27822452783584595,0.56581050157547
154,21852,21849,-0.05587252974510193,-0.027002286165952682,0.9904037117958069,-0.9106732606887817,-4.66970682144165,-0.952830970287323,2.039151668548584,4.101449489593506,0.31631383299827576,0.34408658742904663,0.2573988735675812,0.5473120212554932
155,21862,21859,-0.010033763013780117,-0.021865487098693848,0.9833430051803589,-2.3508903980255127,-2.32906174659729,-0.9679578542709351,2.0389320850372314,4.101492404937744,0.31688225269317627,0.5418495535850525,0.2396063357591629,0.5421727299690247
156,21872,21869,0.004240165930241346,-0.0319826602935791,0.9778269529342651,-2.1505258083343506,-0.7046859264373779,-0.7399914264678955,2.039612293243408,4.101654529571533,0.31734219193458557,0.6071318984031677,0.20031657814979553,0.5354670286178589
157,21882,21879,0.029788170009851456,-0.0965161845088005,0.9614141583442688,-2.8709909915924072,2.4342472553253174,-0.40656089782714844,2.0419468879699707,4.10144567489624,0.31932002305984497,0.4056095778942108,0.15628395974636078,0.522597074508667
158,21892,21889,0.09621947258710861,-0.24080795049667358,0.9584137201309204,-1.887010931968689,2.937980890274048,-0.918062150478363,2.041916847229004,4.102643013000488,0.31988459825515747,0.4821374714374542,0.11050214618444443,0.5341293215751648
159,21902,21899,0.008291215635836124,-0.009845629334449768,1.023667335510254,0.4861408472061157,1.8372809886932373,-1.7782038450241089,2.041707992553711,4.101633548736572,0.32043689489364624,0.5404349565505981,0.16363590955734253,0.5184959769248962
160,21912,21909,-0.028542503714561462,0.07678074389696121,1.0148578882217407,0.375588059425354,1.6684163808822632,-1.6697782278060913,2.042694568634033,4.101604461669922,0.3231433928012848,0.5204330682754517,0.1663752943277359,0.5022860765457153
161,21922,21919,0.01534039806574583,-0.024637913331389427,0.9563975930213928,0.010825300589203835,1.8140273094177246,-1.6238263845443726,2.045302152633667,4.101253032684326,0.32364019751548767,0.3567233979701996,0.16182604432106018,0.47875791788101196
162,21932,21929,0.01774839498102665,-0.06466548144817352,0.9496673941612244,-0.9152416586875916,2.761929512023926,-1.4257526397705078,2.045994281768799,4.100721836090088,0.32424038648605347,0.358377069234848,0.1612057238817215,0.468080997467041
163,21942,21939,-0.02153872512280941,0.03949641436338425,0.981031596660614,-2.6780624389648438,3.7205402851104736,-1.91334867477417,2.0457117557525635,4.100525379180908,0.3214263319969177,0.42048028111457825,0.1388763040304184,0.45855090022087097
164,21952,21949,-0.013889815658330917,0.023111755028367043,0.9582872986793518,-2.211116075515747,3.1314477920532227,-2.3539514541625977,2.04575252532959,4.099818229675293,0.32176145911216736,0.45444774627685547,0.1633041650056839,0.43275466561317444
165,21962,21959,0.008634835481643677,0.10184957832098007,0.9454165697097778,-1.3854148387908936,2.3877134323120117,-1.9497394561767578,2.046684741973877,4.099898815155029,0.3220250904560089,0.4207010269165039,0.12281978875398636,0.41335973143577576
166,21972,21969,0.014978839084506035,0.045607320964336395,0.957687258720398,-3.777137041091919,4.247528076171875,-1.863538146018982,2.048513412475586,4.10010290145874,0.3248462378978729,0.31435397267341614,0.0825963243842125,0.3912542462348938
167,21982,21979,0.00784993264824152,0.13554152846336365,0.9606426358222961,-1.9848111867904663,4.491443157196045,-1.9218767881393433,2.048893928527832,4.099560737609863,0.32525455951690674,0.33774054050445557,0.09439574927091599,0.3661544620990753
168,21992,21989,-0.0166649017482996,0.07979436218738556,0.9924891591072083,-1.502441167831421,3.932981014251709,-1.9288671016693115,2.0504062175750732,4.100578308105469,0.32552358508110046,0.19785377383232117,0.053436215966939926,0.3579263389110565
169,22002,21999,0.011430023238062859,0.02232949063181877,0.971332311630249,-1.6482653617858887,4.45649528503418,-1.9130886793136597,2.0506515502929688,4.100665092468262,0.3258538246154785,0.2262856513261795,0.022269265726208687,0.35306283831596375
170,22012,22009,0.04260680451989174,0.10263506323099136,0.9705803990364075,-1.4035457372665405,0.9497093558311462,-1.8174277544021606,2.0506672859191895,4.101312637329102,0.3290070593357086,0.25635987520217896,-0.007066433317959309,0.33549031615257263
171,22022,22019,0.015450570732355118,0.032622531056404114,0.9747413992881775,-1.9062901735305786,0.3989390730857849,-1.7079474925994873,2.0514512062072754,4.102235317230225,0.32942286133766174,0.24073950946331024,-0.03917542099952698,0.3253840208053589
172,22032,22029,-0.0006838646368123591,-0.02849785052239895,0.9597136378288269,-1.3980697393417358,0.3753836154937744,-1.2891955375671387,2.0511627197265625,4.101406097412109,0.32983338832855225,0.3114139139652252,0.002382399747148156,0.30016013979911804
173,22042,22039,0.009374639019370079,0.039449166506528854,0.9818120002746582,-1.5975124835968018,2.612337589263916,-1.3083138465881348,2.0512959957122803,4.10197639465332,0.3316596746444702,0.3702506124973297,-0.022952750325202942,0.3023233115673065
174,22052,22049,0.03013097122311592,0.006200423929840326,0.9406301975250244,-1.9268107414245605,4.486403465270996,-1.4894216060638428,2.053050994873047,4.102571964263916,0.33204418420791626,0.24706578254699707,-0.05624206364154816,0.30549392104148865
175,22062,22059,0.028093423694372177,-0.0028321649879217148,0.9431432485580444,-1.3697779178619385,5.310861587524414,-1.3995156288146973,2.0526435375213623,4.103541851043701,0.3324763774871826,0.24398739635944366,-0.013428939506411552,0.29050636291503906
176,22072,22069,-0.0045599923469126225,-0.0314059853553772,0.9533191919326782,-0.28355535864830017,5.737614631652832,-0.9947499632835388,2.0531222820281982,4.104473114013672,0.33070871233940125,0.1566731482744217,-0.03910417482256889,0.29333868622779846
177,22082,22079,0.0031392876990139484,-0.039102837443351746,0.933461606502533,0.3203984200954437,6.8011088371276855,-1.2695879936218262,2.0539817810058594,4.106089115142822,0.3308766484260559,0.13807348906993866,-0.04892827197909355,0.29774370789527893
178,22092,22089,-0.008833808824419975,-0.012098846957087517,0.9667835831642151,0.3172970116138458,4.495609760284424,-1.0385112762451172,2.0550425052642822,4.106907844543457,0.33093705773353577,0.02298804372549057,-0.05822792649269104,0.3014567196369171
179,22102,22099,-0.018558192998170853,0.01359704602509737,0.998073935508728,-1.0486780405044556,6.513225555419922,-1.6068779230117798,2.0548229217529297,4.10645866394043,0.3310084044933319,0.01159826572984457,-0.06299035251140594,0.2901396155357361
180,22112,22109,0.008978460915386677,-0.03352390602231026,0.9662280678749084,-1.9882546663284302,6.214084625244141,-1.1083883047103882,2.0553157329559326,4.105873107910156,0.3306668698787689,-0.024678664281964302,-0.08803749829530716,0.27577129006385803
181,22122,22119,0.08281210064888,-0.03906429558992386,0.8976510763168335,-0.9158718585968018,4.641105651855469,-1.0024245977401733,2.055394172668457,4.105414867401123,0.3306456506252289,-0.05902305617928505,-0.0481087788939476,0.25731316208839417
182,22132,22129,0.008914513513445854,-0.0042801108211278915,0.9323400259017944,0.21487796306610107,0.061451807618141174,-0.8066991567611694,2.054847240447998,4.105620384216309,0.33062613010406494,-0.05619634687900543,-0.0754200890660286,0.24940450489521027
183,22142,22139,-0.03223413974046707,0.013052037917077541,0.9543130397796631,-1.2383272647857666,3.8801677227020264,-1.111971378326416,2.0556187629699707,4.105477809906006,0.32844609022140503,-0.0943395346403122,-0.09035762399435043,0.24345292150974274
184,22152,22149,0.059808481484651566,-0.06076696142554283,0.9474704265594482,-2.252626419067383,5.717130661010742,-0.9814193844795227,2.055248737335205,4.1050896644592285,0.3281767964363098,-0.10346250981092453,-0.11879146844148636,0.23328402638435364
185,22162,22159,0.0966862216591835,-0.10607261210680008,0.9529736042022705,-2.296257972717285,5.471277236938477,-1.0448613166809082,2.056023120880127,4.1067070960998535,0.32788097858428955,-0.2250138223171234,-0.16506139934062958,0.24833931028842926
186,22172,22169,0.05763213336467743,-0.027289709076285362,0.9779045581817627,-2.9398176670074463,4.728859901428223,-1.0363389253616333,2.056187152862549,4.106237411499023,0.32998040318489075,-0.24478180706501007,-0.20885522663593292,0.24384617805480957
187,22182,22179,0.034628741443157196,0.008963365107774734,0.97740238904953,-1.559112310409546,4.929076194763184,-1.180848479270935,2.0565459728240967,4.109405040740967,0.32976752519607544,-0.2611028254032135,-0.252072274684906,0.25868651270866394
188,22192,22189,-0.015909679234027863,0.008912528865039349,0.9955354332923889,-1.0285987854003906,4.793229579925537,-1.3090513944625854,2.0561726093292236,4.110442161560059,0.32950127124786377,-0.2573854625225067,-0.27703338861465454,0.26493120193481445
189,22202,22199,0.010974518023431301,-0.01540643535554409,0.9817630648612976,-0.045365773141384125,4.584018230438232,-1.7290929555892944,2.055978298187256,4.1085615158081055,0.32917776703834534,-0.34972071647644043,-0.28871890902519226,0.23851066827774048
190,22212,22209,0.020689813420176506,-0.030718699097633362,0.9828888177871704,0.8640953302383423,4.337857723236084,-1.5789939165115356,2.0568995475769043,4.109086513519287,0.32501956820487976,-0.43259739875793457,-0.27672138810157776,0.23285740613937378
191,22222,22219,-0.04574425518512726,0.04569100961089134,1.0117590427398682,3.3527848720550537,2.7561357021331787,-1.6582406759262085,2.0574023723602295,4.108591556549072,0.3245237469673157,-0.43651506304740906,-0.25047409534454346,0.20727553963661194
192,22232,22229,-0.006887257564812899,0.01880483701825142,0.9931356310844421,3.351496934890747,3.076077461242676,-1.4778547286987305,2.058429002761841,4.108331680297852,0.3239421844482422,-0.5021722316741943,-0.18990756571292877,0.19069704413414001
193,22242,22239,0.007429021410644054,-0.09056711196899414,1.0110141038894653,2.1638951301574707,0.6391987800598145,-0.8648941516876221,2.058729410171509,4.108096599578857,0.3302934765815735,-0.49429047107696533,-0.13689181208610535,0.17220072448253632
194,22252,22249,0.015118471346795559,-0.26108017563819885,1.0934333801269531,-0.3521449863910675,3.1457667350769043,-1.5262184143066406,2.058626174926758,4.1079816818237305,0.3302212953567505,-0.45553404092788696,-0.1136937364935875,0.1661052703857422
195,22262,22259,0.019837796688079834,-0.12399479001760483,1.0449901819229126,-0.34409192204475403,3.7279253005981445,-1.9724674224853516,2.059861183166504,4.1081156730651855,0.33012863993644714,-0.5345907211303711,-0.12755738198757172,0.15392445027828217
196,22272,22269,-0.03126632794737816,-0.0426998995244503,1.0258686542510986,0.12354372441768646,2.60823917388916,-2.0093469619750977,2.0609562397003174,4.108121871948242,0.3311023414134979,-0.5950888991355896,-0.1308426856994629,0.13568423688411713
197,22282,22279,-0.0320584811270237,0.03547770157456398,0.9872221350669861,-0.8586541414260864,2.6000587940216064,-1.9111311435699463,2.0587472915649414,4.102901458740234,0.3311733901500702,-0.7165610194206238,-0.13303735852241516,0.08459363877773285
198,22292,22289,0.016777729615569115,-0.010296991094946861,0.9498980045318604,1.6733667850494385,-1.0494879484176636,-1.500197410583496,2.0594935417175293,4.102869033813477,0.3312002420425415,-0.7480399012565613,-0.14149199426174164,0.06696100533008575
199,22302,22299,-0.011296589858829975,0.15507906675338745,0.9835999011993408,1.2279613018035889,-2.8269004821777344,-0.4719375669956207,2.0593314170837402,4.100668430328369,0.33123454451560974,-0.716432511806488,-0.11760106682777405,0.04013395681977272
200,22312,22309,-0.014106917195022106,0.10732206702232361,1.0145536661148071,1.6745319366455078,-3.9215526580810547,-0.5553426742553711,2.0599162578582764,4.10005521774292,0.32814180850982666,-0.7318153977394104,-0.09119326621294022,0.037707939743995667
201,22322,22319,0.014536121860146523,-0.09830393642187119,0.9894590377807617,1.2720946073532104,-4.273252010345459,-0.3691057562828064,2.0601696968078613,4.099386215209961,0.32799163460731506,-0.6539183259010315,-0.06877762079238892,0.04861178249120712
202,22332,22329,0.028501344844698906,-0.10411649197340012,0.9998984336853027,1.3464622497558594,-5.53930139541626,-0.2611824870109558,2.0593714714050293,4.100231647491455,0.32791346311569214,-0.4846402108669281,-0.04770820215344429,0.03472857177257538
203,22342,22339,0.020299125462770462,-0.024083683267235756,0.9961884617805481,1.2041642665863037,-5.113970756530762,-0.30190661549568176,2.060391426086426,4.1002655029296875,0.32666322588920593,-0.47665640711784363,-0.031128214672207832,0.04337181895971298
204,22352,22349,0.026397518813610077,-0.018502170220017433,0.974023163318634,0.178439661860466,-2.5878500938415527,-0.1615539938211441,2.0598883628845215,4.099671363830566,0.3264709413051605,-0.319681316614151,-0.011823941953480244,0.035188376903533936
205,22362,22359,-0.016517670825123787,0.008453579619526863,1.0103919506072998,-0.2079818993806839,-1.7050304412841797,-0.09966960549354553,2.0614349842071533,4.099708080291748,0.3261481523513794,-0.36331433057785034,-0.01734859310090542,0.036347974091768265
206,22372,22369,-0.04991842061281204,0.02888798527419567,1.0528103113174438,-0.37885740399360657,1.4309372901916504,-0.1836581975221634,2.0628044605255127,4.099844932556152,0.32652026414871216,-0.428757905960083,-0.021301956847310066,0.042045965790748596
207,22382,22379,0.034869011491537094,-0.025446394458413124,0.9504929184913635,-1.711120367050171,4.14483118057251,-1.090781331062317,2.0639870166778564,4.10282039642334,0.3264237940311432,-0.39035454392433167,-0.041173242032527924,0.06783432513475418
208,22392,22389,0.06143571063876152,-0.00954635813832283,0.9055162668228149,-0.2996867001056671,2.7721176147460938,-1.141174554824829,2.066228151321411,4.103100776672363,0.3260726034641266,-0.6153405904769897,-0.0683572068810463,0.06389307230710983
209,22402,22399,0.005075337365269661,0.022050952538847923,0.9744625687599182,-0.3547803461551666,1.364015817642212,-1.0540916919708252,2.065864324569702,4.103820323944092,0.32691818475723267,-0.5600714683532715,-0.08257339149713516,0.06453272700309753
210,22412,22409,-0.027118274942040443,-0.06958552449941635,1.0390273332595825,2.2646353244781494,-3.870462656021118,-1.2120888233184814,2.065946340560913,4.102673530578613,0.3266967833042145,-0.5374176502227783,-0.07047628611326218,0.044451527297496796
211,22422,22419,-0.015050912275910378,-0.04771989583969116,1.057716965675354,2.31121826171875,-2.8129167556762695,-1.339492678642273,2.067131280899048,4.102298736572266,0.3264181613922119,-0.562038004398346,-0.037206728011369705,0.0279364176094532
212,22432,22429,-0.0441456101834774,-0.015440220944583416,1.07035493850708,2.6638402938842773,-5.317117214202881,-1.1159945726394653,2.067338228225708,4.101977348327637,0.3263079822063446,-0.47920140624046326,-0.004530118778347969,0.02259446494281292
213,22442,22439,-0.053759533911943436,-0.13162967562675476,1.0323336124420166,2.326305389404297,-4.715959548950195,-0.9544895887374878,2.0675981044769287,4.102047443389893,0.3260871171951294,-0.3819025754928589,0.03399162366986275,0.010969945229589939
214,22452,22449,0.006095632910728455,-0.10816052556037903,0.9766026735305786,1.4098989963531494,-0.6936216950416565,-1.4664456844329834,2.0679564476013184,4.102482795715332,0.32602885365486145,-0.3001894950866699,-0.014310217462480068,-0.018812119960784912
215,22462,22459,-0.010650602169334888,-0.031488269567489624,1.0097726583480835,0.1369546800851822,-3.8586907386779785,-0.9915245771408081,2.0680770874023438,4.10174036026001,0.3259442448616028,-0.2411111295223236,0.004137055482715368,-0.031631119549274445
216,22472,22469,-0.012659515254199505,-0.0092204250395298,1.026909589767456,-0.4529719054698944,0.6925625801086426,-1.0929683446884155,2.0685696601867676,4.101675033569336,0.3233785331249237,-0.19612205028533936,-0.002005938673391938,-0.04331319034099579
217,22482,22479,0.03012022003531456,0.021099945530295372,0.9652271270751953,-0.1780165582895279,0.7064568400382996,-0.949122428894043,2.070253610610962,4.101751804351807,0.3231077194213867,-0.27226653695106506,-0.009980897419154644,-0.04650627449154854
218,22492,22489,0.01700991950929165,-0.00924060121178627,0.9580292105674744,-0.22712111473083496,2.4738659858703613,-0.7803261280059814,2.070404052734375,4.101785182952881,0.3229359984397888,-0.2036251276731491,-0.015128624625504017,-0.06348491460084915
219,22502,22499,0.014655228704214096,-0.006260997150093317,0.9742441177368164,1.2679369449615479,1.7526509761810303,-1.1002744436264038,2.071380853652954,4.100170135498047,0.32470303773880005,-0.316866397857666,-0.003994164057075977,-0.0877210721373558
220,22512,22509,-0.0035904203541576862,-0.06789401173591614,0.9578045606613159,3.013367176055908,1.206505298614502,-0.1820458620786667,2.0713653564453125,4.099178791046143,0.3245440423488617,-0.2644418179988861,0.10382553189992905,-0.10143710672855377
221,22522,22519,-0.014126269146800041,0.0012251845328137279,1.035956859588623,2.816721200942993,-0.7204041481018066,-0.22609668970108032,2.0712838172912598,4.097878456115723,0.32434001564979553,-0.2732401192188263,0.14582319557666779,-0.10410401970148087
222,22532,22529,-0.038566093891859055,0.07781748473644257,1.0854792594909668,1.5784430503845215,-0.4564318060874939,0.01716233789920807,2.0719659328460693,4.097288608551025,0.3241727650165558,-0.2513444423675537,0.18058396875858307,-0.11267681419849396
223,22542,22539,-0.004702433943748474,0.016779467463493347,1.0289275646209717,-1.218344807624817,-0.0010638711974024773,0.12378677725791931,2.0737175941467285,4.097877502441406,0.3224819302558899,-0.33128130435943604,0.09700177609920502,-0.12310802936553955
224,22552,22549,-0.01032174564898014,-0.010440862737596035,0.9961016774177551,-1.9735790491104126,-0.8305070996284485,0.1745467334985733,2.074723720550537,4.097918510437012,0.3223436772823334,-0.324570894241333,0.06116415560245514,-0.12633521854877472
225,22562,22559,-0.005099389236420393,-0.032565146684646606,0.980640709400177,-1.941422939300537,-1.3051857948303223,0.09917645901441574,2.0754809379577637,4.098126411437988,0.3221578896045685,-0.3093201220035553,0.013376738876104355,-0.12491880357265472
226,22572,22569,0.009441530331969261,-0.015802180394530296,1.003025770187378,-2.413468360900879,-1.5361944437026978,-0.32854434847831726,2.0755624771118164,4.098744869232178,0.32233425974845886,-0.20978593826293945,-0.023820267990231514,-0.11741255968809128
227,22582,22579,0.006749346386641264,0.010232304222881794,1.0141764879226685,-0.06939547508955002,-1.648216724395752,-0.6993919014930725,2.0779545307159424,4.097158908843994,0.32210877537727356,-0.3398739695549011,0.040332384407520294,-0.132269486784935
228,22592,22589,-0.02266536094248295,-0.02954980731010437,0.9952109456062317,1.517537236213684,-1.6466904878616333,-0.24420973658561707,2.078511953353882,4.096911430358887,0.32196658849716187,-0.30203500390052795,0.03630368784070015,-0.14529795944690704
229,22602,22599,0.03466872498393059,0.03302324190735817,0.9754124283790588,0.3283485770225525,1.8294603824615479,0.05291851609945297,2.078103542327881,4.096355438232422,0.321335107088089,-0.26313516497612,0.0446367971599102,-0.14831344783306122
230,22612,22609,0.12424340844154358,-0.05850175768136978,0.9716116189956665,1.428337574005127,-2.457016706466675,-0.022849151864647865,2.07808518409729,4.0962934494018555,0.321163147687912,-0.1828428953886032,0.05093921720981598,-0.15167264640331268
231,22622,22619,0.012287062592804432,-0.06785006076097488,0.9987897872924805,1.129908561706543,-2.534122943878174,-1.0875071287155151,2.0800156593322754,4.096472263336182,0.3208475708961487,-0.30089378356933594,0.06979769468307495,-0.1495458036661148
232,22632,22629,-0.07464542239904404,0.05310039222240448,0.9933677315711975,-1.0186309814453125,-3.6543424129486084,-0.15477585792541504,2.080688953399658,4.097163200378418,0.3230102062225342,-0.2189205437898636,0.0584118478000164,-0.14970381557941437
233,22642,22639,-0.03604822978377342,0.05429866909980774,0.9598674178123474,-2.4449899196624756,-2.0696027278900146,-0.03188137337565422,2.0811383724212646,4.096690654754639,0.3229074776172638,-0.14960704743862152,0.026094011962413788,-0.14184390008449554
234,22652,22649,-0.04492581635713577,0.08213811367750168,0.9912889003753662,-2.739330530166626,-0.571702778339386,-0.4202691316604614,2.081940174102783,4.095321178436279,0.32274118065834045,-0.19365982711315155,0.13403497636318207,-0.14626525342464447
235,22662,22659,-0.056905005127191544,0.11553283780813217,0.9903513789176941,-2.59916615486145,-0.18188773095607758,-0.4677349627017975,2.083171844482422,4.096425533294678,0.3225424587726593,-0.24299335479736328,0.07402476668357849,-0.12863852083683014
236,22672,22669,0.010655012913048267,-0.06792429834604263,0.9810935854911804,-2.23330020904541,-0.856976330280304,-0.7285279035568237,2.083570718765259,4.09638786315918,0.32192790508270264,-0.20737606287002563,0.01757011003792286,-0.13343533873558044
237,22682,22679,0.0247158482670784,-0.18412384390830994,1.0214027166366577,-3.020040512084961,-1.2020392417907715,-0.85595703125,2.085171937942505,4.097764492034912,0.32166701555252075,-0.2401762753725052,-0.04208456352353096,-0.1272355169057846
238,22692,22689,-0.006590093020349741,-0.22200478613376617,1.035556674003601,-2.3292994499206543,-2.3429293632507324,-0.8842074275016785,2.0856783390045166,4.097305774688721,0.32147103548049927,-0.17951083183288574,-0.09088614583015442,-0.13695509731769562
239,22702,22699,0.01144456211477518,-0.1426355540752411,0.9959912896156311,-0.7083528637886047,-2.1493685245513916,-1.1269875764846802,2.086317539215088,4.096645832061768,0.3198782205581665,-0.11837419122457504,-0.03497524932026863,-0.14858579635620117
240,22712,22709,-0.0005159631255082786,-0.001231196103617549,1.017662763595581,0.474486768245697,-4.04056453704834,-0.8386379480361938,2.087228536605835,4.095489978790283,0.3196553587913513,-0.05678334832191467,0.03751755133271217,-0.17052824795246124
241,22722,22719,-0.04406186193227768,-0.1023821085691452,1.0635063648223877,0.7305843830108643,-1.8273814916610718,-0.30555304884910583,2.086041212081909,4.095653057098389,0.31952160596847534,0.07545937597751617,-0.04020009562373161,-0.16987167298793793
242,22732,22729,-0.013648009859025478,-0.022621717303991318,0.9856184124946594,0.140911266207695,-1.6437170505523682,-0.25236910581588745,2.0866971015930176,4.094640731811523,0.3201785385608673,0.04136626049876213,-0.03509216010570526,-0.17705397307872772
243,22742,22739,0.007948076352477074,0.09490004926919937,0.9701591730117798,-0.9400862455368042,1.222847819328308,0.03078511171042919,2.088430404663086,4.094784736633301,0.3200080692768097,-0.03564467281103134,0.019734766334295273,-0.17799003422260284
244,22752,22749,0.0010276029352098703,0.07015316188335419,0.995477557182312,-2.310659170150757,3.094560146331787,0.6599317789077759,2.0885438919067383,4.094230651855469,0.319882869720459,-0.052307143807411194,-0.025034001097083092,-0.18040740489959717
245,22762,22759,0.06776005029678345,0.05523836612701416,1.017483115196228,-2.9474689960479736,1.9609092473983765,-0.0944378599524498,2.090104579925537,4.094292640686035,0.3196893036365509,-0.14911317825317383,-0.08127590268850327,-0.17574557662010193
246,22772,22769,0.030792655423283577,0.019911156967282295,1.0156644582748413,-2.538038492202759,-0.056632596999406815,-0.37299054861068726,2.090007781982422,4.093881607055664,0.3169741928577423,-0.13842104375362396,-0.13208207488059998,-0.17833752930164337
247,22782,22779,-0.009532658383250237,0.004305487498641014,1.0189422369003296,-1.4994248151779175,-3.219949722290039,-0.39275845885276794,2.090940475463867,4.0940446853637695,0.3167131245136261,-0.08050119876861572,-0.1656743437051773,-0.17934231460094452
248,22792,22789,0.012202284298837185,-0.03845116123557091,1.0103386640548706,-0.3909394443035126,-5.107425689697266,-0.1678752452135086,2.0935311317443848,4.09324836730957,0.31625986099243164,-0.21794630587100983,-0.1061631292104721,-0.18254633247852325
249,22802,22799,0.0011034142225980759,-0.08068625628948212,1.022195816040039,0.4539185166358948,-5.373600482940674,-0.046243250370025635,2.093061923980713,4.0925068855285645,0.312439888715744,-0.011112677864730358,-0.043098535388708115,-0.18575935065746307
250,22812,22809,-0.027659578248858452,-0.03638368844985962,1.032987117767334,0.5294498801231384,-6.198548793792725,0.35432398319244385,2.0934088230133057,4.093320846557617,0.3119947612285614,0.10824687778949738,-0.05147875100374222,-0.169469952583313
251,22822,22819,0.026264291256666183,-0.04443081095814705,0.9482700824737549,-1.8031232357025146,-3.3589823246002197,-0.036014024168252945,2.095475912094116,4.093465328216553,0.311462938785553,0.054419033229351044,-0.07209499925374985,-0.1663057506084442
252,22832,22829,0.05538782477378845,-0.03297344967722893,0.91483074426651,-2.3192057609558105,-0.5140568614006042,0.03713361918926239,2.096085548400879,4.092321872711182,0.31103548407554626,0.12422628700733185,-0.11940272897481918,-0.212637260556221
253,22842,22839,0.02050582692027092,0.02383161522448063,0.9883511662483215,-2.2243354320526123,-0.10120675712823868,0.8776771426200867,2.0984511375427246,4.09327507019043,0.3105482757091522,0.08985040336847305,-0.15513364970684052,-0.16088621318340302
254,22852,22849,0.014756598509848118,-0.010052104480564594,0.991193950176239,-3.518174171447754,3.7819855213165283,0.41928210854530334,2.098825693130493,4.092736721038818,0.3100692629814148,0.15023478865623474,-0.07527537643909454,-0.17001238465309143
255,22862,22859,0.0032576783560216427,0.018325522541999817,1.0363960266113281,-1.7244727611541748,3.72320556640625,0.6068564653396606,2.1019363403320312,4.096841335296631,0.3094935119152069,-0.03136933967471123,-0.21461956202983856,-0.09741909056901932
256,22872,22869,0.0008264147909358144,0.03688814491033554,1.078290343284607,-0.4583253264427185,-2.2003939151763916,-0.0023969016037881374,2.102187395095825,4.096925258636475,0.3081795871257782,0.04605734348297119,-0.24592836201190948,-0.07246784120798111
257,22882,22879,-0.06501810252666473,-0.08666781336069107,1.0880235433578491,0.18516388535499573,-1.1154829263687134,0.5297151803970337,2.1048717498779297,4.099807262420654,0.30762144923210144,0.029992159456014633,-0.2566412091255188,-0.047767166048288345
258,22892,22889,-0.08408398181200027,-0.02627413347363472,1.1063969135284424,1.3145030736923218,-1.2993988990783691,0.6275030374526978,2.106786012649536,4.1015214920043945,0.30717629194259644,0.0034247327130287886,-0.2526538074016571,0.014666026458144188
259,22902,22899,0.00680574169382453,-0.036042504012584686,1.0136913061141968,1.2393633127212524,0.7553022503852844,0.7878159880638123,2.107388496398926,4.1037163734436035,0.3073059916496277,0.09878403693437576,-0.23777525126934052,0.04012666642665863
260,22912,22909,0.01835303008556366,0.018027516081929207,1.0085697174072266,1.2629622220993042,0.5305168628692627,0.7928121089935303,2.109065294265747,4.103658199310303,0.30697476863861084,0.03231583908200264,-0.21632860600948334,0.04918510839343071
261,22922,22919,0.06811830401420593,0.003949958831071854,0.9932208061218262,0.9229611754417419,0.47744813561439514,1.0604490041732788,2.1083195209503174,4.1026411056518555,0.306852251291275,0.12357494980096817,-0.13109949231147766,0.05172766372561455
262,22932,22929,0.04317723214626312,-0.022906232625246048,1.005916714668274,0.6715022921562195,-2.1745309829711914,1.823346734046936,2.109715223312378,4.104108810424805,0.3067187964916229,0.09918919950723648,-0.2013521045446396,0.07688338309526443
263,22942,22939,-0.01983620412647724,-0.021228495985269547,1.039376139640808,0.5489597916603088,-3.951035499572754,1.7307125329971313,2.1107981204986572,4.105915069580078,0.30662602186203003,0.23036065697669983,-0.20422396063804626,0.15505024790763855
264,22952,22949,-0.08478419482707977,0.0897391065955162,0.9998643398284912,-2.4690628051757812,0.16329751908779144,1.3778754472732544,2.1109025478363037,4.106672763824463,0.3064602017402649,0.28642141819000244,-0.2148347645998001,0.17183063924312592
265,22962,22959,-0.085584856569767,0.11048770695924759,1.0139813423156738,-1.8763177394866943,2.2711236476898193,1.792219638824463,2.1139118671417236,4.109419822692871,0.3062797486782074,0.200046107172966,-0.17939896881580353,0.24759744107723236
266,22972,22969,-0.0044988407753407955,0.023965081200003624,1.027321219444275,-0.7064793705940247,3.0207340717315674,1.597158432006836,2.1150448322296143,4.10922908782959,0.30706119537353516,0.16655723750591278,-0.20916013419628143,0.25913819670677185
267,22982,22979,-0.024269139394164085,0.024078087881207466,1.0842692852020264,0.6470440030097961,2.5547966957092285,2.202971935272217,2.1154139041900635,4.10919189453125,0.3069969117641449,0.17782330513000488,-0.21653518080711365,0.2718760371208191
268,22992,22989,0.040509939193725586,-0.11914172023534775,1.0549287796020508,3.8978962898254395,3.113156795501709,1.8927184343338013,2.1174449920654297,4.108614444732666,0.30681753158569336,-0.017169833183288574,-0.18815678358078003,0.2713145613670349
269,23002,22999,-0.001958827255293727,-0.1324768215417862,1.0391770601272583,4.29282808303833,3.6176323890686035,0.9559583067893982,2.117542028427124,4.107719898223877,0.3013015687465668,0.03225657716393471,-0.11279220134019852,0.27991199493408203
270,23012,23009,0.020679302513599396,-0.06668802350759506,0.9921413064002991,3.741586208343506,-1.5668623447418213,1.658784031867981,2.118396043777466,4.109452247619629,0.30111536383628845,0.09890809655189514,-0.04568622633814812,0.34997957944869995
271,23022,23019,-0.022951984778046608,-0.04436403140425682,1.0810112953186035,2.1796762943267822,-0.6189954280853271,1.007253646850586,2.117598295211792,4.109344482421875,0.30093201994895935,0.19324356317520142,-0.003862393321469426,0.3552795946598053
272,23032,23029,-0.0063514066860079765,-0.028078699484467506,1.0635008811950684,-1.2209105491638184,1.9692764282226562,0.8959501385688782,2.120920181274414,4.11290979385376,0.30312979221343994,-0.059334058314561844,0.0032352812122553587,0.4617622196674347
273,23042,23039,-0.007600872777402401,-0.010133521631360054,1.0462907552719116,-2.156844139099121,1.0130542516708374,0.4966731071472168,2.1216495037078857,4.113722801208496,0.30319780111312866,-0.05694657191634178,-0.03230389952659607,0.45387911796569824
274,23052,23049,0.007971853949129581,-0.04939607158303261,1.0381991863250732,-1.9493677616119385,-3.2923524379730225,0.38979652523994446,2.1218831539154053,4.1129469871521,0.3032847046852112,-0.043438639491796494,-0.09213452786207199,0.47131600975990295
275,23062,23059,-0.020671946927905083,0.08566038310527802,1.0186767578125,-3.085141897201538,-0.24992534518241882,0.7908492684364319,2.1222329139709473,4.1132683753967285,0.3056872487068176,0.06548257172107697,-0.1448027789592743,0.47656285762786865
276,23072,23069,-0.04789005219936371,0.07098843157291412,0.987510085105896,-2.2110002040863037,-2.0734658241271973,0.946136474609375,2.1217923164367676,4.111050605773926,0.30608901381492615,0.180330291390419,-0.033778950572013855,0.4541418254375458
277,23082,23079,-0.03163571655750275,0.16701240837574005,1.0012383460998535,-0.8112437725067139,-0.21291899681091309,1.3310449123382568,2.123119354248047,4.110913276672363,0.30638304352760315,0.11622099578380585,-0.07284834235906601,0.46720993518829346
278,23092,23089,0.04525826498866081,0.09465472400188446,0.9644230604171753,-0.6870200037956238,1.6159577369689941,1.3541018962860107,2.123936176300049,4.1109771728515625,0.3066980540752411,0.103361576795578,-0.10590030252933502,0.4829329252243042
279,23102,23099,0.024997619912028313,0.003679014975205064,1.0117772817611694,-0.2982148826122284,2.981459617614746,1.598323941230774,2.124948501586914,4.111499786376953,0.30983442068099976,0.002633563941344619,-0.11679831147193909,0.5182403922080994
280,23112,23109,0.047299545258283615,-0.10415512323379517,1.0183278322219849,0.8358578681945801,2.2295114994049072,0.6892492771148682,2.1264889240264893,4.112581729888916,0.31031766533851624,-0.023087766021490097,-0.1231171041727066,0.5274748206138611
281,23122,23119,-0.002962981816381216,-0.19377444684505463,0.9865850210189819,2.543267250061035,-0.14733204245567322,0.6561374664306641,2.1258978843688965,4.111215114593506,0.31092125177383423,0.0537027083337307,-0.09371669590473175,0.5261187553405762
282,23132,23129,-0.029731230810284615,-0.1736830323934555,0.9582000374794006,1.5539987087249756,-1.1114331483840942,0.06413762271404266,2.126218795776367,4.11090087890625,0.3131258189678192,0.13640326261520386,-0.08570190519094467,0.5223972797393799
283,23142,23139,-0.009330878034234047,-0.15725967288017273,0.931320071220398,0.3667607307434082,1.1831673383712769,0.8091815114021301,2.1273653507232666,4.112437725067139,0.3137160837650299,0.13304707407951355,-0.06822855025529861,0.5581724643707275
284,23152,23149,0.0383126474916935,-0.06049049645662308,0.9716455936431885,-0.21599869430065155,1.2855628728866577,0.31559744477272034,2.1283693313598633,4.111770153045654,0.3142726719379425,0.11304785311222076,0.005929074715822935,0.5620667338371277
285,23162,23159,0.041430313140153885,-0.08179087191820145,0.9668765068054199,-1.1268744468688965,1.0775729417800903,1.1091822385787964,2.1291255950927734,4.111481189727783,0.31382259726524353,0.08616135269403458,-0.017337970435619354,0.5909116268157959
286,23172,23169,0.026709990575909615,-0.12093516439199448,1.00481116771698,-2.037332057952881,8.042730331420898,-1.1274064779281616,2.130397081375122,4.112604141235352,0.3142179250717163,0.027686944231390953,-0.051324181258678436,0.5888220071792603
287,23182,23179,0.0006093152915127575,0.023630809038877487,0.9587099552154541,-2.970290184020996,4.1490397453308105,-0.28070080280303955,2.1306543350219727,4.112026214599609,0.31459861993789673,0.0010607893345877528,-0.09861848503351212,0.5759607553482056
288,23192,23189,0.0365949422121048,-0.13210652768611908,0.951803982257843,-2.0632688999176025,3.6208884716033936,-0.47660404443740845,2.1327462196350098,4.112924098968506,0.3148513436317444,-0.15723489224910736,-0.15518467128276825,0.586814284324646
289,23202,23199,0.026904592290520668,-0.15058355033397675,0.9893687963485718,-0.6049315929412842,2.760685920715332,-0.7728562355041504,2.133202314376831,4.112683296203613,0.31163185834884644,-0.12428811937570572,-0.19500301778316498,0.5688952207565308
290,23212,23209,-0.010059192776679993,-0.06481301039457321,1.017606258392334,1.9087778329849243,1.5110604763031006,-1.1950331926345825,2.133328914642334,4.11203670501709,0.31176701188087463,-0.08467249572277069,-0.12368308752775192,0.5867220759391785
291,23222,23219,-0.004584609065204859,-0.005930542945861816,0.9843299984931946,4.043819427490234,0.6788340210914612,-1.3285796642303467,2.1335721015930176,4.112227439880371,0.3118273913860321,-0.1095951721072197,-0.09671245515346527,0.5540309548377991
292,23232,23229,0.02206750027835369,0.006723388563841581,0.9530547857284546,4.4795637130737305,1.2742023468017578,-0.7245352268218994,2.134239435195923,4.111436367034912,0.31334391236305237,-0.13336248695850372,-0.04044473171234131,0.5420039892196655
293,23242,23239,0.021445196121931076,0.041011832654476166,0.9463698267936707,2.896690607070923,1.651509165763855,-0.6212798357009888,2.1355440616607666,4.113224029541016,0.31346094608306885,-0.15419447422027588,0.022036494687199593,0.5838767886161804
294,23252,23249,0.06907999515533447,0.050011638551950455,0.8967669010162354,0.7079213857650757,2.2508041858673096,-0.9455012679100037,2.135478973388672,4.1137237548828125,0.3135700523853302,-0.10687194764614105,-0.030210135504603386,0.5786807537078857
295,23262,23259,0.08521360903978348,0.013176820240914822,0.901293933391571,-1.4938623905181885,2.38022518157959,-1.0042688846588135,2.135126829147339,4.113504886627197,0.3133803606033325,-0.07349325716495514,-0.03648564592003822,0.560218095779419
296,23272,23269,0.04169197753071785,0.023909917101264,0.9730488061904907,-2.283172369003296,2.8967201709747314,-0.9110316038131714,2.135087013244629,4.113595485687256,0.31325390934944153,-0.12628580629825592,-0.07062380760908127,0.5699531435966492
297,23282,23279,-0.008799632079899311,-0.012566371820867062,1.0024709701538086,-2.3071699142456055,3.5525600910186768,-1.4868686199188232,2.136350393295288,4.113830089569092,0.3130394220352173,-0.1871926188468933,-0.11478057503700256,0.5816997289657593
298,23292,23289,-0.019727354869246483,-0.12119101732969284,0.9727367758750916,-1.208570122718811,3.863215208053589,-1.567575216293335,2.1366047859191895,4.114399433135986,0.31279727816581726,-0.2563933730125427,-0.15113243460655212,0.5677394270896912
299,23302,23299,-0.030895711854100227,-0.16655735671520233,0.9718689322471619,0.6431929469108582,3.630523920059204,-2.1771080493927,2.137615919113159,4.115137577056885,0.30856120586395264,-0.32420459389686584,-0.08974118530750275,0.5941116213798523
300,23312,23309,-0.06890204548835754,-0.12492765486240387,1.009004831314087,2.425089120864868,2.6746280193328857,-2.2862417697906494,2.137833833694458,4.115025997161865,0.3081076145172119,-0.30716580152511597,-0.08430976420640945,0.5263491868972778
301,23322,23319,-0.06066475063562393,-0.06101083382964134,0.9976220726966858,1.089892029762268,2.839766025543213,-1.6457550525665283,2.1375467777252197,4.111902236938477,0.3075934648513794,-0.36092427372932434,-0.053991250693798065,0.4730761647224426
302,23332,23329,-0.01208849810063839,-0.0367429293692112,0.953478217124939,0.21217714250087738,1.232544183731079,-0.9494919776916504,2.1374754905700684,4.111218452453613,0.3058464527130127,-0.31913530826568604,-0.03826301544904709,0.4556296765804291
303,23342,23339,0.0058594984002411366,-0.059190887957811356,0.9909721612930298,-1.2123953104019165,2.1531219482421875,-1.455318808555603,2.1382288932800293,4.110836029052734,0.3051855266094208,-0.4260084629058838,-0.05087403580546379,0.4410516917705536
304,23352,23349,-0.0065612210892140865,0.0003531609254423529,1.031548023223877,-3.6735470294952393,1.223738670349121,-0.7489510774612427,2.138115644454956,4.111093521118164,0.3047424554824829,-0.2852964997291565,-0.09191819280385971,0.3524717688560486
305,23362,23359,0.021107947453856468,-0.05288919433951378,0.9733794927597046,-3.114856243133545,0.5901200771331787,-0.7763673067092896,2.134971857070923,4.1047139167785645,0.3015625774860382,-0.47650203108787537,0.0026656086556613445,0.3485076427459717
306,23372,23369,-0.029480796307325363,0.03411441668868065,1.0470304489135742,-2.6024410724639893,2.3334500789642334,-1.2010793685913086,2.1351158618927,4.10384464263916,0.300746887922287,-0.5641613602638245,-0.06695045530796051,0.32939594984054565
307,23382,23379,0.012616753578186035,0.059753719717264175,0.9609503746032715,-0.6392402648925781,0.6321068406105042,-1.0432233810424805,2.135608673095703,4.103799343109131,0.30011752247810364,-0.4936543107032776,-0.12102946639060974,0.3109021782875061
308,23392,23389,0.015629088506102562,0.05252145975828171,0.9566495418548584,-1.7315821647644043,0.7833977937698364,-0.7113074064254761,2.1374902725219727,4.1038618087768555,0.29776623845100403,-0.6557984948158264,-0.1439480483531952,0.3044409453868866
309,23402,23399,0.0025716254021972418,0.0027427617460489273,0.9893801808357239,-1.1626888513565063,-1.8867758512496948,-0.6569803953170776,2.1374449729919434,4.105312347412109,0.29698818922042847,-0.5456982254981995,-0.18247921764850616,0.32486918568611145
310,23412,23409,0.0042891791090369225,0.011076578870415688,1.0470433235168457,0.22787019610404968,-2.464735269546509,-0.5668773651123047,2.1377506256103516,4.104869842529297,0.2961333096027374,-0.4876125156879425,-0.122897669672966,0.33950480818748474
311,23422,23419,-0.003306151134893298,-0.04608478769659996,1.0453368425369263,0.795125424861908,-2.1815907955169678,-0.2404223084449768,2.139666795730591,4.104819297790527,0.2951451241970062,-0.5884211659431458,-0.13260012865066528,0.3361625075340271
312,23432,23429,0.03724949061870575,-0.005524077918380499,1.007973074913025,0.03889603167772293,-1.638938546180725,-0.2861165702342987,2.139317750930786,4.104295253753662,0.2982202470302582,-0.468251496553421,-0.13639719784259796,0.3238222002983093
313,23442,23439,0.04101085290312767,0.008351720869541168,0.9700039029121399,1.0543341636657715,-2.8509914875030518,-0.06689580529928207,2.140547037124634,4.103561878204346,0.29756638407707214,-0.5290952920913696,-0.06431210041046143,0.3311689794063568
314,23452,23449,0.028550900518894196,-0.0024030122440308332,0.9374315738677979,0.5365744829177856,-4.752329349517822,0.4849455952644348,2.141814947128296,4.10269021987915,0.2969037592411041,-0.5440361499786377,-0.07366391271352768,0.2988151013851166
315,23462,23459,-0.00930060539394617,-0.06162687763571739,1.1002126932144165,-0.8671600222587585,-1.9159319400787354,0.27446115016937256,2.142045021057129,4.102914333343506,0.2960514426231384,-0.3857265114784241,-0.08977017551660538,0.3024604618549347
316,23472,23469,-0.008358467370271683,-0.0834592878818512,1.1181776523590088,-0.7195997834205627,-4.173346996307373,0.3582213222980499,2.1441891193389893,4.102834224700928,0.29531311988830566,-0.5610985159873962,-0.11917208135128021,0.3000117838382721
317,23482,23479,-0.02326938509941101,0.03410857543349266,1.0826358795166016,-1.5496008396148682,-3.6219959259033203,1.565107822418213,2.1450185775756836,4.102409362792969,0.2948042154312134,-0.5281317830085754,-0.14498542249202728,0.3252059519290924
318,23492,23489,-0.03749798610806465,0.13160398602485657,1.0515484809875488,-2.403226375579834,-1.9579558372497559,1.2788652181625366,2.145064353942871,4.103126049041748,0.2947266697883606,-0.3577864170074463,-0.1869686096906662,0.3370317816734314
319,23502,23499,0.015587822534143925,0.05796710401773453,1.0640573501586914,-1.8236258029937744,-3.030082941055298,1.2358044385910034,2.147531032562256,4.105503082275391,0.2944086790084839,-0.36886337399482727,-0.15523917973041534,0.42392146587371826
320,23512,23509,0.034143153578042984,-0.06411675363779068,1.0547616481781006,0.33195656538009644,-3.9296839237213135,0.13441738486289978,2.1475160121917725,4.104832649230957,0.2942045032978058,-0.28028398752212524,-0.19229933619499207,0.4029434621334076
321,23522,23519,-0.010622023604810238,-0.040856048464775085,1.0729913711547852,1.7252223491668701,-4.207559108734131,0.3004908561706543,2.1475517749786377,4.104610919952393,0.2940189838409424,-0.18564467132091522,-0.18925857543945312,0.4031277894973755
322,23532,23529,0.006300435401499271,-1.9924786101910286e-05,1.0283104181289673,2.855236291885376,-2.8593757152557373,1.2594789266586304,2.150909185409546,4.105082035064697,0.2952197790145874,-0.33276063203811646,-0.16496197879314423,0.3974505364894867
323,23542,23539,0.026393014937639236,0.04913422092795372,1.0186492204666138,2.6147561073303223,-2.0781033039093018,1.5216580629348755,2.151506185531616,4.103618144989014,0.2952544391155243,-0.25311410427093506,-0.12855543196201324,0.4089628756046295
324,23552,23549,0.039617814123630524,0.06771967560052872,1.0699305534362793,2.5836098194122314,-4.0714240074157715,1.4374313354492188,2.1535260677337646,4.103273391723633,0.2951650321483612,-0.3291717767715454,-0.10036951303482056,0.4167306125164032
325,23562,23559,-0.0055896807461977005,0.004176456481218338,1.0651458501815796,1.5867339372634888,-3.2890138626098633,1.9512125253677368,2.154865026473999,4.103013515472412,0.2986156642436981,-0.28946489095687866,-0.06836369633674622,0.4314701557159424
326,23572,23569,-0.012021933682262897,0.005167446564882994,1.0821685791015625,0.3033631443977356,-4.046866416931152,1.5465394258499146,2.1548399925231934,4.103522300720215,0.2991112768650055,-0.1035802885890007,-0.056925080716609955,0.46451398730278015
327,23582,23579,0.012836704030632973,-0.025285296142101288,0.997952938079834,-1.7012676000595093,-4.808203220367432,1.52082359790802,2.156649351119995,4.10360050201416,0.2994408905506134,-0.1571914553642273,-0.0756693184375763,0.4795609414577484
328,23592,23589,-0.03743765130639076,-0.026879047974944115,1.063048005104065,-1.224949598312378,-4.247686386108398,0.868279218673706,2.1567742824554443,4.10369348526001,0.3018018901348114,0.046636682003736496,-0.10951627045869827,0.49306875467300415
329,23602,23599,0.02466774359345436,-0.05821305513381958,1.0206199884414673,-0.440528929233551,-5.289974689483643,1.4165501594543457,2.1590423583984375,4.102689743041992,0.3023042380809784,-0.0724552795290947,-0.1334761083126068,0.4749712347984314
330,23612,23609,-0.009125296957790852,-0.052945733070373535,1.0357531309127808,-0.010920902714133263,-4.690714359283447,1.5089398622512817,2.1590428352355957,4.102613925933838,0.3030644655227661,0.1124352216720581,-0.14726415276527405,0.4764857590198517
331,23622,23619,-0.017338842153549194,-0.027958324179053307,1.0282185077667236,1.2757564783096313,0.3902059495449066,1.1913731098175049,2.160536050796509,4.100897312164307,0.3067777752876282,0.03014335408806801,-0.14337070286273956,0.4455661475658417
332,23632,23629,0.03155922889709473,-0.04172906652092934,0.9092575311660767,0.9430322051048279,4.241243839263916,1.6245644092559814,2.1622157096862793,4.101046085357666,0.3077281415462494,0.06347168236970901,-0.046177126467227936,0.5228256583213806
333,23642,23639,0.12317829579114914,-0.10780724138021469,0.8251951336860657,1.9612782001495361,-0.8717745542526245,1.6059231758117676,2.1637444496154785,4.102781295776367,0.30851495265960693,-0.003982548601925373,-0.10467056185007095,0.540375828742981
334,23652,23649,0.07808057218790054,-0.11695939302444458,0.9299719929695129,2.004646062850952,-2.466944456100464,1.6442676782608032,2.1658270359039307,4.104755878448486,0.3092849552631378,-0.015667486935853958,-0.0668460875749588,0.6183266043663025
335,23662,23659,0.027288874611258507,-0.31297069787979126,0.99689120054245,1.6436450481414795,-3.963080406188965,1.4272481203079224,2.1665375232696533,4.104387283325195,0.31123918294906616,0.08229836821556091,0.03601044788956642,0.6442974209785461
336,23672,23669,0.028137601912021637,-0.29212820529937744,0.9733577370643616,-0.19425107538700104,-4.045736789703369,1.3298814296722412,2.1678738594055176,4.105439186096191,0.3118867576122284,0.030458049848675728,-0.1112871840596199,0.6501258015632629
337,23682,23679,-0.032142091542482376,-0.21898378431797028,1.0100353956222534,-0.44127053022384644,-4.056158065795898,0.6543432474136353,2.167433977127075,4.104935646057129,0.3127349317073822,0.22066202759742737,-0.10659659653902054,0.6427140831947327
338,23692,23689,-0.0850035548210144,-0.1292085498571396,1.034153938293457,-2.245089054107666,-1.52322518825531,0.3265407979488373,2.167741537094116,4.10385799407959,0.31359848380088806,0.381654292345047,-0.03800727427005768,0.6475199460983276
339,23702,23699,-0.0863642618060112,-0.03504272922873497,1.0025155544281006,-1.3489439487457275,-3.94610595703125,-0.051980212330818176,2.1705925464630127,4.103978157043457,0.3142128586769104,0.1837960183620453,-0.08257871121168137,0.6444657444953918
340,23712,23709,-0.15948712825775146,0.036383628845214844,0.9799162149429321,-3.438603401184082,5.306370735168457,0.41003111004829407,2.1703507900238037,4.102721214294434,0.31500163674354553,0.2935110926628113,-0.048255518078804016,0.6265888214111328
341,23722,23719,-0.06612168252468109,0.05070250853896141,0.9413024187088013,-2.3119089603424072,3.378847360610962,0.7020624876022339,2.171342134475708,4.102926254272461,0.31473469734191895,0.24599842727184296,-0.11206486821174622,0.6330089569091797
342,23732,23729,-0.023912841454148293,0.043471381068229675,0.9126797914505005,-0.6032418012619019,3.31172513961792,0.6431452631950378,2.1731202602386475,4.101951599121094,0.31519290804862976,0.058429062366485596,-0.14880342781543732,0.6101177930831909
343,23742,23739,0.0440567322075367,-0.02535894885659218,0.9138731360435486,-0.9069436192512512,1.9667340517044067,0.6405952572822571,2.1736881732940674,4.103492736816406,0.3157888650894165,0.12176049500703812,-0.1701171100139618,0.6628403067588806
344,23752,23749,0.01476977951824665,0.05790529400110245,0.9360329508781433,0.3601498305797577,-0.3495914041996002,0.37725308537483215,2.1738827228546143,4.1035237312316895,0.31632503867149353,0.20023666322231293,-0.18468602001667023,0.6689276099205017
345,23762,23759,-0.0038823126815259457,0.05344410985708237,0.9651886820793152,3.1780076026916504,-2.291682004928589,0.3868347108364105,2.175046920776367,4.103367805480957,0.3169245719909668,0.15560537576675415,-0.1669400930404663,0.6725199222564697
346,23772,23769,-0.023183677345514297,0.021035833284258842,0.9694393873214722,4.2043657302856445,-2.9207568168640137,-0.15183338522911072,2.1763598918914795,4.102377891540527,0.31727343797683716,0.13875898718833923,-0.11743395775556564,0.6377556920051575
347,23782,23779,-0.015781637281179428,-0.0254311915487051,0.946664035320282,2.7131500244140625,-0.3427768647670746,0.47152411937713623,2.1766538619995117,4.101840019226074,0.3176681697368622,0.2009066939353943,-0.05832679569721222,0.6372084021568298
348,23792,23789,0.0812721699476242,-0.1351863145828247,0.9514307975769043,2.547100782394409,0.7507858276367188,0.5127440094947815,2.177614450454712,4.102024078369141,0.31568238139152527,0.22815242409706116,-0.0944388210773468,0.6308509111404419
349,23802,23799,0.09379854798316956,-0.1566467434167862,0.9722343683242798,-0.6036691069602966,2.722644805908203,0.555422842502594,2.178595781326294,4.102953910827637,0.31586754322052,0.2363186925649643,-0.06383360922336578,0.6715540289878845
350,23812,23809,0.05084792897105217,-0.09318173676729202,0.9679040908813477,-0.8313224911689758,0.6427316665649414,0.2816805839538574,2.1797313690185547,4.102904319763184,0.3160039186477661,0.20571401715278625,0.00420768279582262,0.7052818536758423
351,23822,23819,-0.018703898414969444,-0.09301166981458664,1.0125945806503296,-0.6181079745292664,4.35176420211792,-0.04264264181256294,2.18009877204895,4.103286266326904,0.31790098547935486,0.2572253346443176,-0.01745723746716976,0.7074337601661682
352,23832,23829,-0.028658991679549217,-0.010553479194641113,0.9988253712654114,1.2992911338806152,5.148154258728027,-0.4108472764492035,2.181116819381714,4.1034932136535645,0.3180992901325226,0.1932530254125595,-0.03255518898367882,0.7146562337875366
353,23842,23839,-0.025043273344635963,0.06638222932815552,0.9577720165252686,1.9777544736862183,5.539358615875244,-0.20823994278907776,2.1815106868743896,4.102998733520508,0.3183375298976898,0.19700565934181213,-0.014024108648300171,0.6967509984970093
354,23852,23849,-0.03766929730772972,0.14519281685352325,0.9410852789878845,2.2154300212860107,4.935107707977295,0.15498214960098267,2.181959629058838,4.1027750968933105,0.3185402452945709,0.19327609241008759,0.019169406965374947,0.6853054165840149
355,23862,23859,-0.04872638359665871,0.14747697114944458,0.9325181245803833,0.9397398829460144,4.833508491516113,0.49626386165618896,2.1838290691375732,4.102537631988525,0.3158998191356659,0.03344015032052994,0.04307423532009125,0.6663697361946106
356,23872,23869,-0.01704774983227253,0.19744789600372314,0.9139801263809204,1.0122020244598389,5.137765407562256,0.5436358451843262,2.1858773231506348,4.102015495300293,0.3156887888908386,-0.11723431944847107,0.048687174916267395,0.6709483861923218
357,23882,23879,0.03274368494749069,0.1647767871618271,0.9045135378837585,1.2982791662216187,4.537980079650879,0.7960370182991028,2.1857190132141113,4.101494312286377,0.315579891204834,-0.09966616332530975,0.06266307830810547,0.6740157008171082
358,23892,23889,0.0344557948410511,0.1373700648546219,0.9445189833641052,-0.055237654596567154,3.701650857925415,0.7989199161529541,2.18681263923645,4.102935791015625,0.3168252408504486,-0.1609397828578949,0.07009349018335342,0.7255207300186157
359,23902,23899,0.008244285359978676,0.05520784109830856,0.978558361530304,-0.6419912576675415,1.0183292627334595,0.015330089256167412,2.1873466968536377,4.102416515350342,0.31658926606178284,-0.19570694863796234,0.059322357177734375,0.7330099940299988
360,23912,23909,-0.0853792279958725,0.06105656176805496,0.9655802845954895,-2.46917724609375,0.13631418347358704,-0.22205308079719543,2.1877496242523193,4.101977348327637,0.31634944677352905,-0.18854598701000214,0.037345655262470245,0.719326376914978
361,23922,23919,-0.04990965873003006,0.06319835782051086,0.958134114742279,-2.975701332092285,-0.4780261814594269,0.35573798418045044,2.18875789642334,4.101981163024902,0.31710442900657654,-0.16892407834529877,-0.00747557170689106,0.7072786688804626
362,23932,23929,-0.011117273941636086,0.02282598800957203,0.9400436282157898,-2.2076575756073,-4.181962490081787,0.857199490070343,2.1899003982543945,4.100831985473633,0.31678152084350586,-0.22453418374061584,0.018265126273036003,0.6761470437049866
363,23942,23939,0.035659220069646835,-0.0769607201218605,0.9752311706542969,-0.7371028661727905,3.01245379447937,-0.06932616233825684,2.1907360553741455,4.100593566894531,0.31646621227264404,-0.198866605758667,-0.02718762308359146,0.6816118359565735
364,23952,23949,0.06812697649002075,-0.0012007158948108554,0.9239911437034607,0.6733869910240173,4.063593864440918,0.24598900973796844,2.191582679748535,4.099730968475342,0.31301984190940857,-0.23322461545467377,0.030664119869470596,0.6721519231796265
365,23962,23959,0.07550941407680511,-0.015200124122202396,0.9342337846755981,1.3811804056167603,4.863461971282959,0.7064234614372253,2.192734479904175,4.099395275115967,0.3124130368232727,-0.2788432538509369,0.034230466932058334,0.6784430146217346
366,23972,23969,0.04445052519440651,-0.07654430717229843,0.9770854711532593,2.083245038986206,1.454147219657898,0.9167115688323975,2.19288969039917,4.099626541137695,0.3118351399898529,-0.23008476197719574,0.05027172341942787,0.686646580696106
367,23982,23979,0.037118397653102875,-0.15465015172958374,0.9922269582748413,0.404945433139801,0.40329280495643616,0.9907525181770325,2.1944148540496826,4.099462032318115,0.3110692799091339,-0.308199942111969,0.0679895281791687,0.7373524904251099
368,23992,23989,-0.007868212647736073,-0.0869963988661766,1.0237232446670532,-1.7215275764465332,1.0601705312728882,1.3867069482803345,2.196207046508789,4.102029323577881,0.30723610520362854,-0.2958814799785614,0.05766598507761955,0.7848498225212097
369,24002,23999,-0.0059923748485744,-0.05505792796611786,0.9894047975540161,-3.4120662212371826,1.1071374416351318,0.8443395495414734,2.1970090866088867,4.102240562438965,0.3063820004463196,-0.2883510887622833,0.008474244736135006,0.8385327458381653
370,24012,24009,-0.005280367098748684,-7.898295734776184e-05,0.9654905200004578,-4.707396030426025,2.275498151779175,0.701641321182251,2.199294328689575,4.103576183319092,0.30533772706985474,-0.43789762258529663,-0.06019369512796402,0.8304632306098938
371,24022,24019,0.018448445945978165,-0.0061485981568694115,0.9996087551116943,-4.5052032470703125,0.9752321839332581,0.5943249464035034,2.2009146213531494,4.103570938110352,0.3024995028972626,-0.5087021589279175,-0.14738532900810242,0.8455479145050049
372,24032,24029,0.033295631408691406,-0.015348467044532299,1.059462547302246,-2.723672866821289,-0.24732503294944763,0.43250569701194763,2.2006466388702393,4.102086067199707,0.30169492959976196,-0.39795389771461487,-0.06117459386587143,0.8266539573669434
373,24042,24039,0.0015442123403772712,0.03354191407561302,1.0736706256866455,-0.11389397084712982,-1.2247213125228882,0.697384238243103,2.201918125152588,4.10182523727417,0.30070242285728455,-0.4237115979194641,-0.10788729041814804,0.815473198890686
374,24052,24049,-0.019520416855812073,0.09667899459600449,1.003572940826416,0.46661651134490967,-0.7333400845527649,1.316807508468628,2.202399730682373,4.10134744644165,0.2973841428756714,-0.4326538145542145,-0.11838006973266602,0.8327896595001221
375,24062,24059,-0.010878668166697025,0.1086561381816864,0.9915922284126282,-0.027709266170859337,-1.0052250623703003,1.5395702123641968,2.2024247646331787,4.101946830749512,0.2964786887168884,-0.29655998945236206,-0.12162023782730103,0.8688763380050659
376,24072,24069,-0.026222197338938713,0.05729469656944275,1.0573846101760864,0.21105505526065826,-4.494406223297119,1.8336122035980225,2.203951835632324,4.1014885902404785,0.2953193485736847,-0.4725992679595947,-0.1250472366809845,0.9573041200637817
377,24082,24079,-0.04311039298772812,-0.06140686571598053,1.1537970304489136,0.12953144311904907,-3.756005048751831,1.6752716302871704,2.203767776489258,4.10410737991333,0.29458916187286377,-0.30511870980262756,-0.13318543136119843,0.9846938252449036
378,24092,24089,-0.004920219071209431,-0.05357613414525986,1.0659106969833374,1.9742100238800049,-0.9781476855278015,1.3834912776947021,2.2026309967041016,4.102660179138184,0.2950689196586609,-0.15919791162014008,-0.04961124807596207,1.010446310043335
379,24102,24099,-0.01534241996705532,0.006122595630586147,1.0134567022323608,-0.9429460763931274,2.822218418121338,1.6483713388442993,2.2045159339904785,4.102729320526123,0.29432517290115356,-0.37255722284317017,-0.05320388451218605,1.047100305557251
380,24112,24109,0.042379140853881836,-0.04143877699971199,1.0504170656204224,-1.8975144624710083,0.9703564047813416,1.3512983322143555,2.203672409057617,4.1026387214660645,0.29381710290908813,-0.2830269932746887,-0.08126424252986908,1.0626189708709717
381,24122,24119,-0.0033027525059878826,-0.014186037704348564,1.0257561206817627,-3.276780128479004,0.4986293315887451,0.809827446937561,2.2050445079803467,4.102813243865967,0.29359492659568787,-0.35036975145339966,-0.14194631576538086,1.0732080936431885
382,24132,24129,-0.02067888341844082,-0.008061138913035393,1.0214143991470337,-3.860717296600342,0.5884066820144653,1.1777801513671875,2.204596757888794,4.102312088012695,0.2930681109428406,-0.32196250557899475,-0.21413496136665344,1.0450435876846313
383,24142,24139,-0.012889119796454906,0.007681642659008503,1.0788686275482178,-1.6909325122833252,-3.5402278900146484,1.402549147605896,2.2056634426116943,4.10233736038208,0.29251962900161743,-0.3443826735019684,-0.19105443358421326,1.123003602027893
384,24152,24149,0.01508666854351759,0.01823439449071884,1.110050082206726,0.3611125349998474,-2.7718586921691895,0.914776086807251,2.2077324390411377,4.103328227996826,0.2973422706127167,-0.4015344977378845,-0.21498936414718628,1.1511664390563965
385,24162,24159,-0.01915847137570381,-0.012017551809549332,1.0091577768325806,2.4812872409820557,-3.9007699489593506,0.7205623388290405,2.207406520843506,4.103097438812256,0.29737672209739685,-0.2831312417984009,-0.2018982321023941,1.159468412399292
386,24172,24169,-0.0020721121691167355,0.053159166127443314,1.0150357484817505,1.8475230932235718,-4.724489688873291,0.4875079095363617,2.2085483074188232,4.103641510009766,0.2973659038543701,-0.24312235414981842,-0.24931451678276062,1.1630414724349976
387,24182,24179,0.014687827788293362,-0.06373676657676697,1.0249555110931396,2.249540328979492,-7.454732418060303,0.725725531578064,2.2110519409179688,4.103139400482178,0.29723331332206726,-0.34799724817276,-0.21035297214984894,1.1578856706619263
388,24192,24189,-0.02316160872578621,-0.09492705762386322,1.1374284029006958,2.7334413528442383,1.3010302782058716,-0.3645014762878418,2.2107975482940674,4.103001594543457,0.2941104471683502,-0.1152682974934578,-0.16747599840164185,1.1617494821548462
389,24202,24199,0.03757826238870621,0.01317527610808611,0.9655569195747375,2.549717903137207,-1.976407527923584,0.41014617681503296,2.21274733543396,4.102771759033203,0.2939523160457611,-0.19388870894908905,-0.1250326931476593,1.1557748317718506
390,24212,24209,0.01631968282163143,0.011845228262245655,0.9871817827224731,-0.828566312789917,-2.9215285778045654,-0.5504971146583557,2.214005470275879,4.101428985595703,0.29385676980018616,-0.17261984944343567,-0.03098885342478752,1.1326640844345093
391,24222,24219,-0.0024416842497885227,0.007631038781255484,1.0522515773773193,-1.6084221601486206,-2.4977245330810547,0.2930212914943695,2.215705633163452,4.102554798126221,0.2941005229949951,-0.22421158850193024,-0.14116506278514862,1.1488348245620728
392,24232,24229,0.033697836101055145,-0.07985085248947144,0.9919522404670715,-1.6652064323425293,-4.609421253204346,0.679278552532196,2.2151529788970947,4.10260534286499,0.2942274510860443,-0.02333013154566288,-0.17388960719108582,1.1506425142288208
393,24242,24239,-0.024723010137677193,0.00862683355808258,1.0510622262954712,-2.4473519325256348,-7.490416049957275,0.7681826949119568,2.216921806335449,4.102909088134766,0.2941206395626068,-0.05172653868794441,-0.127351775765419,1.1913893222808838
394,24252,24249,-0.010129311122000217,-0.028301361948251724,1.0549795627593994,-2.1214914321899414,-4.102132797241211,-0.05802762880921364,2.218079090118408,4.103036403656006,0.29443809390068054,0.01234915666282177,-0.17327089607715607,1.1466776132583618
395,24262,24259,-0.006294019520282745,-0.010595248080790043,1.074373722076416,-0.42600885033607483,-3.9625041484832764,-0.4109940826892853,2.2189109325408936,4.100816249847412,0.29442620277404785,-0.0269578006118536,-0.2035316675901413,1.0953220129013062
396,24272,24269,-0.019505899399518967,0.0648658350110054,0.988048255443573,-0.5198154449462891,-2.784477710723877,1.0038094520568848,2.219494581222534,4.100093841552734,0.29455631971359253,0.007276262156665325,-0.21152740716934204,1.0639450550079346
397,24282,24279,-0.02861439250409603,0.07983133941888809,1.0230706930160522,-1.1526336669921875,-0.24386483430862427,1.8753678798675537,2.219912052154541,4.098501205444336,0.2948251962661743,0.11263076215982437,-0.13390082120895386,1.0829507112503052
398,24292,24289,0.01953514851629734,-0.05781993642449379,0.9868162870407104,1.1541330814361572,0.20640136301517487,1.4686897993087769,2.2215797901153564,4.09647798538208,0.2927058935165405,-0.06100865453481674,-0.05899965763092041,1.1060727834701538
399,24302,24299,-0.014839562587440014,0.08786710351705551,1.0268433094024658,0.07660184800624847,-1.1211007833480835,1.4256666898727417,2.2213220596313477,4.096916675567627,0.292967289686203,0.09757105261087418,0.01631401851773262,1.1203820705413818
400,24312,24309,-0.001099329674616456,-0.00549562880769372,1.007550835609436,-1.491490125656128,-2.0260183811187744,1.1380709409713745,2.222336530685425,4.098879814147949,0.29303285479545593,0.10571856051683426,-0.012856830842792988,1.2256269454956055
401,24322,24319,-0.030258784070611,-0.009419804438948631,1.027834415435791,-1.732593059539795,-6.679738521575928,0.16266831755638123,2.2220256328582764,4.099606513977051,0.29542213678359985,0.14194510877132416,-0.1326216757297516,1.2710131406784058
402,24332,24329,-0.09744417667388916,0.06435088068246841,0.9681099057197571,-5.5509772300720215,-3.4821889400482178,0.3493366241455078,2.2238025665283203,4.100643634796143,0.29559800028800964,0.13380923867225647,-0.19276036322116852,1.2836861610412598
403,24342,24339,-0.0453355573117733,-0.025759095326066017,1.0348988771438599,-4.708805084228516,-4.224054336547852,1.7375602722167969,2.223641872406006,4.101122856140137,0.2959003150463104,0.2577248513698578,-0.2869093418121338,1.3036444187164307
404,24352,24349,-0.004474034998565912,-0.023840337991714478,1.0461206436157227,-2.571427345275879,-0.7168135046958923,0.3838436007499695,2.2253644466400146,4.099520683288574,0.29378846287727356,0.22905254364013672,-0.11892876774072647,1.3377342224121094
405,24362,24359,0.003712093224748969,0.032846417278051376,1.0148375034332275,-0.21686360239982605,-0.7928972840309143,0.5404646992683411,2.2261440753936768,4.099783420562744,0.29408445954322815,0.30667799711227417,-0.1692504733800888,1.3553565740585327
406,24372,24369,0.024143237620592117,-0.02160889469087124,1.025442361831665,1.447472333908081,-0.5043932199478149,1.4673826694488525,2.2252113819122314,4.099869251251221,0.29419925808906555,0.43914738297462463,-0.17766597867012024,1.3632570505142212
407,24382,24379,0.004930324852466583,-0.018751248717308044,0.9989089369773865,0.5119115114212036,1.4515150785446167,1.936164140701294,2.2266762256622314,4.099111557006836,0.29485854506492615,0.33197587728500366,-0.16833187639713287,1.3568521738052368
408,24392,24389,0.05368474870920181,-0.1907992959022522,1.005793809890747,-1.2820656299591064,1.1225340366363525,2.0888640880584717,2.2274417877197266,4.099743843078613,0.29502052068710327,0.28345850110054016,-0.27831920981407166,1.3932911157608032
409,24402,24399,0.05646128952503204,-0.18587639927864075,0.9675246477127075,0.35848236083984375,0.610973060131073,1.3759442567825317,2.229947090148926,4.099867820739746,0.2954140901565552,0.23834463953971863,-0.28474748134613037,1.4191882610321045
410,24412,24409,0.000275184225756675,0.09676171839237213,0.9967600703239441,0.3355556130409241,-2.6959002017974854,1.3085148334503174,2.229417324066162,4.0986409187316895,0.2953396141529083,0.18438135087490082,-0.13265112042427063,1.433176040649414
411,24422,24419,-0.01196135301142931,-0.018483832478523254,0.9968239665031433,-0.3164338171482086,-2.218073606491089,1.2545297145843506,2.2297911643981934,4.0985283851623535,0.2947416305541992,0.26520630717277527,-0.1524812877178192,1.5030579566955566
412,24432,24429,-0.019414609298110008,-0.02296948805451393,0.9805259108543396,-2.2272889614105225,-1.443424940109253,0.43260011076927185,2.2290873527526855,4.101130485534668,0.29503294825553894,0.4143359065055847,-0.27217110991477966,1.5707714557647705
413,24442,24439,0.018041886389255524,-0.03129621967673302,0.9632603526115417,-2.70072603225708,0.8385874629020691,-0.8934267163276672,2.231687307357788,4.103495121002197,0.2951182425022125,0.30765247344970703,-0.3188164532184601,1.654565691947937
414,24452,24449,0.04371979087591171,-0.08996035903692245,0.9564289450645447,-2.3712010383605957,-2.8582348823547363,-0.6376420855522156,2.232283592224121,4.103365421295166,0.2945137917995453,0.3785019516944885,-0.3701878488063812,1.6387654542922974
415,24462,24459,-0.004922057967633009,-0.0350496768951416,0.99497389793396,0.38206592202186584,-1.3310266733169556,-0.3259601593017578,2.2325479984283447,4.1018147468566895,0.2945704460144043,0.45411720871925354,-0.3834460973739624,1.5441980361938477
416,24472,24469,-0.019916057586669922,-0.010179303586483002,0.9541957974433899,1.2039556503295898,0.07353898137807846,1.163676381111145,2.23431134223938,4.100975513458252,0.294502854347229,0.34736865758895874,-0.2968156337738037,1.5567275285720825
417,24482,24479,0.07162118703126907,-0.17622511088848114,0.9639752507209778,4.140388011932373,0.1090877577662468,0.9760398268699646,2.235163927078247,4.1004533767700195,0.29402464628219604,0.388756662607193,-0.26287949085235596,1.5570111274719238
418,24492,24489,0.034363288432359695,-0.14759576320648193,1.0528539419174194,3.062042713165283,0.407344788312912,1.2992725372314453,2.236635208129883,4.100249290466309,0.2938575744628906,0.3281361162662506,-0.19855083525180817,1.600451946258545
419,24502,24499,0.019685229286551476,-0.04665802791714668,1.005670428276062,2.1310036182403564,3.972208023071289,-0.330950528383255,2.236694097518921,4.1024580001831055,0.29387760162353516,0.36718133091926575,-0.2387470155954361,1.6602973937988281
420,24512,24509,0.007468296680599451,0.011611982248723507,0.9783495664596558,1.2244367599487305,2.8059566020965576,-1.2367819547653198,2.238710880279541,4.102451801300049,0.29375869035720825,0.2685134708881378,-0.2141941338777542,1.647944450378418
421,24522,24519,0.003086879849433899,0.07039488852024078,0.9675710201263428,-0.6481145024299622,4.296887397766113,-1.2295167446136475,2.2380809783935547,4.102167129516602,0.29283127188682556,0.33293625712394714,-0.21486984193325043,1.6332173347473145
422,24532,24529,0.0359254889190197,0.03977758064866066,0.9613561630249023,-2.4722483158111572,1.877007007598877,-0.7556519508361816,2.2390928268432617,4.103887557983398,0.2926613986492157,0.3186509311199188,-0.24042093753814697,1.6379728317260742
423,24542,24539,0.052405498921871185,-0.1156226322054863,0.9773379564285278,-1.4210844039916992,-1.7228443622589111,-1.0425440073013306,2.239973783493042,4.102634429931641,0.2923816740512848,0.2629513740539551,-0.2743162512779236,1.6552927494049072
424,24552,24549,0.014080479741096497,-0.12103711068630219,1.0344773530960083,-0.5307593941688538,1.668215274810791,-0.6230729818344116,2.2418038845062256,4.103028774261475,0.29570287466049194,0.11879225820302963,-0.2956574559211731,1.6443150043487549
425,24562,24559,0.07175874710083008,-0.00044442483340390027,0.9690116047859192,-1.7746678590774536,3.0772430896759033,-0.5629037022590637,2.241812229156494,4.103268623352051,0.2957998812198639,0.21094514429569244,-0.2279295027256012,1.7038222551345825
426,24572,24569,0.048976555466651917,-0.029696913436055183,1.038017988204956,0.12077683210372925,-1.2726807594299316,-0.6893261075019836,2.243215322494507,4.104798793792725,0.29576149582862854,0.16544514894485474,-0.32250845432281494,1.7094839811325073
427,24582,24579,0.0374562032520771,-0.05003238841891289,0.9985910058021545,0.4106942117214203,-1.5044424533843994,-1.2403165102005005,2.2442147731781006,4.105226039886475,0.2964801788330078,0.16117705404758453,-0.3011518716812134,1.5802141427993774
428,24592,24589,-0.017651183530688286,0.03375261276960373,1.0366675853729248,2.025347948074341,-1.9679509401321411,-1.2857279777526855,2.242070198059082,4.101096153259277,0.2966635823249817,0.23639032244682312,-0.27910909056663513,1.5490318536758423
429,24602,24599,-0.005842253565788269,-0.06606040894985199,0.9536988139152527,2.502274990081787,-1.6045738458633423,-0.21104803681373596,2.242145538330078,4.100688934326172,0.29679471254348755,0.2695143222808838,-0.25416556000709534,1.5508816242218018
430,24612,24609,0.00984948594123125,-0.07163019478321075,0.9238434433937073,2.875532865524292,-1.2998859882354736,-0.6762008666992188,2.2451045513153076,4.10029411315918,0.29671362042427063,0.08339489996433258,-0.21869301795959473,1.5397151708602905
431,24622,24619,-0.029965840280056,0.05092128738760948,0.9553319215774536,0.32231345772743225,-1.90725839138031,0.25282660126686096,2.245354413986206,4.10127067565918,0.2987343370914459,0.22735881805419922,-0.260558158159256,1.5350770950317383
432,24632,24629,0.0147189199924469,-0.06683406233787537,1.036264181137085,0.23543885350227356,-0.7783660292625427,-1.0645993947982788,2.2462406158447266,4.102798938751221,0.29886919260025024,0.27758732438087463,-0.24460245668888092,1.6037219762802124
433,24642,24639,0.03940952941775322,-0.11929122358560562,1.0020414590835571,0.6054060459136963,2.5494308471679688,-2.596282958984375,2.2481932640075684,4.1028008460998535,0.2988314628601074,0.15213100612163544,-0.22850053012371063,1.5898630619049072
434,24652,24649,0.021928073838353157,0.0008281237096525729,0.9492239356040955,0.35516321659088135,5.066906929016113,-2.7235424518585205,2.248382806777954,4.103793144226074,0.29868632555007935,0.23204442858695984,-0.20957446098327637,1.614353060722351
435,24662,24659,0.1140906810760498,-0.06132754683494568,0.9295768141746521,-0.47734659910202026,4.165527820587158,-2.2109169960021973,2.2507870197296143,4.104305267333984,0.2985846698284149,0.015587846748530865,-0.28727391362190247,1.5849167108535767
436,24672,24669,0.10748713463544846,-0.15472997725009918,1.014771819114685,2.156371593475342,-3.556540012359619,-1.5017274618148804,2.250847816467285,4.104503154754639,0.29876211285591125,0.15792565047740936,-0.2501295804977417,1.5115078687667847
437,24682,24679,0.01528699416667223,-0.08623465895652771,1.0577824115753174,3.0091724395751953,-4.849682807922363,-0.9394105076789856,2.2496767044067383,4.103488445281982,0.3000832796096802,0.2588496804237366,-0.2700902223587036,1.5072249174118042
438,24692,24689,0.012948027811944485,-0.02105529233813286,0.9795928001403809,3.2461843490600586,-3.031773805618286,-1.0747514963150024,2.2509005069732666,4.105112075805664,0.30013513565063477,0.2752602696418762,-0.27773317694664,1.5641590356826782
439,24702,24699,-0.004358777776360512,0.004454275593161583,0.9949848055839539,2.933150291442871,1.4228521585464478,-1.32582688331604,2.25199818611145,4.104468822479248,0.3002772331237793,0.32989487051963806,-0.2070492058992386,1.5081361532211304
440,24712,24709,0.07546647638082504,0.034410737454891205,0.953642725944519,2.046128511428833,5.091433525085449,-0.8047630786895752,2.2527573108673096,4.104264259338379,0.30022063851356506,0.3258006274700165,-0.21753093600273132,1.4719955921173096
441,24722,24719,0.18071898818016052,-0.03568682074546814,0.995783269405365,2.2746503353118896,4.614630699157715,-1.468824028968811,2.2543017864227295,4.105546951293945,0.3002029359340668,0.19507244229316711,-0.23142531514167786,1.51080322265625
442,24732,24729,0.06586222350597382,-0.09934914857149124,1.0104130506515503,2.597046136856079,3.069632053375244,-1.9354068040847778,2.254873514175415,4.105618953704834,0.30030542612075806,0.2540857493877411,-0.16411399841308594,1.4715760946273804
443,24742,24739,0.009048489853739738,-0.09202191978693008,0.9861995577812195,2.3645989894866943,2.562391519546509,-1.9386265277862549,2.2553553581237793,4.10483455657959,0.3003235161304474,0.23467101156711578,-0.09975385665893555,1.4444324970245361
444,24752,24749,-0.016713188961148262,-0.012144693173468113,0.9808931946754456,2.6326005458831787,1.0472086668014526,-1.2621500492095947,2.2566020488739014,4.1041789054870605,0.30230820178985596,0.1587795615196228,-0.04165242239832878,1.4053676128387451
445,24762,24759,0.02424536645412445,-0.031102655455470085,0.9631763100624084,2.693422794342041,1.2296350002288818,-0.1874948889017105,2.2568233013153076,4.103857517242432,0.30249691009521484,0.2490585446357727,0.021233070641756058,1.3778671026229858
446,24772,24769,0.04147104173898697,-0.037651773542165756,1.0084115266799927,1.6848262548446655,1.1293902397155762,-0.7058027982711792,2.257692813873291,4.104386806488037,0.30257245898246765,0.17412728071212769,-0.005699801258742809,1.3850740194320679
447,24782,24779,8.59027131809853e-05,-0.026183605194091797,1.0425961017608643,0.459794819355011,1.242044448852539,-0.5634688138961792,2.257256269454956,4.105424880981445,0.30248066782951355,0.24883362650871277,-0.053447507321834564,1.426513433456421
448,24792,24789,0.051397211849689484,-0.09837645292282104,0.9758675694465637,-0.5445573925971985,4.231239318847656,-2.0522749423980713,2.258305072784424,4.106015682220459,0.30256304144859314,0.2186928242444992,-0.02541845478117466,1.3983228206634521
449,24802,24799,0.019903035834431648,-0.016260378062725067,0.9552410840988159,-1.0284175872802734,6.301564693450928,-1.8570709228515625,2.2589311599731445,4.105470657348633,0.3026854991912842,0.17003639042377472,-0.01576129160821438,1.3658440113067627
450,24812,24809,0.0026639599818736315,-0.001299191964790225,0.9630876183509827,-0.6956373453140259,4.3634161949157715,-0.9934728145599365,2.259809732437134,4.105237007141113,0.3048269748687744,0.14451278746128082,0.001393008860759437,1.3501684665679932
451,24822,24819,0.02647506073117256,-0.04646453633904457,0.9630776047706604,1.0003737211227417,4.986980438232422,-0.542770266532898,2.2602782249450684,4.104918479919434,0.3049834370613098,0.07938307523727417,0.019338099285960197,1.3149687051773071
452,24832,24829,0.0024539045989513397,-0.04507748782634735,0.9945179224014282,2.6937355995178223,2.9838943481445312,-0.5781221389770508,2.261420249938965,4.104508399963379,0.3050927221775055,0.022467613220214844,0.06835079938173294,1.3071870803833008
453,24842,24839,-0.018688159063458443,-0.03571871295571327,1.0313961505889893,2.7592549324035645,3.6826565265655518,-0.4530007839202881,2.261519193649292,4.104238986968994,0.3052181601524353,-0.023838169872760773,0.13061445951461792,1.2888429164886475
454,24852,24849,0.0010004885261878371,-0.009233418852090836,0.9855550527572632,1.7306076288223267,4.606667995452881,-1.0142195224761963,2.262624979019165,4.105159759521484,0.30665045976638794,-0.06300856918096542,0.016080431640148163,1.2639853954315186
455,24862,24859,-0.004171367269009352,0.06938023865222931,0.9543082118034363,1.0587583780288696,4.6435089111328125,-1.3308988809585571,2.2634377479553223,4.1046576499938965,0.306871622800827,-0.08950008451938629,0.06423760205507278,1.255359411239624
456,24872,24869,0.044898323714733124,0.05628842115402222,0.8926904201507568,-0.1572941392660141,5.298157691955566,-1.1810095310211182,2.264354944229126,4.1056694984436035,0.3070637881755829,-0.11435677111148834,0.015648091211915016,1.2741029262542725
457,24882,24879,0.05307137221097946,0.006441578269004822,0.9404588341712952,-0.28982582688331604,0.5489646196365356,-0.6503131985664368,2.2652029991149902,4.105618000030518,0.30988457798957825,-0.1071854829788208,0.04630104824900627,1.2267030477523804
458,24892,24889,0.021338453516364098,-0.07595941424369812,0.9782585501670837,0.5795156955718994,-3.101701259613037,0.09143710136413574,2.2658567428588867,4.105945110321045,0.3101094961166382,-0.06211777776479721,-0.006451279390603304,1.2243154048919678
459,24902,24899,-0.02743716537952423,-0.055231016129255295,1.0095161199569702,3.1319072246551514,-4.262518882751465,0.21640096604824066,2.26729679107666,4.105551242828369,0.3102589547634125,-0.06720434874296188,0.050590209662914276,1.2019754648208618
460,24912,24909,-0.04597419872879982,-0.08734416216611862,1.0099382400512695,4.122988224029541,-2.9731578826904297,0.21571166813373566,2.2678937911987305,4.105495452880859,0.3122970759868622,0.001978867221623659,0.1366480439901352,1.2402281761169434
461,24922,24919,0.00028649382875300944,-0.06543563306331635,0.9584119915962219,3.283679246902466,0.6441795229911804,-0.3076673746109009,2.2682387828826904,4.105752468109131,0.3125818073749542,0.037531208246946335,0.21820415556430817,1.241593599319458
462,24932,24929,-0.014332126826047897,0.05839523673057556,0.9930168390274048,1.4618592262268066,2.7260026931762695,-0.4674716293811798,2.2694168090820312,4.105898857116699,0.3128865659236908,0.02524661086499691,0.19677963852882385,1.2105683088302612
463,24942,24939,0.00987877044826746,-0.0034352384973317385,0.9627134203910828,-0.9941548109054565,5.0835418701171875,-0.7093712091445923,2.2710001468658447,4.106279373168945,0.31208106875419617,-0.09005650132894516,0.14991535246372223,1.1868678331375122
464,24952,24949,-0.01427680067718029,-0.05126429721713066,1.005370855331421,-1.9692919254302979,6.698460578918457,-0.12187087535858154,2.2712037563323975,4.106361389160156,0.3122967481613159,-0.054335977882146835,0.15806743502616882,1.1717381477355957
465,24962,24959,0.08322054147720337,-0.11400074511766434,0.9816603064537048,-1.167391061782837,3.145186424255371,-0.3301158547401428,2.2714083194732666,4.106355667114258,0.31250831484794617,-0.0306905098259449,0.15146894752979279,1.1702980995178223
466,24972,24969,0.06953556090593338,-0.17582987248897552,0.9672783017158508,-1.427097201347351,0.6085097789764404,-1.0397076606750488,2.272394895553589,4.105971336364746,0.31268739700317383,-0.04352330416440964,0.15413165092468262,1.1461879014968872
467,24982,24979,0.005421015899628401,-0.18458399176597595,0.9827890396118164,-1.5984426736831665,-0.4984806776046753,-0.9023334383964539,2.273257255554199,4.105964660644531,0.3125551640987396,-0.03622560203075409,0.15447357296943665,1.1299138069152832
468,24992,24989,-0.021812692284584045,-0.1594434678554535,0.9735714197158813,-0.3840081989765167,-1.152062177658081,-0.40553268790245056,2.273343086242676,4.105638027191162,0.3126976191997528,0.049195773899555206,0.14902524650096893,1.105266809463501
469,25002,24999,0.0027226973325014114,-0.12146995216608047,0.9217301607131958,0.6034355163574219,0.7447309494018555,0.31310325860977173,2.2746965885162354,4.1056389808654785,0.31270477175712585,-0.03999035805463791,0.17236073315143585,1.1615397930145264
470,25012,25009,0.024332163855433464,-0.0832068920135498,0.9135202765464783,-0.2064923644065857,1.086344838142395,0.4438588321208954,2.275118112564087,4.107366561889648,0.311489075422287,-0.065239816904068,0.1097116470336914,1.1620076894760132
471,25022,25019,0.015351600013673306,-0.03634873777627945,0.9721554517745972,-0.648828387260437,3.5130536556243896,0.09640379250049591,2.275909185409546,4.107446670532227,0.31132566928863525,-0.11434932798147202,0.11713998019695282,1.1596633195877075
472,25032,25029,0.014009938575327396,-0.03207830712199211,0.9947782754898071,-0.9448633193969727,5.163201808929443,-0.14458684623241425,2.276027202606201,4.107028007507324,0.31114718317985535,-0.11122146993875504,0.1177021786570549,1.137746810913086
473,25042,25039,0.012805954553186893,-0.029993979260325432,0.9745954275131226,-0.26061058044433594,3.9948177337646484,-0.33414754271507263,2.276374578475952,4.10779333114624,0.31062519550323486,-0.11482873558998108,0.04266512021422386,1.1370198726654053
474,25052,25049,-0.002224208787083626,-0.02549074962735176,1.0025256872177124,1.0076048374176025,2.8715615272521973,-0.55830979347229,2.277601957321167,4.107692718505859,0.31030693650245667,-0.25967103242874146,0.0716010183095932,1.1287990808486938
475,25062,25059,-0.015867162495851517,-0.046340081840753555,0.9856024384498596,2.3183138370513916,2.1148369312286377,-0.6943935751914978,2.2784149646759033,4.106819152832031,0.30999407172203064,-0.3019019365310669,0.12175089120864868,1.0864413976669312
476,25072,25069,-0.0373324453830719,-0.02039402537047863,0.9852054119110107,2.170637607574463,2.188638925552368,0.4574525058269501,2.278514862060547,4.1073760986328125,0.3097795248031616,-0.2583550214767456,0.09808526933193207,1.0950088500976562
477,25082,25079,0.02353357896208763,-0.03804467245936394,0.9727347493171692,2.2211973667144775,-0.3425702452659607,0.7022073864936829,2.279874801635742,4.107569217681885,0.31129154562950134,-0.294655442237854,0.15565109252929688,1.1162444353103638
478,25092,25089,-0.017351876944303513,0.009203430265188217,1.0284950733184814,2.24415922164917,-2.326866388320923,0.7711772918701172,2.280167818069458,4.107875823974609,0.3110749423503876,-0.2875974178314209,0.13132058084011078,1.091877818107605
