,timestamp_start,timestamp_end,acc.x,acc.y,acc.z,gyro.x,gyro.y,gyro.z,stateEstimate.x,stateEstimate.y,stateEstimate.z,stabilizer.pitch,stabilizer.roll,stabilizer.yaw
0,107694,107693,0.04589320719242096,-0.05273887515068054,0.987544059753418,8.828659057617188,25.537200927734375,2.5612845420837402,1.9698920249938965,3.999683141708374,0.1713046133518219,-0.4892297685146332,-1.3532934188842773,1.9794350862503052
1,107704,107703,0.017771875485777855,0.05262809619307518,0.9740425944328308,14.592041969299316,12.626180648803711,2.4383058547973633,1.9684617519378662,4.001275539398193,0.17341120541095734,-0.635635495185852,-1.4233157634735107,2.0191256999969482
2,107714,107713,0.010992760770022869,0.02533603087067604,0.9954137802124023,17.910722732543945,2.3480935096740723,2.352506399154663,1.9680583477020264,4.001640319824219,0.17042063176631927,-0.8495504260063171,-1.3004112243652344,2.053572416305542
3,107724,107723,0.020613808184862137,-0.05187128111720085,1.0221909284591675,18.90753746032715,-5.282409191131592,2.3923935890197754,1.968044638633728,4.00057315826416,0.17238622903823853,-0.9625605940818787,-0.9702661037445068,2.08020281791687
4,107734,107733,-0.0061604902148246765,-0.044046491384506226,1.0507797002792358,15.488276481628418,-3.64345645904541,2.4805383682250977,1.9674397706985474,4.002390384674072,0.1739351898431778,-0.921661913394928,-1.180259346961975,2.1173582077026367
5,107744,107743,-0.03092910535633564,-0.0282709002494812,1.0086339712142944,11.232719421386719,-8.925219535827637,1.9253772497177124,1.966385006904602,4.001125812530518,0.17440642416477203,-0.9351807236671448,-1.014013648033142,2.152560234069824
6,107754,107753,0.0023682608734816313,0.030483407899737358,0.9696773290634155,9.014739990234375,-8.131300926208496,2.5471889972686768,1.966050148010254,4.001094341278076,0.17601241171360016,-0.9055639505386353,-0.9857824444770813,2.179455041885376
7,107764,107763,0.0884050652384758,-0.1266191452741623,1.0331114530563354,7.989902496337891,-5.583077430725098,2.367311477661133,1.9640628099441528,4.002068996429443,0.177747905254364,-0.8373612761497498,-0.9110456109046936,2.1991913318634033
8,107774,107773,0.05485444515943527,-0.03736863657832146,1.0152722597122192,9.557466506958008,-4.157411098480225,2.517368793487549,1.9644687175750732,4.0034284591674805,0.17949502170085907,-0.8631015419960022,-0.8262843489646912,2.231184482574463
9,107784,107783,-0.012413940392434597,-0.0920351892709732,1.0062475204467773,11.702901840209961,-3.6124656200408936,2.4466044902801514,1.9641122817993164,4.005265235900879,0.18077321350574493,-0.9676803350448608,-0.6389128565788269,2.272732973098755
10,107794,107793,0.016356132924556732,-0.06050095707178116,0.9928520321846008,13.689329147338867,-5.1747541427612305,2.349290609359741,1.9652236700057983,4.006541728973389,0.1825283020734787,-0.9754129648208618,-0.5010486841201782,2.3025588989257812
11,107804,107803,0.04755369946360588,0.01045585609972477,1.050535798072815,13.954102516174316,-7.472872257232666,2.8922460079193115,1.9653645753860474,4.007390975952148,0.18433299660682678,-0.8715493083000183,-0.4853151738643646,2.3089067935943604
12,107814,107813,0.06331237405538559,-0.08815276622772217,1.0377308130264282,13.36268424987793,-9.583885192871094,3.4325168132781982,1.9638512134552002,4.008066177368164,0.18341828882694244,-0.6532269716262817,-0.3012470304965973,2.339609146118164
13,107824,107823,0.020195214077830315,-0.031202709302306175,1.0537495613098145,12.880772590637207,-9.810628890991211,2.86202335357666,1.9651073217391968,4.010900020599365,0.1850811243057251,-0.7225650548934937,-0.27891379594802856,2.3639070987701416
14,107834,107833,-0.01508092787116766,3.3784537663450465e-05,1.0457266569137573,11.666274070739746,-8.79870319366455,2.5026018619537354,1.9662017822265625,4.010284900665283,0.18710745871067047,-0.6971549987792969,0.047532446682453156,2.428788423538208
15,107844,107843,0.008325132541358471,-0.03668879345059395,1.0620168447494507,9.653839111328125,-8.519909858703613,2.443929672241211,1.9658318758010864,4.011352062225342,0.18833523988723755,-0.5114328265190125,0.16493359208106995,2.4543328285217285
16,107854,107853,0.013069081120193005,-0.0013190354220569134,1.0245698690414429,8.765233039855957,-7.095381259918213,1.6345174312591553,1.9659324884414673,4.012573719024658,0.19017568230628967,-0.42193156480789185,0.10233386605978012,2.4536709785461426
17,107864,107863,0.02571130357682705,-0.07041948288679123,0.9309151768684387,4.927194595336914,-5.88191032409668,1.8242124319076538,1.9652857780456543,4.012390613555908,0.19205373525619507,-0.309495210647583,0.1838105022907257,2.472170114517212
18,107874,107873,0.028826633468270302,-0.035218000411987305,1.0412369966506958,4.960708141326904,-5.665790557861328,1.944386601448059,1.9662357568740845,4.014660835266113,0.19384418427944183,-0.41660887002944946,0.14747734367847443,2.475189208984375
19,107884,107883,-0.0035751003306359053,-0.019019614905118942,1.0412979125976562,6.191549777984619,-5.381808280944824,2.290795087814331,1.965699315071106,4.013875484466553,0.19655482470989227,-0.28932738304138184,0.27589529752731323,2.5088043212890625
20,107894,107893,0.004418564960360527,-0.035581283271312714,1.064583659172058,8.965620994567871,-7.307875156402588,2.0626089572906494,1.9653282165527344,4.014978408813477,0.19856470823287964,-0.15786415338516235,0.4173813462257385,2.542928457260132
21,107904,107903,0.026086725294589996,-0.015868844464421272,0.9841950535774231,10.494163513183594,-5.778165817260742,1.8400452136993408,1.966234803199768,4.014321327209473,0.20058508217334747,-0.2045312076807022,0.596801221370697,2.5629777908325195
22,107914,107913,0.08105820417404175,-0.047959234565496445,1.0158514976501465,8.925248146057129,-3.2639362812042236,1.8154593706130981,1.9660650491714478,4.014476299285889,0.20341892540454865,-0.16301093995571136,0.6231496334075928,2.5731775760650635
23,107924,107923,-0.004165318328887224,-0.07531639188528061,1.0463382005691528,8.058027267456055,-7.335079193115234,1.7421071529388428,1.965857982635498,4.014113903045654,0.20553737878799438,-0.039129987359046936,0.8575652837753296,2.611147403717041
24,107934,107933,0.042799822986125946,-0.03279982507228851,1.0037295818328857,5.507699489593506,-6.739640235900879,1.482392430305481,1.9659368991851807,4.0158491134643555,0.2077120691537857,0.10442791879177094,0.7443180084228516,2.618190288543701
25,107944,107943,-0.02768586575984955,0.12615671753883362,1.0430173873901367,1.7691494226455688,-6.8499627113342285,1.453297734260559,1.96549654006958,4.016420364379883,0.21058228611946106,0.22748757898807526,0.7589951157569885,2.6366703510284424
26,107954,107953,6.138980097603053e-05,0.016139034181833267,1.0117061138153076,1.5955246686935425,-6.980231761932373,1.0782099962234497,1.9645202159881592,4.017622947692871,0.21273262798786163,0.3520227074623108,0.7263776063919067,2.6521663665771484
27,107964,107963,0.07171206176280975,-0.04621538519859314,1.0167747735977173,0.3626405596733093,-1.8690568208694458,0.338575154542923,1.9659267663955688,4.017331123352051,0.21516986191272736,0.21522462368011475,0.8418524861335754,2.6398251056671143
28,107974,107973,-0.03777505084872246,0.0642174556851387,1.0041388273239136,2.5899980068206787,-2.0110533237457275,0.32310304045677185,1.965988278388977,4.017651557922363,0.2173822969198227,0.2168872058391571,0.7948932647705078,2.6364569664001465
29,107984,107983,0.0010552238672971725,-0.10504061728715897,0.9822683334350586,3.9391560554504395,0.7688614130020142,-0.05275817587971687,1.9654959440231323,4.017295837402344,0.21766389906406403,0.2571121156215668,0.9277504086494446,2.645475387573242
30,107994,107993,0.00765713257715106,-0.040243152529001236,1.0023614168167114,4.279824733734131,0.4477267563343048,-0.5881748199462891,1.965583324432373,4.018460750579834,0.2197779417037964,0.26771506667137146,0.9176041483879089,2.6471381187438965
31,108004,108003,-0.0163557305932045,0.020120883360505104,0.9963000416755676,4.0234785079956055,-0.9978407621383667,-1.3858532905578613,1.9663269519805908,4.017909049987793,0.22191594541072845,0.13034500181674957,1.0604641437530518,2.618913412094116
32,108014,108013,-0.008178300224244595,-0.010469063185155392,0.9774176478385925,1.4582405090332031,-2.973267078399658,-1.0623751878738403,1.9662142992019653,4.017291069030762,0.2261885106563568,0.1874927282333374,1.0995367765426636,2.6142935752868652
33,108024,108023,-0.023785151541233063,0.005877004470676184,1.006583571434021,-0.03360951319336891,-5.022355556488037,-0.8283377885818481,1.9652127027511597,4.020665168762207,0.22849857807159424,0.278337687253952,0.7195543050765991,2.6135475635528564
34,108034,108033,0.021871699020266533,-0.028341175988316536,0.9510796070098877,-0.6806898713111877,-5.711709022521973,-1.7164665460586548,1.9679594039916992,4.022491931915283,0.23048871755599976,0.010820871219038963,0.5849708914756775,2.545624256134033
35,108044,108043,0.015073511749505997,-0.013806053437292576,0.9733849167823792,2.927729606628418,-7.992629528045654,-0.9402348399162292,1.9675735235214233,4.023584365844727,0.23226530849933624,0.18034721910953522,0.6221028566360474,2.5497055053710938
36,108054,108053,-0.046573393046855927,0.030583016574382782,0.9788863062858582,7.487421989440918,-9.899758338928223,-1.1906483173370361,1.9679133892059326,4.024202823638916,0.23457831144332886,0.3084288537502289,0.804749071598053,2.5435338020324707
37,108064,108063,-0.05624765157699585,0.06779561191797256,0.9731984734535217,11.295719146728516,-10.279179573059082,-1.1773427724838257,1.9675188064575195,4.024162769317627,0.23674285411834717,0.437208890914917,0.959444522857666,2.5360312461853027
38,108074,108073,-0.08999451994895935,0.1677907109260559,0.923559844493866,10.703545570373535,-8.250080108642578,-1.0016106367111206,1.966653823852539,4.0247344970703125,0.2387976348400116,0.5547810196876526,1.0748846530914307,2.5266823768615723
39,108084,108083,-0.0012189812259748578,0.010217641480267048,0.9286927580833435,7.629807472229004,-5.568361282348633,-1.4341187477111816,1.9672237634658813,4.023456573486328,0.24086454510688782,0.5580025911331177,1.3113964796066284,2.4996883869171143
40,108094,108093,-0.027903202921152115,0.08461306989192963,0.9423941373825073,2.925668954849243,-2.345395803451538,-2.1290225982666016,1.9660214185714722,4.0237250328063965,0.24282312393188477,0.7330998778343201,1.3852702379226685,2.503777503967285
41,108104,108103,-0.04584476724267006,-0.008655320852994919,0.9720336198806763,-1.5628135204315186,-1.5882543325424194,-2.1687986850738525,1.966445803642273,4.022739410400391,0.2446642369031906,0.7157465219497681,1.4619801044464111,2.471485137939453
42,108114,108113,-0.0018347264267504215,-0.02156035788357258,0.9642962217330933,-6.124301910400391,2.427783489227295,-2.2668516635894775,1.9656579494476318,4.0227484703063965,0.24621687829494476,0.7260661125183105,1.373058795928955,2.45565128326416
43,108124,108123,0.009984483942389488,-0.0010873305145651102,0.924637496471405,-9.692407608032227,3.510350465774536,-2.0259275436401367,1.9655249118804932,4.022421360015869,0.2480091154575348,0.7069175839424133,1.298850178718567,2.4339871406555176
44,108134,108133,0.012009510770440102,-0.10607893019914627,0.9473330974578857,-10.026854515075684,4.0457444190979,-2.270402193069458,1.9659451246261597,4.023035049438477,0.2497420608997345,0.6603334546089172,1.168209433555603,2.414041757583618
45,108144,108143,-0.020729200914502144,-0.01308213360607624,0.9896184206008911,-8.560653686523438,3.2881977558135986,-2.5683538913726807,1.9654314517974854,4.023778915405273,0.25321730971336365,0.6193779706954956,1.0427223443984985,2.3913235664367676
46,108154,108153,0.04947498068213463,-0.002092141890898347,0.9418325424194336,-5.200394153594971,2.9226126670837402,-2.622591733932495,1.9648913145065308,4.0236992835998535,0.25491848587989807,0.6742163300514221,0.9589934945106506,2.3842506408691406
47,108164,108163,0.1123921200633049,0.004190778825432062,0.8992321491241455,-1.6470199823379517,2.3232078552246094,-2.7690532207489014,1.9616730213165283,4.023001194000244,0.2564539611339569,0.9482115507125854,0.9290491342544556,2.4176862239837646
48,108174,108173,0.02750803902745247,0.013374059461057186,0.9536173939704895,1.776041865348816,0.09225189685821533,-2.698456048965454,1.9604772329330444,4.022407531738281,0.26101088523864746,1.0383309125900269,0.9629203081130981,2.4084253311157227
49,108184,108183,0.051410529762506485,0.02004309371113777,0.9381193518638611,1.4759352207183838,7.275017261505127,-2.170389175415039,1.9604699611663818,4.022398948669434,0.2627597153186798,0.9800777435302734,1.0254323482513428,2.3682432174682617
50,108194,108193,0.06722991913557053,-0.11370867490768433,0.9264888763427734,0.832449734210968,9.096999168395996,-2.1707301139831543,1.9659160375595093,4.027040004730225,0.265057772397995,0.3062627613544464,0.7090943455696106,2.266828775405884
51,108204,108203,-0.007097119465470314,0.14266330003738403,0.9471613168716431,-1.1262568235397339,11.667808532714844,-1.534764051437378,1.952534794807434,4.022489547729492,0.2684757709503174,1.6374255418777466,1.1279723644256592,2.467454433441162
52,108214,108213,0.011208995245397091,0.053524307906627655,0.9704680442810059,-0.9604855179786682,10.698708534240723,-2.4882614612579346,1.9520765542984009,4.02129602432251,0.2718616724014282,1.324764370918274,1.120542049407959,2.412261486053467
53,108224,108223,0.0616258904337883,-0.0766298696398735,0.9192232489585876,-2.7065060138702393,17.486892700195312,-2.2205915451049805,1.95127272605896,4.021106719970703,0.2736307382583618,1.145770788192749,1.1687384843826294,2.377210855484009
54,108234,108233,0.017818832769989967,-0.08304431289434433,0.9024336934089661,-7.289818286895752,25.312795639038086,-2.8792827129364014,1.952500820159912,4.020296573638916,0.27575618028640747,0.6880096793174744,1.0969281196594238,2.317070960998535
55,108244,108243,-0.19381842017173767,0.03680157661437988,0.9835056066513062,-10.317702293395996,24.89837074279785,-3.0651731491088867,1.950081706047058,4.017969608306885,0.27679166197776794,0.6116917729377747,1.2471944093704224,2.292081594467163
56,108254,108253,-0.11409725993871689,0.033334989100694656,0.9670947790145874,-14.826141357421875,27.50391960144043,-2.1099295616149902,1.950693964958191,4.017355442047119,0.2786184847354889,0.13397832214832306,1.0194289684295654,2.2487032413482666
57,108264,108263,0.009943895973265171,-0.024121956899762154,0.92579585313797,-17.372846603393555,25.197298049926758,-2.133521556854248,1.9501960277557373,4.016908645629883,0.2801615297794342,-0.2537176311016083,0.8058874607086182,2.2176427841186523
58,108274,108273,0.014061829075217247,-0.027109192684292793,0.9276776313781738,-16.826797485351562,18.565425872802734,-1.8952357769012451,1.9483418464660645,4.014716148376465,0.28150010108947754,-0.3451550006866455,0.7175285220146179,2.216902256011963
59,108284,108283,0.0408930703997612,0.02123071998357773,0.9278596639633179,-14.343384742736816,11.565256118774414,-2.08974027633667,1.9475690126419067,4.014096260070801,0.28286418318748474,-0.5586222410202026,0.4916839897632599,2.1959619522094727
60,108294,108293,0.01288163848221302,0.0263347290456295,0.930818498134613,-10.330503463745117,3.6005146503448486,-2.707001209259033,1.946690320968628,4.013599872589111,0.2842322289943695,-0.6397852301597595,0.3858089745044708,2.1722137928009033
61,108304,108303,0.02028546668589115,-0.03282192349433899,0.9286595582962036,-6.827547550201416,-0.08158273249864578,-2.0306806564331055,1.945512294769287,4.011519908905029,0.28537607192993164,-0.6735572814941406,0.3588622808456421,2.143300771713257
62,108314,108313,0.10205131769180298,-0.11629882454872131,0.947411060333252,-4.29073429107666,-2.6553707122802734,-1.8998470306396484,1.9454268217086792,4.011553764343262,0.2863474488258362,-0.7259138822555542,0.3038020431995392,2.112759828567505
63,108324,108323,0.04176058620214462,-0.05448775738477707,0.9501640200614929,-3.603545904159546,-1.0895940065383911,-2.4739949703216553,1.9439780712127686,4.0110249519348145,0.2873835563659668,-0.7582778930664062,0.19720996916294098,2.082131862640381
64,108334,108333,0.027965350076556206,-0.08362603932619095,0.9654452800750732,-4.198465347290039,-0.04224812239408493,-2.2650840282440186,1.9435302019119263,4.008860111236572,0.28833797574043274,-0.7952574491500854,0.25621896982192993,2.055798292160034
65,108344,108343,0.014975973404943943,-0.07107449322938919,0.948256254196167,-4.307643413543701,-0.7184473872184753,-2.3589460849761963,1.9439079761505127,4.009011268615723,0.28985661268234253,-0.847000241279602,0.139912948012352,2.0238356590270996
66,108354,108353,0.013958310708403587,-0.06080150976777077,0.9247583150863647,-6.3856353759765625,3.230381488800049,-2.224137783050537,1.9443050622940063,4.007659435272217,0.29076752066612244,-0.9238643646240234,0.16626425087451935,2.000727891921997
67,108364,108363,-0.0019664836581796408,-0.023536628112196922,0.9303386211395264,-6.627743244171143,3.5569398403167725,-2.2068824768066406,1.944623351097107,4.006927967071533,0.2916262447834015,-1.0212572813034058,0.16084426641464233,1.9782776832580566
68,108374,108373,-0.0038980799727141857,0.04725714027881622,0.9093424677848816,-8.253630638122559,1.7790571451187134,-2.076201915740967,1.9449141025543213,4.005330562591553,0.2932000756263733,-1.0969661474227905,0.14269603788852692,1.957458734512329
69,108384,108383,0.0067038508132100105,-0.03188266605138779,0.9284144043922424,-9.922003746032715,-1.599426031112671,-1.5599510669708252,1.9447412490844727,4.005972862243652,0.2940417230129242,-1.13424813747406,-0.06061863154172897,1.923689365386963
70,108394,108393,0.0016666530864313245,-0.08784201741218567,0.9835243225097656,-11.022287368774414,-4.966653823852539,-1.5820258855819702,1.9450594186782837,4.007267951965332,0.29481080174446106,-1.104633092880249,-0.28143322467803955,1.8920073509216309
71,108404,108403,-0.004351595416665077,-0.07227476686239243,0.9853432774543762,-9.65717601776123,-7.122513771057129,-1.7995785474777222,1.9447764158248901,4.006427764892578,0.29602858424186707,-1.0315603017807007,-0.3459901511669159,1.879629373550415
72,108414,108413,0.021046115085482597,-0.061589598655700684,0.9488589763641357,-6.877821445465088,-7.61629581451416,-2.6466166973114014,1.9441994428634644,4.005420207977295,0.2967504858970642,-0.9263189435005188,-0.37604784965515137,1.8661085367202759
73,108424,108423,-0.04420377314090729,0.0006932371761649847,0.954627275466919,-2.8183133602142334,-8.379132270812988,-2.746206521987915,1.9443001747131348,4.006305694580078,0.29746371507644653,-0.8130966424942017,-0.5022125840187073,1.8289339542388916
74,108434,108433,-0.0843583270907402,-0.019482586532831192,0.9764935374259949,-0.6033539772033691,-6.534997940063477,-2.45748233795166,1.9437363147735596,4.004777908325195,0.2981390655040741,-0.7135010361671448,-0.4204654395580292,1.8186269998550415
75,108444,108443,-0.06970571726560593,-0.011104697361588478,0.9993848204612732,1.1863685846328735,-4.218691349029541,-2.391746759414673,1.9470616579055786,4.00412130355835,0.29947999119758606,-0.9496195912361145,-0.46373891830444336,1.790964961051941
76,108454,108453,-0.039585329592227936,-0.008791832253336906,0.9788259267807007,0.05075927823781967,-0.13101935386657715,-2.065202236175537,1.945864200592041,4.003359317779541,0.30020520091056824,-0.815801739692688,-0.4828766882419586,1.7613362073898315
77,108464,108463,0.02515513263642788,0.008359014987945557,0.9257051348686218,-0.1189381554722786,-5.515793323516846,-2.565840244293213,1.9459142684936523,4.003280162811279,0.3008600175380707,-0.7900408506393433,-0.4465366005897522,1.7448246479034424
78,108474,108473,-0.07997915893793106,0.17127206921577454,0.9601567387580872,-1.16157066822052,-6.740772724151611,-2.234618663787842,1.9458659887313843,4.002976894378662,0.2990367114543915,-0.7599283456802368,-0.4964192509651184,1.7162538766860962
79,108484,108483,-0.08496839553117752,0.20115743577480316,0.9808951020240784,-3.0093071460723877,-7.187322616577148,-2.189436197280884,1.9461469650268555,4.0022053718566895,0.299423485994339,-0.7181233167648315,-0.48855075240135193,1.7011233568191528
80,108494,108493,-0.024322979152202606,0.20796430110931396,0.9598503708839417,-3.5320990085601807,-7.939395427703857,-2.0126988887786865,1.9465670585632324,4.003695964813232,0.2998231053352356,-0.6560045480728149,-0.5818676352500916,1.6709927320480347
81,108504,108503,0.02430521883070469,0.21435829997062683,0.9404957294464111,-2.9059934616088867,-7.530618190765381,-1.8313909769058228,1.9454575777053833,4.003968715667725,0.29921573400497437,-0.5136876106262207,-0.6637560129165649,1.6401567459106445
82,108514,108513,-0.020513087511062622,0.09820092469453812,1.005741000175476,-1.8299936056137085,-7.7704973220825195,-2.176496982574463,1.946580410003662,4.004785537719727,0.2995032072067261,-0.5170281529426575,-0.7183785438537598,1.6237566471099854
83,108524,108523,-0.019646132364869118,0.11061246693134308,1.0126794576644897,0.7332014441490173,-6.871467113494873,-2.0464234352111816,1.9461109638214111,4.003783226013184,0.2997575104236603,-0.4112204909324646,-0.6735299825668335,1.6060389280319214
84,108534,108533,0.003954348154366016,0.08694861084222794,1.0008538961410522,3.0603842735290527,-6.202910900115967,-1.432413935661316,1.9463545083999634,4.003256320953369,0.29999950528144836,-0.4193558096885681,-0.5969377160072327,1.5994702577590942
85,108544,108543,0.028306543827056885,-0.015100307762622833,0.973063051700592,3.4961724281311035,-7.684114456176758,-1.1709012985229492,1.9449584484100342,4.003316402435303,0.3016928434371948,-0.2825091481208801,-0.5687971115112305,1.577040672302246
86,108554,108553,-0.02628733403980732,-0.04282008856534958,1.0098891258239746,2.3181657791137695,-7.021083831787109,-1.081756830215454,1.945359230041504,4.001860618591309,0.3020015060901642,-0.23692919313907623,-0.469948947429657,1.5760325193405151
87,108564,108563,0.06318600475788116,-0.11905933171510696,0.9765148162841797,0.016589242964982986,-3.701984167098999,-1.407570481300354,1.944753646850586,4.001650333404541,0.30230823159217834,-0.12887851893901825,-0.4743221402168274,1.5579689741134644
88,108574,108573,0.025224190205335617,-0.09425860643386841,0.9744833707809448,-1.0642613172531128,-4.010850429534912,-1.4600529670715332,1.9477952718734741,4.001248359680176,0.30109912157058716,-0.3406389653682709,-0.5071898698806763,1.5681337118148804
89,108584,108583,-0.059525616466999054,0.13154295086860657,0.9789158701896667,-1.9504296779632568,-5.842206954956055,-1.9188804626464844,1.9466397762298584,4.001064300537109,0.30133625864982605,-0.22647006809711456,-0.5516185164451599,1.5404609441757202
90,108594,108593,-0.03632909059524536,0.10202165693044662,0.9849585294723511,-2.773803234100342,-4.070327281951904,-1.2001343965530396,1.947121262550354,4.0009541511535645,0.30151069164276123,-0.1943424493074417,-0.6211767196655273,1.5220733880996704
91,108604,108603,-0.020942261442542076,-0.04353941231966019,0.9900411367416382,-2.4836878776550293,-1.1312980651855469,-1.4793860912322998,1.9464861154556274,3.999783992767334,0.3022022545337677,-0.1116470992565155,-0.6099108457565308,1.506932020187378
92,108614,108613,0.007318583782762289,-0.0366704948246479,0.9944888353347778,-0.5684647560119629,6.993539810180664,-1.388515830039978,1.9463317394256592,4.000738143920898,0.3023958206176758,-0.1305917352437973,-0.6523810625076294,1.4896692037582397
93,108624,108623,-0.031107837334275246,-0.10565294325351715,0.9947314262390137,1.0660046339035034,11.156760215759277,-1.209520936012268,1.9477273225784302,4.000442028045654,0.3025437593460083,-0.317300409078598,-0.6615012288093567,1.4863499402999878
94,108634,108633,-0.09808340668678284,-0.053965091705322266,1.0402065515518188,3.3653619289398193,14.762720108032227,-0.9557839035987854,1.9478766918182373,3.9991719722747803,0.30273863673210144,-0.43857836723327637,-0.5664772987365723,1.4756182432174683
95,108644,108643,-0.1096121147274971,-0.037822771817445755,1.0125977993011475,2.5112054347991943,14.09660530090332,-1.3342609405517578,1.948777198791504,3.998934507369995,0.29812660813331604,-0.6535755395889282,-0.5322027206420898,1.4707485437393188
96,108654,108653,-0.11617030203342438,0.02936890907585621,0.9860949516296387,2.3112504482269287,10.982033729553223,-0.8677102327346802,1.9496921300888062,3.998434066772461,0.29803666472435,-0.8250389099121094,-0.5024288892745972,1.4625946283340454
97,108664,108663,0.009625086560845375,-0.03789234533905983,1.016131043434143,1.5885677337646484,6.2863006591796875,-0.9546599388122559,1.9485292434692383,3.9994897842407227,0.29816770553588867,-0.7832041382789612,-0.5615093111991882,1.431598424911499
98,108674,108673,0.06632909923791885,-0.05787229537963867,0.9772974252700806,1.157006859779358,0.5161054134368896,-1.078608751296997,1.948106288909912,3.9995667934417725,0.29801321029663086,-0.8078129887580872,-0.6184545755386353,1.4109177589416504
99,108684,108683,0.041619058698415756,-0.08117055892944336,1.0478830337524414,2.300248622894287,-2.019129514694214,-0.28484681248664856,1.9477418661117554,3.999821901321411,0.2980171740055084,-0.7336324453353882,-0.5912685990333557,1.403928518295288
100,108694,108693,0.031033741310238838,-0.08625801652669907,0.9740592837333679,3.035083055496216,-0.9434689283370972,-0.7133447527885437,1.9474447965621948,3.998194932937622,0.2980346381664276,-0.6747474670410156,-0.5443058609962463,1.3941632509231567
101,108704,108703,0.008425042033195496,-0.056662417948246,0.9951699376106262,4.469115734100342,0.009161065332591534,-0.7961559891700745,1.9476772546768188,3.9970955848693848,0.2976089119911194,-0.6964755654335022,-0.4817776679992676,1.3933346271514893
102,108714,108713,0.011515490710735321,-0.07779080420732498,0.9761608242988586,5.235386848449707,2.9179983139038086,-0.6568502187728882,1.947057843208313,3.997629165649414,0.29757437109947205,-0.680336058139801,-0.4036538600921631,1.3841642141342163
103,108724,108723,0.0370163656771183,-0.04520004987716675,1.043781042098999,4.835063457489014,6.1672234535217285,-0.26461562514305115,1.9464884996414185,3.9972736835479736,0.2974720895290375,-0.7175852656364441,-0.3193461000919342,1.3819705247879028
104,108734,108733,0.0024927963968366385,0.04864461347460747,1.0663272142410278,3.385937213897705,7.58359432220459,-0.6349700093269348,1.9470654726028442,3.9984095096588135,0.295152485370636,-0.7933583855628967,-0.3249671757221222,1.3734298944473267
105,108744,108743,0.03688068315386772,-0.03140968829393387,1.0623944997787476,0.7540482878684998,9.08018970489502,-0.13502052426338196,1.947737693786621,3.998911142349243,0.29501277208328247,-0.8975932002067566,-0.3656443953514099,1.3657029867172241
106,108754,108753,0.039388228207826614,-0.11341287195682526,1.0231684446334839,0.3025462329387665,8.533509254455566,-0.6561892032623291,1.9482269287109375,4.000113010406494,0.29492583870887756,-1.0105302333831787,-0.4265298843383789,1.356958031654358
107,108764,108763,0.0018844928126782179,0.13027597963809967,0.995369017124176,0.2861343026161194,8.69701099395752,-1.063490629196167,1.9482945203781128,3.9997689723968506,0.2949448525905609,-1.042222499847412,-0.40042048692703247,1.3426134586334229
108,108774,108773,-0.03030220791697502,0.026483699679374695,1.032727837562561,2.629300832748413,2.6167654991149902,-0.4127814471721649,1.9488112926483154,3.9999141693115234,0.29380813241004944,-1.1021932363510132,-0.4530944526195526,1.3312406539916992
109,108784,108783,-0.008099781349301338,-0.018423616886138916,1.0587197542190552,5.513916969299316,1.5575706958770752,-0.8707446455955505,1.9490268230438232,4.000396251678467,0.2937829792499542,-1.1103686094284058,-0.37337836623191833,1.3260241746902466
110,108794,108793,-0.029706653207540512,-0.039946548640728,1.094506859779358,7.73582649230957,-0.6010451912879944,-0.7295615077018738,1.9507031440734863,3.9991283416748047,0.29365527629852295,-1.2404050827026367,-0.2503114640712738,1.3368604183197021
111,108804,108803,-0.02405860461294651,-0.10065969079732895,1.0573395490646362,8.39000129699707,0.545366108417511,-1.1582435369491577,1.9486513137817383,3.9985437393188477,0.28977400064468384,-1.027774691581726,-0.10414516925811768,1.3182308673858643
112,108814,108813,-0.01691066473722458,-0.029590221121907234,1.0753746032714844,7.297434329986572,-0.6427379846572876,-0.70603346824646,1.9503480195999146,3.9985568523406982,0.2896084785461426,-1.1471951007843018,-0.039497435092926025,1.3159979581832886
113,108824,108823,0.03673626109957695,-0.0033047269098460674,1.0217012166976929,3.9753174781799316,3.695603847503662,-0.6751768589019775,1.9502215385437012,3.9983725547790527,0.2895958721637726,-1.114087700843811,-0.002329145558178425,1.301586389541626
114,108834,108833,0.08952164649963379,-0.13838057219982147,1.0040204524993896,0.9734324216842651,2.6552553176879883,-0.6869133710861206,1.9514919519424438,3.9992358684539795,0.2886193096637726,-1.206037163734436,0.05493523180484772,1.3022133111953735
115,108844,108843,0.05880004167556763,-0.13943007588386536,1.0402277708053589,-1.6327232122421265,1.4182323217391968,-0.6046034097671509,1.951043963432312,3.9979279041290283,0.28863731026649475,-1.1850734949111938,0.05715983733534813,1.2948191165924072
116,108854,108853,-0.014041204005479813,-0.021286536008119583,1.0577670335769653,-1.798705816268921,0.9706162810325623,-0.40733951330184937,1.9516977071762085,3.9987525939941406,0.28857287764549255,-1.2261968851089478,0.02898215875029564,1.2904084920883179
117,108864,108863,-0.00970142800360918,0.16919709742069244,1.0046608448028564,-2.3318984508514404,-1.343909502029419,-0.5091052055358887,1.9524540901184082,4.001380443572998,0.2885548770427704,-1.2431544065475464,-0.13362722098827362,1.2676053047180176
118,108874,108873,0.014024852775037289,0.09716550260782242,1.0583194494247437,-0.02462342381477356,-1.5143756866455078,-0.09344125539064407,1.9532583951950073,4.0014424324035645,0.2897120714187622,-1.3079197406768799,-0.15620219707489014,1.2639620304107666
119,108884,108883,-0.019250785931944847,-0.10109630972146988,1.0349551439285278,3.796065330505371,-4.341097354888916,-0.29589444398880005,1.9527496099472046,4.000688076019287,0.2899772822856903,-1.1859890222549438,-0.031365785747766495,1.2741374969482422
120,108894,108893,-0.030258988961577415,-0.14101752638816833,1.0408949851989746,7.406465530395508,-5.500300407409668,-0.1981557458639145,1.9523494243621826,3.9993138313293457,0.29021206498146057,-1.038361668586731,0.06972626596689224,1.2744094133377075
121,108904,108903,0.025463569909334183,-0.02164655178785324,1.0589061975479126,8.565521240234375,-3.948467254638672,0.21463629603385925,1.9526422023773193,3.9991488456726074,0.2926585376262665,-1.0230538845062256,0.05351643264293671,1.2718156576156616
122,108914,108913,0.06749015301465988,-0.025214416906237602,1.0408085584640503,6.659701824188232,-3.651341199874878,0.13939441740512848,1.953631043434143,3.997859001159668,0.2929624319076538,-1.1140849590301514,0.19829519093036652,1.2850755453109741
123,108924,108923,0.09306184947490692,-0.04804738238453865,1.066412091255188,2.8732550144195557,-2.3143467903137207,-0.09386587888002396,1.9540146589279175,3.9982662200927734,0.2934989333152771,-1.040622591972351,0.1670694798231125,1.2704041004180908
124,108934,108933,0.03668544068932533,-0.06264357268810272,1.030585527420044,-0.12789477407932281,-2.25618052482605,-0.3338284492492676,1.9537557363510132,3.9993903636932373,0.2960669696331024,-0.9220929741859436,0.23391878604888916,1.2760412693023682
125,108944,108943,0.03870189189910889,0.028355484828352928,0.9670982956886292,-2.3660728931427,-1.201052188873291,-0.5089577436447144,1.9537819623947144,4.001626491546631,0.2967642545700073,-0.895297110080719,0.09603340178728104,1.2526171207427979
126,108954,108953,-0.01910228468477726,0.0939674973487854,1.0129172801971436,-1.582116723060608,-0.9656320214271545,-0.34845221042633057,1.9566271305084229,4.001092433929443,0.2973429262638092,-1.1225842237472534,0.16168873012065887,1.2566968202590942
127,108964,108963,0.0005703314091078937,0.038950446993112564,1.0181254148483276,0.43240469694137573,-2.245760679244995,-0.07464787364006042,1.956992506980896,4.00130558013916,0.2981545627117157,-1.0237278938293457,0.14600849151611328,1.2542535066604614
128,108974,108973,-0.0495598278939724,0.04537716507911682,1.0779486894607544,3.0623281002044678,-4.360775470733643,-0.12047998607158661,1.9574123620986938,4.000387668609619,0.298092782497406,-0.9833230972290039,0.166666179895401,1.2566478252410889
129,108984,108983,0.02409934625029564,-0.0358952172100544,0.9762301445007324,3.9021122455596924,-2.742321252822876,-0.5683640241622925,1.959398627281189,4.000694751739502,0.2987006902694702,-1.0605096817016602,0.22486214339733124,1.259095311164856
130,108994,108993,-0.018885375931859016,0.038898564875125885,0.9409142136573792,5.180813312530518,-6.046281337738037,-0.5490148663520813,1.959653615951538,3.999394178390503,0.2994759976863861,-0.9764305353164673,0.3035375773906708,1.2606438398361206
131,109004,109003,0.002552537713199854,0.08935535699129105,0.9339540600776672,3.0822763442993164,-6.082873821258545,-0.3552781939506531,1.9592326879501343,3.999613046646118,0.30021917819976807,-0.7833911180496216,0.387538343667984,1.2545109987258911
132,109014,109013,0.02573244832456112,-0.11835823208093643,0.9738180637359619,1.594916582107544,-7.911701679229736,-0.11358683556318283,1.9599310159683228,4.000048637390137,0.30071815848350525,-0.9043818712234497,0.3632523715496063,1.2453064918518066
133,109024,109023,-0.002395888324826956,-0.19255128502845764,1.0364973545074463,-0.32854893803596497,-7.598300457000732,-0.5653496980667114,1.960810661315918,3.999480962753296,0.3013021945953369,-0.8292946219444275,0.39687401056289673,1.2449218034744263
134,109034,109033,-0.05013750120997429,-0.1694575697183609,1.0260436534881592,-2.8149874210357666,-6.450902462005615,-0.8121583461761475,1.9603469371795654,3.999868631362915,0.30170705914497375,-0.6005256175994873,0.39265233278274536,1.2449419498443604
135,109044,109043,-0.09200204908847809,-0.3428094983100891,1.0279868841171265,-4.0304274559021,-6.2741193771362305,-0.8021310567855835,1.9630765914916992,4.000189781188965,0.3022446632385254,-0.6876139640808105,0.3549692928791046,1.229544997215271
136,109054,109053,-0.05374697968363762,-0.09169649332761765,1.028891921043396,-4.05131721496582,-1.4696812629699707,-0.48783114552497864,1.963747501373291,4.000797271728516,0.30291980504989624,-0.5545179843902588,0.29349249601364136,1.2224066257476807
137,109064,109063,0.006326157134026289,0.02937028370797634,0.9826865196228027,-3.9241652488708496,-1.9475654363632202,-0.46100786328315735,1.9663217067718506,4.000849723815918,0.3029724061489105,-0.6620246171951294,0.22636321187019348,1.2042534351348877
138,109074,109073,-0.06339100003242493,0.03777894005179405,0.9716850519180298,-3.7269535064697266,-1.6406049728393555,-0.2288883924484253,1.9660998582839966,4.001458168029785,0.30374836921691895,-0.5069637298583984,0.16362635791301727,1.2047330141067505
139,109084,109083,0.05106513574719429,-0.0038844950031489134,0.9765458106994629,-2.107027530670166,-4.343647003173828,-0.27415645122528076,1.9680843353271484,4.001031875610352,0.304383248090744,-0.5179194211959839,0.1917136013507843,1.207908272743225
140,109094,109093,0.02533751167356968,-0.02503826841711998,0.9794849753379822,-0.9812720417976379,-6.518552780151367,-0.0011348751140758395,1.9687877893447876,4.0011725425720215,0.3049536943435669,-0.49417465925216675,0.15490780770778656,1.2038277387619019
141,109104,109103,0.06368505954742432,-0.06200358271598816,0.9757487773895264,0.21148709952831268,-7.189779281616211,0.1959252506494522,1.9690126180648804,4.00145959854126,0.3050413131713867,-0.34731653332710266,0.138876274228096,1.2053385972976685
142,109114,109113,0.04261590167880058,-0.17090369760990143,0.9633485078811646,1.4983203411102295,-6.6428632736206055,0.2909281253814697,1.9701485633850098,4.0011396408081055,0.3055473566055298,-0.2798108756542206,0.14426642656326294,1.203162431716919
143,109124,109123,-1.352226377093757e-06,-0.19150741398334503,0.9652238488197327,1.236064076423645,-5.839108467102051,-0.2646738290786743,1.9716384410858154,4.000542640686035,0.3059879243373871,-0.29798102378845215,0.16927453875541687,1.1948606967926025
144,109134,109133,-0.015111204236745834,-0.06046039238572121,0.9714140295982361,1.3028229475021362,-3.728828191757202,0.09290546923875809,1.9720669984817505,4.001468181610107,0.30835703015327454,-0.169321671128273,0.19224680960178375,1.1960265636444092
145,109144,109143,0.019158534705638885,-0.006120016798377037,0.964577317237854,0.16281121969223022,-2.191683530807495,-0.12636831402778625,1.9722458124160767,4.000974178314209,0.3089013695716858,-0.08068505674600601,0.21058818697929382,1.1910972595214844
146,109154,109153,0.05379610136151314,-0.03490937873721123,0.9541965126991272,-1.0440016984939575,-0.9628493785858154,0.17963846027851105,1.975042462348938,4.001556873321533,0.30929845571517944,-0.2560587227344513,0.21226368844509125,1.1809247732162476
147,109164,109163,0.07311849296092987,-0.07461794465780258,0.9463958144187927,-2.804328441619873,-1.6924139261245728,-0.19319602847099304,1.975574016571045,4.001365661621094,0.30699673295021057,-0.12106452137231827,0.27007609605789185,1.1859859228134155
148,109174,109173,0.01834380254149437,-0.015352540649473667,0.9770013093948364,-2.4117953777313232,1.7545243501663208,-1.1855552196502686,1.9753668308258057,4.001326084136963,0.30731895565986633,0.027214091271162033,0.219085231423378,1.1923893690109253
149,109184,109183,0.007173399440944195,0.012446151115000248,0.9645752310752869,-2.155303478240967,0.9755648970603943,-1.2539989948272705,1.9776015281677246,4.000965118408203,0.30747732520103455,-0.12764526903629303,0.17079277336597443,1.1718369722366333
150,109194,109193,0.04200303927063942,-0.024980084970593452,0.9517238736152649,-0.33335158228874207,0.6249406933784485,-1.1243746280670166,1.9783146381378174,4.000537872314453,0.3076629340648651,-0.11437631398439407,0.13060985505580902,1.1535820960998535
151,109204,109203,-0.012403258122503757,0.009599607437849045,0.9983850717544556,0.2488633096218109,2.5975522994995117,-1.3202372789382935,1.97903311252594,4.000877380371094,0.30544716119766235,-0.09914078563451767,0.11386305093765259,1.1425457000732422
152,109214,109213,0.06008412688970566,-0.05252551659941673,0.9373189806938171,1.7762328386306763,-1.1233234405517578,-1.4641646146774292,1.9791275262832642,4.001495361328125,0.30540749430656433,-0.09137402474880219,0.11842694878578186,1.1430047750473022
153,109224,109223,0.012448386289179325,-0.02884613908827305,0.9900245070457458,4.116208076477051,-3.6050968170166016,-0.31052711606025696,1.9797409772872925,4.001546859741211,0.30537450313568115,-0.04664776474237442,0.14882612228393555,1.1312686204910278
154,109234,109233,0.03536861389875412,-0.07586755603551865,1.0041015148162842,3.124720335006714,-1.6530460119247437,0.24891510605812073,1.9813992977142334,4.002200603485107,0.30518215894699097,-0.047122128307819366,0.20892906188964844,1.1336153745651245
155,109244,109243,0.020908037200570107,-0.017586281523108482,1.0008164644241333,0.9097604155540466,-1.0119470357894897,0.10623369365930557,1.98271644115448,4.001556396484375,0.3050410747528076,-0.06712435185909271,0.25369101762771606,1.1245290040969849
156,109254,109253,0.018029896542429924,-0.09580955654382706,1.011190414428711,-1.4682103395462036,0.6271756291389465,0.3273979127407074,1.9829267263412476,4.001509666442871,0.30502191185951233,0.05719877406954765,0.26039043068885803,1.1291382312774658
157,109264,109263,-0.023571988567709923,0.110976442694664,1.0015724897384644,-5.720113277435303,3.1557130813598633,-0.3011207580566406,1.9853938817977905,4.001471519470215,0.30422037839889526,-0.0937657430768013,0.21923062205314636,1.123194932937622
158,109274,109273,0.022046806290745735,0.004647732712328434,0.9501574635505676,-6.337238788604736,2.903634548187256,-0.4496784508228302,1.9860790967941284,4.000889301300049,0.3040706515312195,-0.108236163854599,0.1964959353208542,1.1161619424819946
159,109284,109283,-0.026030702516436577,0.023638954386115074,1.0525280237197876,-5.633185863494873,2.0772807598114014,-0.6816962957382202,1.9858072996139526,4.000942230224609,0.30400723218917847,-0.042871274054050446,0.07962716370820999,1.115247368812561
160,109294,109293,0.04375678673386574,0.005045310594141483,0.9837852716445923,-3.2081334590911865,2.8352599143981934,-0.34486880898475647,1.987831473350525,4.001243591308594,0.3038124442100525,-0.1321355104446411,-0.01748199574649334,1.1089308261871338
161,109304,109303,-0.05395208299160004,0.04217804595828056,1.0858463048934937,0.46404826641082764,-1.3173294067382812,0.11566749960184097,1.9891023635864258,4.000600337982178,0.3054189085960388,-0.2181272953748703,0.008894979022443295,1.0997376441955566
162,109314,109313,0.03647935763001442,-0.032017748802900314,1.0049057006835938,1.6028159856796265,-5.2253594398498535,0.07876189798116684,1.98927903175354,3.9999704360961914,0.3055461645126343,-0.08719698339700699,0.003273598151281476,1.0928906202316284
163,109324,109323,-0.03754810988903046,-0.021568715572357178,1.0320274829864502,1.6674822568893433,-6.050605773925781,-0.09595773369073868,1.990424394607544,3.999420166015625,0.30557841062545776,-0.06291627883911133,0.09535279124975204,1.0930675268173218
164,109334,109333,0.043592046946287155,0.041448336094617844,0.9880369901657104,1.8361823558807373,-3.1879096031188965,-0.05297212302684784,1.9915581941604614,3.9989964962005615,0.3036811947822571,-0.01757153868675232,0.10921040922403336,1.0854880809783936
165,109344,109343,-0.008238117210566998,0.014962887391448021,1.018471598625183,1.9425984621047974,2.331801652908325,-0.4257064461708069,1.9921941757202148,3.998267412185669,0.30365118384361267,0.05813636630773544,0.12682020664215088,1.0776835680007935
166,109354,109353,0.04330941289663315,-0.030088061466813087,1.0025527477264404,0.590582013130188,4.12206506729126,-1.533266305923462,1.9950300455093384,3.998404026031494,0.30343371629714966,-0.18463841080665588,0.14149914681911469,1.0705147981643677
167,109364,109363,-0.004857330117374659,0.00018747586000245064,1.050986647605896,-0.8669275045394897,4.6478962898254395,-1.8365329504013062,1.9954395294189453,3.9981188774108887,0.3020145893096924,-0.13763609528541565,0.13668562471866608,1.051574945449829
168,109374,109373,0.005817446857690811,-0.03133740276098251,1.0054967403411865,-2.26548171043396,4.318717002868652,-2.470900297164917,1.99599289894104,3.9981346130371094,0.3019767105579376,-0.11052155494689941,0.10707270354032516,1.0361002683639526
169,109384,109383,0.030734512954950333,-0.011972170323133469,1.048407793045044,-2.000990629196167,0.7471500635147095,-2.517590284347534,1.9977062940597534,3.9986298084259033,0.3019244968891144,-0.16261696815490723,0.057204198092222214,1.020301103591919
170,109394,109393,-0.001193357165902853,-0.038939621299505234,1.0019073486328125,-1.764349341392517,-2.3660805225372314,-3.0268959999084473,1.9978598356246948,3.9979662895202637,0.303620308637619,-0.07632437348365784,0.012204647064208984,0.988908588886261
171,109404,109403,0.007688678335398436,0.05953414738178253,0.9879310131072998,-1.290541410446167,-3.515888214111328,-2.649953842163086,1.9978748559951782,3.9984869956970215,0.30377355217933655,0.05557244271039963,-0.024590300396084785,0.9700973629951477
172,109414,109413,0.02216196246445179,0.007797327358275652,0.9965770244598389,0.12216507643461227,-4.427656650543213,-2.213242530822754,1.9992461204528809,3.9960851669311523,0.30370551347732544,-0.10535803437232971,0.026014739647507668,0.9079256057739258
173,109424,109423,0.012605726718902588,-0.16633860766887665,1.0206730365753174,0.7890139818191528,-2.2497658729553223,-1.748592734336853,1.9997891187667847,3.9961323738098145,0.3038240373134613,-0.010066390968859196,0.014135465957224369,0.8854492902755737
174,109434,109433,-0.006846753414720297,-0.06423018127679825,1.0351324081420898,0.7414973974227905,0.16955573856830597,-1.0096807479858398,2.000366449356079,3.996090888977051,0.305345356464386,0.04957601800560951,0.017378883436322212,0.8670654296875
175,109444,109443,0.02448720484972,-0.06057054549455643,0.9920373558998108,0.30129632353782654,-0.43756261467933655,-0.6007736921310425,2.002122402191162,3.9955132007598877,0.3054734766483307,-0.08448880910873413,0.02307036705315113,0.8454107642173767
176,109454,109453,0.005326565820723772,-0.02098451927304268,1.0243377685546875,0.00707569345831871,3.388129949569702,-0.41077283024787903,2.002281904220581,3.996203899383545,0.30579546093940735,0.012050819583237171,0.023373544216156006,0.8473221063613892
177,109464,109463,-0.013906975276768208,0.010649973526597023,1.0027872323989868,-1.2056655883789062,-1.0344115495681763,-0.38802650570869446,2.002725601196289,3.9965875148773193,0.30762454867362976,-0.08375918865203857,0.013897751457989216,0.8655135631561279
178,109474,109473,-0.05403120070695877,-0.011332521215081215,0.977902352809906,-2.991596221923828,-1.5829368829727173,-0.5400652289390564,2.0030159950256348,3.9966561794281006,0.3080518841743469,0.019602028653025627,0.060511570423841476,0.8580041527748108
179,109484,109483,-0.04649215564131737,0.02676115743815899,0.9269729852676392,-3.727067470550537,-2.0041332244873047,-1.5974853038787842,2.004973888397217,3.997615337371826,0.308312326669693,-0.09284508228302002,-0.0010575918713584542,0.8724737763404846
180,109494,109493,-0.0554518885910511,0.052392199635505676,1.0219088792800903,-3.519606828689575,-3.5867936611175537,-1.4269077777862549,2.005434989929199,3.9975833892822266,0.3064725697040558,-0.02770411968231201,-0.07225741446018219,0.8551936745643616
181,109504,109503,0.02338690310716629,0.05653110519051552,0.9644901156425476,-3.247046947479248,-4.289948463439941,-1.3396340608596802,2.005631685256958,3.996500015258789,0.3067420423030853,0.13795961439609528,0.014451070688664913,0.8335039019584656
182,109514,109513,-0.01432157214730978,0.09599281847476959,0.9869092702865601,-3.6413841247558594,-4.688278675079346,-0.7400369644165039,2.0067203044891357,3.9962265491485596,0.30687713623046875,0.1515798270702362,-0.05823354423046112,0.8088237047195435
183,109524,109523,0.001834988477639854,0.025085238739848137,1.0251766443252563,-2.885990619659424,-4.385135650634766,-0.6480485200881958,2.0092580318450928,3.9967026710510254,0.30689024925231934,0.018074724823236465,-0.1304004192352295,0.8100651502609253
184,109534,109533,0.0034924130886793137,0.009102610871195793,1.019799828529358,-0.8991370797157288,-1.588848352432251,-1.268936038017273,2.010525703430176,3.995422601699829,0.30666473507881165,0.04090888798236847,-0.11092358827590942,0.7875460982322693
185,109544,109543,-0.05459006130695343,-0.01140233501791954,1.006760835647583,0.6608791351318359,-2.2618846893310547,-1.4502309560775757,2.0111048221588135,3.9957804679870605,0.30681830644607544,0.10072934627532959,-0.14423319697380066,0.7698970437049866
186,109554,109553,-0.02119784615933895,-0.02188430353999138,0.9808850288391113,-0.37183985114097595,-1.2990269660949707,-1.2370107173919678,2.011383533477783,3.995976448059082,0.3069911599159241,0.16133634746074677,-0.15319989621639252,0.7748910188674927
187,109564,109563,-0.00835755467414856,0.05108701437711716,1.0075044631958008,-1.9733798503875732,-2.75915789604187,-1.5819849967956543,2.012591600418091,3.9954638481140137,0.30877697467803955,0.12916891276836395,-0.17131571471691132,0.7503572106361389
188,109574,109573,0.02498961053788662,0.022202100604772568,0.976595401763916,-3.462390661239624,-5.95983362197876,-1.1557331085205078,2.0134940147399902,3.9955315589904785,0.30900290608406067,0.13396577537059784,-0.2132425159215927,0.738972544670105
189,109584,109583,0.03018084727227688,-0.12671825289726257,1.0190415382385254,-4.766711711883545,-6.956254005432129,-1.0047764778137207,2.0134189128875732,3.996020793914795,0.30935850739479065,0.33772897720336914,-0.28056368231773376,0.7325869202613831
190,109594,109593,0.015427621081471443,-0.12610264122486115,0.9769575595855713,-2.8271889686584473,-8.313813209533691,-1.7953274250030518,2.014359474182129,3.9956557750701904,0.3103838562965393,0.39599353075027466,-0.2812924385070801,0.7198957800865173
191,109604,109603,-0.008311311714351177,0.15637432038784027,1.0119669437408447,-0.31766247749328613,-3.9630095958709717,-2.0034019947052,2.015530586242676,3.9955344200134277,0.310601145029068,0.3935989737510681,-0.33364829421043396,0.7077078819274902
192,109614,109613,-0.01766584999859333,0.10872191190719604,0.9828969836235046,2.6863303184509277,-0.9332244992256165,-2.081594944000244,2.015756845474243,3.9955286979675293,0.31088608503341675,0.49021920561790466,-0.3395034074783325,0.6904858350753784
193,109624,109623,0.032497502863407135,0.03917517140507698,0.9499381184577942,5.769969463348389,4.847212791442871,-2.9575788974761963,2.0159802436828613,3.994811534881592,0.31121164560317993,0.5923978686332703,-0.22221581637859344,0.6588764786720276
194,109634,109633,-0.011987469159066677,0.035558898001909256,1.0089590549468994,7.7683939933776855,2.091327667236328,-2.4833576679229736,2.017392158508301,3.9948787689208984,0.3120114803314209,0.4587070941925049,-0.14514021575450897,0.6457787156105042
195,109644,109643,-0.013130775652825832,-0.05492885783314705,0.9820157289505005,3.7167460918426514,5.4494404792785645,-2.338165283203125,2.0175671577453613,3.995037794113159,0.3123084604740143,0.4911330044269562,-0.11922748386859894,0.622449517250061
196,109654,109653,-0.056790612637996674,-0.03755347058176994,1.0065675973892212,-2.2338526248931885,10.564045906066895,-2.94757080078125,2.019468307495117,3.9946162700653076,0.31249701976776123,0.32559844851493835,-0.0668511837720871,0.5970907211303711
197,109664,109663,-0.09977304935455322,-0.021866116672754288,0.9888142943382263,-9.23343276977539,13.156579971313477,-2.756704092025757,2.0200674533843994,3.993595838546753,0.31353524327278137,0.2655124068260193,-0.03441835939884186,0.5409219264984131
198,109674,109673,-0.15239694714546204,0.012037175707519054,1.0090872049331665,-12.116361618041992,11.7389497756958,-2.6993789672851562,2.0210375785827637,3.994243860244751,0.3138718903064728,0.1739526391029358,-0.18962225317955017,0.5319753885269165
199,109684,109683,-0.05662241205573082,0.03343649208545685,1.0059053897857666,-11.167160034179688,10.427310943603516,-2.4099197387695312,2.021360158920288,3.994316339492798,0.3141551613807678,0.061410292983055115,-0.322750449180603,0.5016610026359558
200,109694,109693,-0.05416570231318474,-0.021173417568206787,0.9893073439598083,-1.7412174940109253,-1.569374918937683,-1.4942728281021118,2.0216121673583984,3.994079113006592,0.3146667778491974,-0.014846854843199253,-0.4305524528026581,0.47450870275497437
201,109704,109703,-0.03334810584783554,-0.02243209257721901,0.9954020977020264,7.009345531463623,-11.085380554199219,1.1459723711013794,2.021601438522339,3.9932916164398193,0.3150901198387146,0.07502232491970062,-0.3987165093421936,0.4440796375274658
202,109714,109713,0.056691087782382965,-0.04010545462369919,0.9819739460945129,11.795120239257812,-15.920646667480469,3.6195154190063477,2.0207130908966064,3.9926934242248535,0.31556737422943115,0.3188192844390869,-0.3011436462402344,0.43640851974487305
203,109724,109723,-0.011455230414867401,-0.03340620547533035,0.9648736119270325,12.376241683959961,-14.416419982910156,3.9267497062683105,2.023027181625366,3.992898941040039,0.31558844447135925,0.3309406042098999,-0.20118948817253113,0.48533955216407776
204,109734,109733,-0.05931758135557175,0.013833906501531601,0.9649423360824585,6.570613861083984,-5.635044574737549,4.856789588928223,2.0234832763671875,3.991950035095215,0.3158533275127411,0.4829016625881195,-0.021664798259735107,0.5109156370162964
205,109744,109743,-0.04378436133265495,-0.06768330931663513,0.9790791273117065,1.3985296487808228,7.421812534332275,4.920675754547119,2.023387908935547,3.9931201934814453,0.3161856234073639,0.638134777545929,-0.08096480369567871,0.5592393279075623
206,109754,109753,0.002495885593816638,-0.14260677993297577,0.9419509768486023,-3.7774806022644043,18.214096069335938,4.369631290435791,2.024087429046631,3.9927520751953125,0.31639614701271057,0.5729025602340698,-0.06299994885921478,0.605272650718689
207,109764,109763,-0.005508571397513151,-0.07524088025093079,0.9554985165596008,-5.382189750671387,22.723663330078125,4.7693257331848145,2.0250091552734375,3.9926724433898926,0.31743675470352173,0.3392969071865082,-0.12275524437427521,0.6449347138404846
208,109774,109773,-0.05329495295882225,-0.022656438872218132,0.9260162711143494,-5.5417799949646,20.260934829711914,4.604709625244141,2.026420831680298,3.993081569671631,0.31757599115371704,0.031220806762576103,-0.14226222038269043,0.7108418941497803
209,109784,109783,0.03306787461042404,-0.07818885147571564,0.9832131266593933,-4.4642157554626465,15.58183765411377,4.458834171295166,2.0279622077941895,3.9931936264038086,0.31767022609710693,-0.23004578053951263,-0.24034881591796875,0.7622593641281128
210,109794,109793,0.06582316011190414,-0.10028638690710068,0.9828246831893921,0.27613818645477295,5.841650485992432,3.8359925746917725,2.0273823738098145,3.9928882122039795,0.31798696517944336,-0.2583674192428589,-0.2373359650373459,0.7974036335945129
211,109804,109803,0.022466273978352547,-0.01864566095173359,0.9807195663452148,4.95232629776001,-2.534442663192749,4.7502360343933105,2.0283377170562744,3.992865800857544,0.31806033849716187,-0.382879376411438,-0.2431866079568863,0.8432986736297607
212,109814,109813,0.00743493065237999,0.04026063531637192,0.9819303750991821,10.706976890563965,-10.886085510253906,6.954859256744385,2.027740955352783,3.992464065551758,0.31823521852493286,-0.2551670968532562,-0.15455111861228943,0.8767806887626648
213,109824,109823,0.016836153343319893,-0.01880287565290928,0.9461144208908081,15.062463760375977,-15.921280860900879,8.654624938964844,2.027433395385742,3.9911582469940186,0.31889286637306213,-0.04392789304256439,0.030626092106103897,0.9472119808197021
214,109834,109833,-0.06996523588895798,-0.05063851177692413,1.0575298070907593,13.309438705444336,-10.996050834655762,10.170961380004883,2.0272932052612305,3.99127459526062,0.31898319721221924,0.15303316712379456,0.04934731870889664,1.0108412504196167
215,109844,109843,-0.05650936812162399,-0.09790775924921036,1.0228960514068604,9.628403663635254,-8.566169738769531,10.876534461975098,2.0288193225860596,3.991600513458252,0.31903761625289917,0.14912614226341248,0.18937449157238007,1.1134644746780396
216,109854,109853,-0.02699146792292595,-0.005509056616574526,0.9912277460098267,6.124721050262451,-0.8550323247909546,10.73195743560791,2.0285794734954834,3.990616798400879,0.31912657618522644,0.3368321657180786,0.3421970009803772,1.2016469240188599
217,109864,109863,0.09874361008405685,0.15345127880573273,0.9832121133804321,2.795480728149414,4.012340068817139,10.15315055847168,2.029764175415039,3.991854667663574,0.3174680471420288,0.25313737988471985,0.2761627435684204,1.3128597736358643
218,109874,109873,0.033613596111536026,0.00613267719745636,0.9943367838859558,-3.388260841369629,7.205345153808594,8.202543258666992,2.030625104904175,3.9915361404418945,0.31744053959846497,0.1982763707637787,0.3148499131202698,1.4030368328094482
219,109884,109883,0.03324305638670921,-0.1418675035238266,0.9924250841140747,-5.281393051147461,7.583291530609131,6.371356964111328,2.0311226844787598,3.991318464279175,0.3174079358577728,0.1397992968559265,0.26113298535346985,1.471152424812317
220,109894,109893,-0.052701208740472794,-0.08056388795375824,0.9919272661209106,-6.896828651428223,7.463571071624756,5.356354713439941,2.0315215587615967,3.9911458492279053,0.3179575502872467,0.06355132162570953,0.251677930355072,1.5382511615753174
221,109904,109903,-0.11569440364837646,0.07024946063756943,1.0202840566635132,-8.627677917480469,5.228146076202393,5.582200527191162,2.031343698501587,3.9914772510528564,0.3179837465286255,0.06640831381082535,0.13285383582115173,1.5890216827392578
222,109914,109913,-0.020282842218875885,-0.02579623833298683,0.9791560173034668,-10.81964111328125,1.1666640043258667,5.170703411102295,2.031517744064331,3.9926211833953857,0.3179962635040283,0.03126096725463867,-0.020313551649451256,1.649352788925171
223,109924,109923,0.05205947905778885,-0.028791135177016258,1.0044550895690918,-7.241963863372803,-0.8435776829719543,5.179408550262451,2.0319888591766357,3.9918019771575928,0.3187294602394104,0.05448479950428009,-0.05061179772019386,1.7239900827407837
224,109934,109933,-0.006750001106411219,0.05202212557196617,1.0221929550170898,-2.8614556789398193,-1.1182974576950073,4.795210838317871,2.031351089477539,3.9907777309417725,0.3187811076641083,0.10877672582864761,-0.09845837950706482,1.7591928243637085
225,109944,109943,-0.026194659993052483,-0.004324246663600206,0.9693784117698669,2.579385757446289,2.672534465789795,5.76882266998291,2.0311431884765625,3.990919828414917,0.3188623785972595,0.15349754691123962,-0.12377212941646576,1.8125941753387451
226,109954,109953,-0.0017111465567722917,-0.06104709953069687,0.9680578708648682,3.8803982734680176,5.232260704040527,7.375793933868408,2.030308961868286,3.991292715072632,0.31889209151268005,0.1289408802986145,-0.0676068365573883,1.8971003293991089
227,109964,109963,0.15707631409168243,-0.029844295233488083,0.9681375026702881,0.1332549899816513,15.172830581665039,7.76048469543457,2.030694007873535,3.9912641048431396,0.31644731760025024,0.028346046805381775,-0.022942882031202316,1.9609265327453613
228,109974,109973,0.11721716821193695,-0.11918997019529343,0.9537121653556824,-3.550389289855957,19.88355255126953,7.182017803192139,2.032149076461792,3.99108624458313,0.31628790497779846,-0.1984243541955948,-0.03429923579096794,2.0414910316467285
229,109984,109983,0.020229265093803406,-0.07979243248701096,0.9562780261039734,-6.084817886352539,21.673629760742188,7.201789855957031,2.032933235168457,3.9913039207458496,0.3160995543003082,-0.419988751411438,-0.11064676940441132,2.105386734008789
230,109994,109993,-0.01807689107954502,-0.016546105965971947,0.981158971786499,-5.91463565826416,20.07513999938965,7.0643310546875,2.0336334705352783,3.9920976161956787,0.3137078285217285,-0.6559582948684692,-0.20640160143375397,2.189073085784912
231,110004,110003,-0.05059598386287689,0.06092824786901474,0.9682736992835999,-4.798011779785156,11.381941795349121,7.1493353843688965,2.0337231159210205,3.9912147521972656,0.3134056627750397,-0.7677719593048096,-0.22053425014019012,2.242619276046753
232,110014,110013,-0.08721353113651276,0.10078146308660507,1.017385721206665,-3.4930505752563477,3.6452107429504395,6.213086128234863,2.033729314804077,3.989893913269043,0.313057005405426,-0.8357576727867126,-0.14794567227363586,2.314450740814209
233,110024,110023,-0.0690605491399765,0.14487841725349426,1.063011884689331,0.3707907199859619,-5.069331645965576,5.3485894203186035,2.033020496368408,3.989960193634033,0.3117219805717468,-0.8471620678901672,-0.21205756068229675,2.3794682025909424
234,110034,110033,-0.01345100812613964,0.021907057613134384,1.0211626291275024,3.336634874343872,-9.160069465637207,4.077335834503174,2.0325472354888916,3.989354133605957,0.3113621771335602,-0.7093411087989807,-0.19759956002235413,2.415250062942505
235,110044,110043,-0.03943663462996483,0.04867467284202576,1.0187910795211792,4.051272392272949,-9.482925415039062,2.6904327869415283,2.0327072143554688,3.9889285564422607,0.3109821677207947,-0.5975328683853149,-0.14442959427833557,2.4487662315368652
236,110054,110053,-0.09118904173374176,0.03764085844159126,1.043933629989624,3.1113483905792236,-6.6861042976379395,0.5569092035293579,2.0329439640045166,3.9882636070251465,0.31062087416648865,-0.49251967668533325,-0.09136540442705154,2.473512887954712
237,110064,110063,-0.08633822947740555,0.006495388690382242,1.0495597124099731,-1.050641655921936,-1.469268560409546,-0.07907044887542725,2.033432960510254,3.9892261028289795,0.3061286211013794,-0.4517604410648346,-0.14505715668201447,2.4739136695861816
238,110074,110073,0.022301770746707916,-0.05235503613948822,1.0159918069839478,-5.042995452880859,2.4614734649658203,-1.0173122882843018,2.0334813594818115,3.9887025356292725,0.3056133985519409,-0.4114711582660675,-0.1795312762260437,2.4494199752807617
239,110084,110083,0.016835400834679604,-0.056232500821352005,1.0459247827529907,-6.65057373046875,4.9055023193359375,-1.5634324550628662,2.033700466156006,3.9878504276275635,0.30512768030166626,-0.44228971004486084,-0.20314937829971313,2.42327618598938
240,110094,110093,-0.0045903404243290424,-0.05649174004793167,1.0397216081619263,-5.989189624786377,7.930975914001465,-2.2529783248901367,2.0356247425079346,3.9886281490325928,0.3042351007461548,-0.6630174517631531,-0.3269347846508026,2.41458797454834
241,110104,110103,-0.028009654954075813,0.00132820347789675,1.0506771802902222,-0.9378852844238281,5.8359222412109375,-2.1389191150665283,2.0351948738098145,3.987759590148926,0.30385512113571167,-0.6587094664573669,-0.32937467098236084,2.3792307376861572
242,110114,110113,-0.012181396596133709,0.21144196391105652,1.0499565601348877,3.4673731327056885,8.080036163330078,-2.2808003425598145,2.0353972911834717,3.987687349319458,0.3034781217575073,-0.714825451374054,-0.32747170329093933,2.3621647357940674
243,110124,110123,0.0011691238032653928,0.03933276981115341,1.0343348979949951,4.097943305969238,5.83990478515625,-3.2894649505615234,2.035940408706665,3.987196683883667,0.3043338358402252,-0.788687527179718,-0.26389414072036743,2.338480234146118
244,110134,110133,0.02789689041674137,-0.1402808278799057,1.0502150058746338,1.9913197755813599,8.362988471984863,-4.982097148895264,2.0354902744293213,3.9865987300872803,0.30415236949920654,-0.7734561562538147,-0.21122756600379944,2.287930488586426
245,110144,110143,0.093671515583992,-0.3221735954284668,1.0712897777557373,1.4923094511032104,4.390371322631836,-6.014078140258789,2.0360867977142334,3.986478090286255,0.30396443605422974,-0.8832789659500122,-0.18914346396923065,2.2382607460021973
246,110154,110153,0.03395304083824158,-0.15015125274658203,1.0408812761306763,-0.0542464554309845,2.945725202560425,-7.006723403930664,2.036646842956543,3.9861319065093994,0.3059801757335663,-0.9175020456314087,-0.17096301913261414,2.180072546005249
247,110164,110163,-0.053628187626600266,-0.022200480103492737,1.0650519132614136,-1.0031338930130005,-3.574375867843628,-7.9403276443481445,2.037081241607666,3.9869210720062256,0.306073933839798,-0.9321490526199341,-0.1859661042690277,2.118143081665039
248,110174,110173,0.024897737428545952,-0.09213479608297348,1.054299235343933,-3.8489978313446045,2.683997869491577,-10.053032875061035,2.0383098125457764,3.987269878387451,0.3062000274658203,-0.9615312218666077,-0.2283465713262558,2.0430171489715576
249,110184,110183,0.032938309013843536,-0.17789258062839508,1.080739140510559,-5.040500164031982,-1.5214282274246216,-12.537806510925293,2.0378410816192627,3.987595796585083,0.3064630329608917,-0.9346751570701599,-0.29904603958129883,1.9177221059799194
250,110194,110193,-0.012036016210913658,-0.040125101804733276,1.0630707740783691,-5.04224967956543,-1.93032968044281,-14.826870918273926,2.0384156703948975,3.988063335418701,0.3082844018936157,-0.9467692971229553,-0.3842548131942749,1.8215413093566895
251,110204,110203,0.00032972617191262543,-0.03826221451163292,1.0272748470306396,-4.686408042907715,-0.589405357837677,-16.379791259765625,2.0374231338500977,3.9887077808380127,0.3087075650691986,-0.8734390735626221,-0.46674659848213196,1.6722705364227295
252,110214,110213,-0.002689454471692443,0.06620875000953674,1.0083469152450562,-2.0231432914733887,3.2455854415893555,-18.215158462524414,2.0388379096984863,3.9874536991119385,0.30913498997688293,-0.979012131690979,-0.3785914480686188,1.5205711126327515
253,110224,110223,-0.003019587369635701,0.010612284764647484,0.9903677105903625,0.8528321981430054,3.5496997833251953,-19.833341598510742,2.038308620452881,3.98715877532959,0.3088945150375366,-0.8958690166473389,-0.40667903423309326,1.3161541223526
254,110234,110233,0.049369171261787415,-0.025056427344679832,0.9512895941734314,1.6225192546844482,1.1519695520401,-19.55646514892578,2.039172410964966,3.987034797668457,0.30927222967147827,-1.0017554759979248,-0.40033337473869324,1.1226365566253662
255,110244,110243,-0.02696770429611206,-0.021585170179605484,1.0256576538085938,2.2155556678771973,1.2019381523132324,-20.022531509399414,2.0393669605255127,3.987616539001465,0.3096916675567627,-0.9528971314430237,-0.4484597444534302,0.9133249521255493
256,110254,110253,-0.02878984436392784,0.0014648779761046171,1.026218056678772,2.8330533504486084,3.021108865737915,-20.484695434570312,2.0396716594696045,3.98724102973938,0.3111089766025543,-0.9241280555725098,-0.4019150137901306,0.7053031325340271
257,110264,110263,-0.017394715920090675,-0.0804494172334671,0.9912056922912598,4.907131195068359,6.047590732574463,-21.251550674438477,2.03997802734375,3.987271547317505,0.3115958571434021,-0.9343008995056152,-0.3423251807689667,0.512719988822937
258,110274,110273,0.023367375135421753,-0.044283781200647354,0.9672142267227173,7.491783618927002,7.022753715515137,-20.756845474243164,2.0406219959259033,3.986518144607544,0.3120529055595398,-0.9888389706611633,-0.24941986799240112,0.29390379786491394
259,110284,110283,-0.020457953214645386,0.04479314014315605,0.955530047416687,10.043259620666504,8.677982330322266,-19.749736785888672,2.040883779525757,3.9863486289978027,0.3124854564666748,-1.0527044534683228,-0.12150517851114273,0.10683329403400421
260,110294,110293,-0.03925542160868645,0.03066141903400421,0.9923273921012878,10.846517562866211,9.645591735839844,-19.05820655822754,2.0414609909057617,3.985563039779663,0.3162519037723541,-1.1503732204437256,0.04506881535053253,-0.08519121259450912
261,110304,110303,0.038079261779785156,-0.02650301717221737,0.9858483076095581,7.960625648498535,8.463425636291504,-17.44029426574707,2.0418217182159424,3.984008312225342,0.31677693128585815,-1.254675269126892,0.19738517701625824,-0.29640665650367737
262,110314,110313,-0.029026834294199944,-0.006825101561844349,1.0093947649002075,2.8128128051757812,4.16624116897583,-16.32390594482422,2.0423290729522705,3.9843239784240723,0.317364364862442,-1.3237043619155884,0.29180169105529785,-0.44211187958717346
263,110324,110323,-0.019670728594064713,0.07840743660926819,0.9940023422241211,-2.48577880859375,0.0542881116271019,-15.249277114868164,2.0435290336608887,3.9847800731658936,0.31710341572761536,-1.3978216648101807,0.21984156966209412,-0.6172714233398438
264,110334,110333,-0.016787700355052948,0.08911793678998947,0.9720089435577393,-6.0123443603515625,-3.866219997406006,-13.929628372192383,2.0441501140594482,3.9862303733825684,0.317659854888916,-1.4023301601409912,0.06872772425413132,-0.7753598093986511
265,110344,110343,-0.008263763040304184,-0.013845804147422314,0.9447364807128906,-5.699513912200928,-4.4431915283203125,-12.73394775390625,2.0463154315948486,3.9855775833129883,0.3180081844329834,-1.49379563331604,0.0371822789311409,-0.9215173125267029
266,110354,110353,0.0200998242944479,-0.03441441431641579,1.001828670501709,-3.6000983715057373,-5.126921653747559,-11.856995582580566,2.0466930866241455,3.985525131225586,0.3182789385318756,-1.4163856506347656,-0.061879962682724,-1.0720093250274658
267,110364,110363,0.02812417782843113,-0.05862145498394966,0.9802570939064026,-0.4684302806854248,-6.177433013916016,-10.48255443572998,2.046463966369629,3.9858219623565674,0.31880149245262146,-1.257642388343811,-0.11424804478883743,-1.185184121131897
268,110374,110373,0.05146094411611557,-0.1617826223373413,0.9524478316307068,3.405435085296631,-2.788984537124634,-9.722522735595703,2.0480921268463135,3.9852144718170166,0.31924453377723694,-1.2572506666183472,-0.0281132273375988,-1.2758122682571411
269,110384,110383,-0.003670323407277465,-0.04529568552970886,0.9147363305091858,5.668597221374512,0.38658568263053894,-9.528016090393066,2.048316717147827,3.9848735332489014,0.3197746276855469,-1.2285012006759644,0.036377083510160446,-1.3688061237335205
270,110394,110393,-0.0054747858084738255,0.04566027224063873,0.9303483366966248,6.954450607299805,0.1969050168991089,-8.7117338180542,2.04876446723938,3.9840312004089355,0.3201863169670105,-1.151856541633606,0.1308019608259201,-1.4637852907180786
271,110404,110403,-0.037119060754776,-0.001110267243348062,0.9976680874824524,5.8377838134765625,-2.887986183166504,-7.5554728507995605,2.05096435546875,3.9833908081054688,0.3203628361225128,-1.299485445022583,0.23184366524219513,-1.5442297458648682
272,110414,110413,-0.02376355230808258,-0.011674240231513977,0.9923593997955322,3.0154218673706055,-2.9832465648651123,-7.6743998527526855,2.0521719455718994,3.9838955402374268,0.32053467631340027,-1.3193769454956055,0.30093148350715637,-1.6027520895004272
273,110424,110423,-0.0864618718624115,-0.10682398080825806,0.9840709567070007,0.06109856069087982,-6.262574672698975,-6.854369640350342,2.051692008972168,3.983069658279419,0.3199383616447449,-1.154600977897644,0.32329198718070984,-1.705117106437683
274,110434,110433,-0.06699588149785995,-0.049447108060121536,0.9946285486221313,-4.609488010406494,-4.277297496795654,-6.353809833526611,2.0544683933258057,3.983035087585449,0.31993624567985535,-1.2747809886932373,0.282426655292511,-1.78944730758667
275,110444,110443,-0.01574382558465004,-0.18830589950084686,0.9502733945846558,-7.881158351898193,-4.277289867401123,-6.034251689910889,2.054457187652588,3.983717203140259,0.3202391266822815,-1.0911380052566528,0.17064262926578522,-1.8482242822647095
276,110454,110453,0.022178467363119125,-0.27319738268852234,0.9296783208847046,-9.599621772766113,-2.7010228633880615,-4.884427070617676,2.0545175075531006,3.9843485355377197,0.31538310647010803,-1.001119613647461,0.007457092870026827,-1.9190013408660889
277,110464,110463,0.015337688848376274,-0.28785961866378784,0.9489452242851257,-8.483080863952637,1.0251024961471558,-3.916059970855713,2.0567800998687744,3.9844553470611572,0.3149750232696533,-1.1182054281234741,-0.0732107162475586,-1.952761173248291
278,110474,110473,0.06640297174453735,-0.16371341049671173,0.9483955502510071,-5.236352443695068,3.324968099594116,-3.1323583126068115,2.056832790374756,3.984912157058716,0.3147273063659668,-1.0229756832122803,-0.21108679473400116,-1.9961483478546143
279,110484,110483,0.0040618800558149815,-0.09818757325410843,0.9544782042503357,-3.1932058334350586,1.9531004428863525,-2.2648558616638184,2.0577495098114014,3.984015703201294,0.3159729242324829,-1.0372157096862793,-0.13155268132686615,-1.9957072734832764
280,110494,110493,0.015411038883030415,0.011682012118399143,0.9807495474815369,-0.23481816053390503,1.5646134614944458,-1.7397621870040894,2.0596184730529785,3.9839470386505127,0.315560519695282,-1.1281704902648926,-0.18161170184612274,-2.032864809036255
281,110504,110503,-0.009240183047950268,-0.046241700649261475,0.9595736861228943,2.208489418029785,-1.2736599445343018,-1.5583391189575195,2.0593626499176025,3.98232364654541,0.31528493762016296,-1.0244395732879639,-0.1087217703461647,-2.074495792388916
282,110514,110513,0.04215337708592415,-0.04351981729269028,0.9642956256866455,1.9407342672348022,-5.021899223327637,-0.6295711994171143,2.062544345855713,3.982250690460205,0.31467851996421814,-1.1874065399169922,-0.0818108394742012,-2.0813186168670654
283,110524,110523,-0.0016649288590997458,-0.09962029755115509,0.9984146356582642,-1.7181036472320557,-7.1926493644714355,-0.018590660765767097,2.0643162727355957,3.981834650039673,0.31614696979522705,-1.1274281740188599,-0.08035207539796829,-2.09100604057312
284,110534,110533,-0.008673345670104027,-0.008942987769842148,1.0178006887435913,-4.4896650314331055,-12.619498252868652,0.9788526892662048,2.064495801925659,3.9815258979797363,0.3159470856189728,-0.9277040958404541,-0.05972108989953995,-2.0787196159362793
285,110544,110543,0.010102365165948868,0.07144847512245178,0.9858158826828003,-6.652132511138916,-14.441628456115723,0.9905046820640564,2.066591262817383,3.9813289642333984,0.3154892325401306,-0.9022151231765747,-0.08613895624876022,-2.058767080307007
286,110554,110553,-0.00557240005582571,-0.013065895065665245,0.9874643683433533,-8.808573722839355,-16.021270751953125,2.0775461196899414,2.0669069290161133,3.981771945953369,0.3143727481365204,-0.6706094741821289,-0.2390013188123703,-2.0548598766326904
287,110564,110563,-0.013221113942563534,0.07615404576063156,1.0219190120697021,-6.340484142303467,-13.947422981262207,2.851851224899292,2.0682404041290283,3.9815878868103027,0.3139840066432953,-0.5238878726959229,-0.30586889386177063,-2.0250437259674072
288,110574,110573,0.03131736069917679,0.020095601677894592,1.0147525072097778,-2.372898817062378,-7.3645429611206055,4.053401470184326,2.0701546669006348,3.9802088737487793,0.3135177195072174,-0.5101792216300964,-0.25018879771232605,-1.973462462425232
289,110584,110583,0.05341696739196777,0.016837237402796745,1.0273218154907227,-0.4378470480442047,-4.428921699523926,3.644097089767456,2.0710856914520264,3.9808084964752197,0.31070390343666077,-0.4215540289878845,-0.3129764497280121,-1.9327692985534668
290,110594,110593,0.022743461653590202,0.04881606251001358,1.0031554698944092,0.9689750075340271,-1.2894340753555298,3.7241926193237305,2.0727548599243164,3.9819495677948,0.31026309728622437,-0.3863992691040039,-0.33690211176872253,-1.8442764282226562
291,110604,110603,0.0023667500354349613,-0.03960106894373894,0.9927001595497131,1.4215798377990723,1.1821558475494385,2.5079288482666016,2.075594902038574,3.981060028076172,0.3096158802509308,-0.5456188321113586,-0.2538641393184662,-1.816579818725586
292,110614,110613,0.018532706424593925,-0.052108436822891235,1.005730390548706,2.1286470890045166,-1.4624507427215576,3.063366174697876,2.0765457153320312,3.9809603691101074,0.30926644802093506,-0.4707157015800476,-0.24816197156906128,-1.7672040462493896
293,110624,110623,0.011931056156754494,-0.1562395989894867,1.0300787687301636,1.9209163188934326,-4.844325065612793,3.0038790702819824,2.0786051750183105,3.9802744388580322,0.309679239988327,-0.5210724472999573,-0.23177853226661682,-1.7606077194213867
294,110634,110633,0.04659825935959816,-0.19541572034358978,1.0111665725708008,0.6707615852355957,-8.199145317077637,3.4018118381500244,2.0789217948913574,3.9805679321289062,0.3094516694545746,-0.34410208463668823,-0.22679468989372253,-1.7105567455291748
295,110644,110643,-0.004938735160976648,-0.016379432752728462,1.0579893589019775,-0.8985849618911743,-10.839409828186035,3.66326642036438,2.079185962677002,3.9815948009490967,0.30915626883506775,-0.1946781575679779,-0.24404795467853546,-1.6253902912139893
296,110654,110653,0.012106753885746002,-0.06489793211221695,1.0412143468856812,-2.900810718536377,-11.976524353027344,3.574216842651367,2.0822548866271973,3.9810428619384766,0.3103766143321991,-0.25063085556030273,-0.20887556672096252,-1.5920535326004028
297,110664,110663,-0.04966965690255165,0.047094929963350296,1.0513386726379395,-4.1472907066345215,-9.924932479858398,3.6932311058044434,2.082402229309082,3.9814023971557617,0.310418039560318,0.010871488600969315,-0.28721287846565247,-1.5328021049499512
298,110674,110673,0.01025709044188261,0.03932345286011696,1.0146260261535645,-3.7125723361968994,-12.078920364379883,4.435180187225342,2.0836384296417236,3.9813287258148193,0.31028422713279724,0.10533829033374786,-0.2954919934272766,-1.47218656539917
299,110684,110683,-0.005341296084225178,0.011193493381142616,1.0501465797424316,-3.362605333328247,-8.25021743774414,3.5239198207855225,2.085919141769409,3.981374740600586,0.3093234598636627,0.13955353200435638,-0.3814990520477295,-1.4311238527297974
300,110694,110693,-0.027676094323396683,0.11491570621728897,1.0211031436920166,-2.2466769218444824,-5.028148174285889,4.3120293617248535,2.0879597663879395,3.9813787937164307,0.3091839551925659,0.18972136080265045,-0.44776731729507446,-1.3981701135635376
301,110704,110703,0.042949847877025604,-0.03246447071433067,1.003178358078003,-0.7790898680686951,-4.466675281524658,4.853044033050537,2.089905023574829,3.9818129539489746,0.30902212858200073,0.206996887922287,-0.4932383596897125,-1.3320955038070679
302,110714,110713,-0.011314739473164082,0.004841516725718975,1.0707255601882935,1.3159862756729126,-4.460277080535889,5.56397008895874,2.090442657470703,3.9808642864227295,0.31222984194755554,0.20536640286445618,-0.41479650139808655,-1.2935690879821777
303,110724,110723,0.009068422019481659,0.01117085013538599,1.0012319087982178,3.8652312755584717,-4.646711826324463,5.292905330657959,2.093263626098633,3.9801580905914307,0.31255701184272766,0.2809569537639618,-0.3833642899990082,-1.2558656930923462
304,110734,110733,-0.018573343753814697,0.06268613785505295,1.047572135925293,5.3904337882995605,-7.649287700653076,5.863724231719971,2.0928783416748047,3.980342149734497,0.3126140534877777,0.4024650454521179,-0.3258594274520874,-1.1834440231323242
305,110744,110743,0.031212294474244118,-0.006632923148572445,1.0003666877746582,4.717644691467285,-7.887269020080566,4.7994585037231445,2.096015453338623,3.9797496795654297,0.31302356719970703,0.4799287021160126,-0.25340864062309265,-1.1265192031860352
306,110754,110753,-0.0073221721686422825,0.03316359221935272,1.0045493841171265,4.752496242523193,-8.388812065124512,5.01669454574585,2.0955705642700195,3.9805657863616943,0.3169151544570923,0.6313878297805786,-0.2692454159259796,-1.063220500946045
307,110764,110763,-0.019751466810703278,-0.07318710535764694,1.0393742322921753,5.511875152587891,-9.412018775939941,4.904552936553955,2.0966708660125732,3.980004072189331,0.31804952025413513,0.9155457019805908,-0.1949509233236313,-1.0269957780838013
308,110774,110773,0.011663712561130524,-0.07173166424036026,1.0282758474349976,4.727775573730469,0.8013128638267517,4.457382678985596,2.0992493629455566,3.9793283939361572,0.317920058965683,0.6469417214393616,-0.1209789291024208,-0.96866774559021
309,110784,110783,-0.013301152735948563,0.03857703506946564,1.0353519916534424,4.218318462371826,4.646087169647217,4.276212692260742,2.099121570587158,3.980142116546631,0.3204127550125122,0.7454075217247009,-0.0655214786529541,-0.8951743245124817
310,110794,110793,0.06579551100730896,-0.008475574664771557,0.9504513740539551,3.026562452316284,7.782369613647461,3.8583688735961914,2.101787805557251,3.980196237564087,0.32098880410194397,0.551485538482666,-0.09563951194286346,-0.857721745967865
311,110804,110803,0.10458312928676605,-0.027695057913661003,0.9305304884910583,2.1885645389556885,9.373123168945312,4.376487731933594,2.102956771850586,3.9809176921844482,0.32177117466926575,0.5754363536834717,-0.1591469645500183,-0.8296206593513489
312,110814,110813,0.056996725499629974,-0.07774408161640167,0.9375389218330383,3.289599895477295,2.004892110824585,3.699033260345459,2.103123903274536,3.9806082248687744,0.32136282324790955,0.5912006497383118,-0.11514006555080414,-0.7795859575271606
313,110824,110823,0.034014586359262466,-0.017674244940280914,0.9493905305862427,2.148242712020874,-1.2633086442947388,3.809260606765747,2.1056506633758545,3.9808309078216553,0.3218611180782318,0.4398369789123535,-0.06633549928665161,-0.7295840382575989
314,110834,110833,0.010301587171852589,-0.07619550079107285,0.9502255320549011,1.3132736682891846,-1.97176992893219,3.6568498611450195,2.106189250946045,3.980738401412964,0.3224301040172577,0.5131173729896545,-0.03515094518661499,-0.6834758520126343
315,110844,110843,0.01826888881623745,-0.08932533860206604,0.9244498014450073,-0.03614332154393196,-0.7677762508392334,3.220102071762085,2.107619285583496,3.9809069633483887,0.32286757230758667,0.5270823240280151,-0.0933251827955246,-0.6599332094192505
316,110854,110853,0.034010909497737885,-0.08170667290687561,0.9062338471412659,-1.193124532699585,-1.740935206413269,2.80888295173645,2.1088621616363525,3.980964183807373,0.3206506669521332,0.5385332703590393,-0.08957462012767792,-0.6163507103919983
317,110864,110863,0.025557734072208405,-0.05516018718481064,0.9133152365684509,-1.7333470582962036,-0.800607442855835,2.4245386123657227,2.1103672981262207,3.9813554286956787,0.32076704502105713,0.5486476421356201,-0.10720928758382797,-0.5421190857887268
318,110874,110873,-0.011057469062507153,-0.02596915327012539,0.9638997316360474,-1.7629632949829102,-1.3674776554107666,2.0749027729034424,2.1103439331054688,3.981975793838501,0.32099294662475586,0.6875817775726318,-0.13419035077095032,-0.5202316045761108
319,110884,110883,0.019618675112724304,-0.08822474628686905,0.985405683517456,0.030540386214852333,5.440171241760254,2.363935708999634,2.112431526184082,3.9809629917144775,0.3220181465148926,0.6389642357826233,-0.07698574662208557,-0.5147724151611328
320,110894,110893,0.06263039261102676,-0.1690625697374344,0.9692170023918152,3.5644376277923584,5.275627613067627,2.812260866165161,2.11462140083313,3.981588840484619,0.321937620639801,0.470308393239975,-0.1453210562467575,-0.4557258188724518
321,110904,110903,0.08984696120023727,-0.1648607701063156,0.9349550604820251,6.2079386711120605,4.084474086761475,3.5895376205444336,2.1147637367248535,3.9819366931915283,0.32211342453956604,0.5338929295539856,-0.07980062812566757,-0.41730839014053345
322,110914,110913,0.02778477966785431,-0.04987947270274162,0.9467471837997437,7.595676422119141,1.3321218490600586,3.5924072265625,2.114531993865967,3.981020450592041,0.32113218307495117,0.5923172831535339,0.02236228436231613,-0.4176225960254669
323,110924,110923,0.013130231760442257,-0.03474055603146553,0.9351240992546082,6.7727532386779785,-0.6998501420021057,3.9035115242004395,2.1156017780303955,3.9797909259796143,0.320934921503067,0.5319303274154663,0.14004606008529663,-0.43468576669692993
324,110934,110933,-0.03816797584295273,0.024202879518270493,0.9965919852256775,3.494941473007202,-6.631377696990967,5.129246711730957,2.117130756378174,3.9804978370666504,0.32072460651397705,0.516839861869812,0.15785570442676544,-0.3680332601070404
325,110944,110943,-0.005853172857314348,-0.04278181865811348,1.011049747467041,-2.444181203842163,-4.306174278259277,4.281099319458008,2.118300437927246,3.980674982070923,0.32050180435180664,0.5561885833740234,0.12362927198410034,-0.31367987394332886
326,110954,110953,0.013262788765132427,-0.051516443490982056,1.005600929260254,-5.896844387054443,-6.282980442047119,3.363915205001831,2.1188323497772217,3.98174786567688,0.32118821144104004,0.6734196543693542,0.09179535508155823,-0.24067245423793793
327,110964,110963,0.002491794992238283,-0.07980801165103912,1.01917564868927,-7.220033645629883,-5.18388032913208,3.7383692264556885,2.1222727298736572,3.9825000762939453,0.3208385109901428,0.4939083456993103,-0.0029938570223748684,-0.19425198435783386
328,110974,110973,-0.025067375972867012,-0.07721487432718277,1.016682505607605,-6.739141941070557,-2.3499526977539062,3.837902784347534,2.12172794342041,3.982391595840454,0.32087767124176025,0.7017632722854614,-0.039158206433057785,-0.1412176489830017
329,110984,110983,0.03240608051419258,-0.07774177938699722,0.9557960629463196,-3.9808223247528076,-1.2769770622253418,3.826900005340576,2.1220200061798096,3.9821369647979736,0.3202036917209625,0.8589933514595032,-0.06672149151563644,-0.0933602824807167
330,110994,110993,0.07552117109298706,0.04198971018195152,0.9885221719741821,-1.5254051685333252,-1.270280122756958,3.799452066421509,2.1243205070495605,3.9819490909576416,0.3199344575405121,0.7379559278488159,-0.13398583233356476,-0.07926388829946518
331,111004,111003,0.028618475422263145,0.020955530926585197,1.006949782371521,0.05493221431970596,1.0452605485916138,3.930579900741577,2.125032901763916,3.9825761318206787,0.31975868344306946,0.7852923274040222,-0.15926215052604675,0.0015254872851073742
332,111014,111013,0.061037030071020126,-0.05818074569106102,1.002440333366394,0.3731406331062317,5.488034248352051,3.7221837043762207,2.125462770462036,3.982736110687256,0.3203946352005005,0.8715053796768188,-0.15462148189544678,0.053997933864593506
333,111024,111023,0.01977577619254589,-0.04190385341644287,1.014316439628601,1.0811831951141357,3.5404882431030273,3.2360267639160156,2.1274900436401367,3.982795238494873,0.3201592266559601,0.6726047396659851,-0.14126800000667572,0.09998443722724915
334,111034,111033,0.01635367050766945,-0.02517755515873432,1.0108318328857422,1.0530112981796265,6.36897087097168,4.187674045562744,2.127702474594116,3.9830820560455322,0.3200443983078003,0.7140940427780151,-0.12262283265590668,0.15364401042461395
335,111044,111043,-0.011736420914530754,0.025073891505599022,1.0089008808135986,1.0848366022109985,7.074225425720215,4.542661666870117,2.128021478652954,3.9831795692443848,0.3218804895877838,0.7151222825050354,-0.18112047016620636,0.16357330977916718
336,111054,111053,0.04012434929609299,-0.014649169519543648,0.9678977727890015,1.0845413208007812,7.778949737548828,4.747325897216797,2.12904953956604,3.983128786087036,0.3218424618244171,0.6213971972465515,-0.1543593406677246,0.20330102741718292
337,111064,111063,-0.011514902114868164,0.09068422764539719,1.0319784879684448,2.361210823059082,6.8909783363342285,4.973847389221191,2.1297218799591064,3.983255624771118,0.32183557748794556,0.6018080711364746,-0.1224699541926384,0.2646315395832062
338,111074,111073,0.0975148156285286,0.05010797455906868,0.9786558747291565,3.2095999717712402,12.649964332580566,4.9054059982299805,2.1303036212921143,3.9832777976989746,0.321810781955719,0.5501384735107422,-0.07901547849178314,0.31976640224456787
339,111084,111083,0.056070536375045776,0.014109796844422817,1.0027492046356201,4.7642083168029785,6.8090410232543945,4.597959995269775,2.1313085556030273,3.982145309448242,0.32359734177589417,0.46491745114326477,-0.015397201292216778,0.3097793459892273
340,111094,111093,-0.0002856171631719917,-0.039946071803569794,0.9851235747337341,4.181366443634033,8.070045471191406,4.455831527709961,2.1316781044006348,3.981248140335083,0.32365474104881287,0.4228435754776001,0.060690782964229584,0.3460032343864441
341,111104,111103,-0.0028566394466906786,-0.08629265427589417,0.9655206203460693,3.731372356414795,6.6361403465271,4.900972843170166,2.1316933631896973,3.981769323348999,0.32372891902923584,0.37544435262680054,0.13201749324798584,0.4037592113018036
342,111114,111113,-0.017954032868146896,0.10601233690977097,1.0135501623153687,0.6881524324417114,4.172591686248779,4.442244052886963,2.132658004760742,3.9825496673583984,0.3204421401023865,0.20675289630889893,0.10513069480657578,0.4752524793148041
343,111124,111123,0.027410374954342842,0.02856745757162571,0.9830083250999451,-0.9838177561759949,2.147235155105591,3.6541519165039062,2.1325490474700928,3.982754945755005,0.32031622529029846,0.22704924643039703,0.11856236308813095,0.5423895716667175
344,111134,111133,0.04909421503543854,-0.06799633800983429,1.0123851299285889,-3.0440309047698975,1.7298184633255005,3.8977930545806885,2.134129285812378,3.983433246612549,0.3200799822807312,0.11752504110336304,0.022199055179953575,0.5706771612167358
345,111144,111143,0.04406382888555527,-0.0660073384642601,1.0045820474624634,-2.6814489364624023,1.6001101732254028,3.7076034545898438,2.1349613666534424,3.9835939407348633,0.32122281193733215,0.10847672820091248,-0.016229791566729546,0.6479647755622864
346,111154,111153,-0.010433242656290531,-0.0033443483989685774,0.999259352684021,-0.8790396451950073,0.8595060110092163,3.3777589797973633,2.135103225708008,3.984548330307007,0.3211398422718048,0.09717624634504318,-0.04535624012351036,0.7105362415313721
347,111164,111163,0.02236555702984333,-0.08987937122583389,0.9869039058685303,2.7927894592285156,-1.895182490348816,3.078571319580078,2.1374764442443848,3.984062671661377,0.3209013342857361,-0.06588327884674072,-0.04149366542696953,0.7125275135040283
348,111174,111173,0.0058990041725337505,-0.0776766985654831,1.0052286386489868,4.304616451263428,5.603771686553955,3.540754795074463,2.138249635696411,3.983931303024292,0.32080739736557007,-0.05147496983408928,0.015849314630031586,0.7473389506340027
349,111184,111183,0.02497384324669838,-0.03962254524230957,0.9959113001823425,7.220725059509277,0.44055426120758057,4.443569660186768,2.138546943664551,3.9833269119262695,0.3163875639438629,0.009047278203070164,0.11064087599515915,0.7675266265869141
350,111194,111193,0.033463336527347565,-0.05585980415344238,0.948087751865387,7.002477645874023,-1.2677733898162842,5.356978893280029,2.13850736618042,3.9832229614257812,0.3161117732524872,0.09108088165521622,0.15207664668560028,0.7920175194740295
351,111204,111203,-0.017348743975162506,-0.015595626085996628,1.0177229642868042,5.843418121337891,-0.7327696681022644,5.764763832092285,2.138468027114868,3.9843482971191406,0.31582990288734436,0.19040946662425995,0.19007788598537445,0.8986480236053467
352,111214,111213,0.05900026112794876,-0.07204557210206985,0.9152877330780029,4.0618367195129395,-1.527039885520935,4.874868392944336,2.139899253845215,3.98298978805542,0.3175964951515198,0.12464435398578644,0.2886732518672943,0.8991610407829285
353,111224,111223,0.041234083473682404,-0.0258412454277277,0.9504814147949219,0.1507614701986313,3.5756967067718506,5.4196648597717285,2.140103578567505,3.983046054840088,0.317350298166275,0.2047516256570816,0.34175926446914673,0.943030595779419
354,111234,111233,-0.007664781529456377,0.048798054456710815,1.024940848350525,-2.5637524127960205,4.9390363693237305,4.9631781578063965,2.1416988372802734,3.9847488403320312,0.31697753071784973,0.05728883668780327,0.2557872533798218,1.0508126020431519
355,111244,111243,0.013204188086092472,0.0067683253437280655,1.005443811416626,-4.167717456817627,4.796252250671387,4.088540077209473,2.1418752670288086,3.984513521194458,0.31842607259750366,0.04781889170408249,0.21368645131587982,1.071027398109436
356,111254,111253,0.006621181033551693,-0.024540159851312637,1.0020086765289307,-2.7092647552490234,2.930246114730835,4.2134881019592285,2.1428277492523193,3.983944892883301,0.31817391514778137,-0.029245607554912567,0.234638974070549,1.100192666053772
357,111264,111263,-0.008666428737342358,0.03192673996090889,1.0348705053329468,-0.45754337310791016,-0.26155179738998413,4.70651388168335,2.1442782878875732,3.9828085899353027,0.3178686797618866,-0.1404838263988495,0.26760441064834595,1.126368522644043
358,111274,111273,0.07720086723566055,-0.13430026173591614,0.9915176630020142,0.4284140467643738,-2.4729321002960205,4.569220542907715,2.144237518310547,3.9833436012268066,0.31777897477149963,-0.05301925539970398,0.24467942118644714,1.1562875509262085
359,111284,111283,-0.031606484204530716,0.026742156594991684,1.0615943670272827,0.369377464056015,-3.00854754447937,4.73992395401001,2.1461963653564453,3.9838168621063232,0.3127823770046234,-0.176326721906662,0.1653788983821869,1.1970092058181763
360,111294,111293,-0.03557879477739334,0.010785634629428387,1.0532976388931274,-0.6715074181556702,-2.957653522491455,5.997110843658447,2.1463868618011475,3.983572006225586,0.31232860684394836,-0.12261831015348434,0.1690569519996643,1.2005324363708496
361,111304,111303,0.06949370354413986,-0.159766286611557,1.0334001779556274,0.03765536844730377,-3.759108066558838,6.334691524505615,2.146653413772583,3.982928514480591,0.31204888224601746,0.0008531924686394632,0.23953299224376678,1.3011105060577393
362,111314,111313,0.02080860175192356,-0.0634223222732544,1.0467629432678223,-1.6295292377471924,2.8199210166931152,5.399543762207031,2.147826671600342,3.982165575027466,0.31487900018692017,-0.04466906934976578,0.22766929864883423,1.29670250415802
363,111324,111323,0.06055493652820587,0.004738212563097477,1.015926718711853,-2.4048845767974854,1.8656246662139893,5.633179664611816,2.1474897861480713,3.9829699993133545,0.3148883283138275,0.07150033116340637,0.1960073560476303,1.4063162803649902
364,111334,111333,0.0012580909533426166,0.052954401820898056,1.0163041353225708,-3.733870267868042,4.435819149017334,5.588855743408203,2.1500415802001953,3.9821479320526123,0.31470176577568054,-0.1410708874464035,0.14549851417541504,1.3843979835510254
365,111344,111343,0.026754578575491905,0.08794022351503372,0.9398478269577026,-5.3422088623046875,11.765045166015625,4.501846790313721,2.150181531906128,3.981215000152588,0.3157680332660675,-0.14247502386569977,0.1541300266981125,1.3811261653900146
366,111354,111353,0.042386479675769806,0.043032508343458176,0.9770668148994446,-4.508419036865234,4.7771830558776855,4.611185550689697,2.150459051132202,3.981316089630127,0.3158177435398102,-0.18021170794963837,0.07167287915945053,1.4471426010131836
367,111364,111363,0.06773104518651962,-0.13801854848861694,1.0168771743774414,-4.886209011077881,4.128757476806641,4.17673921585083,2.151724100112915,3.981464385986328,0.31573113799095154,-0.26859816908836365,-0.012250185944139957,1.4785281419754028
368,111374,111373,0.057822488248348236,-0.09086087346076965,0.9647879600524902,-2.8332645893096924,-0.16671764850616455,3.4720540046691895,2.1526663303375244,3.9822757244110107,0.3156719505786896,-0.3140798807144165,-0.0844741016626358,1.5633647441864014
369,111384,111383,-0.07902476191520691,-0.018403925001621246,1.0431686639785767,0.8572524189949036,-6.280357837677002,2.5251331329345703,2.1544153690338135,3.9826152324676514,0.3180844485759735,-0.3836784362792969,-0.12171155959367752,1.6164470911026
370,111394,111393,-0.05809441953897476,-0.040484074503183365,0.9954555630683899,1.587377667427063,-1.8956917524337769,1.830063819885254,2.154315710067749,3.9828879833221436,0.3182838261127472,-0.23946742713451385,-0.11163749545812607,1.6412410736083984
371,111404,111403,0.0020675661507993937,-0.03255431726574898,0.9764567017555237,2.2417376041412354,-1.79069983959198,1.9297435283660889,2.1545586585998535,3.983551502227783,0.31840622425079346,-0.19642852246761322,-0.07980259507894516,1.7444721460342407
372,111414,111413,-0.02254665456712246,0.100657157599926,1.0093696117401123,3.8665108680725098,-5.912343502044678,2.5870416164398193,2.1564524173736572,3.9826159477233887,0.3154539167881012,-0.32360967993736267,0.03713731840252876,1.7477346658706665
373,111424,111423,-0.028620291501283646,-0.02095435932278633,1.0163415670394897,4.283311367034912,-3.6012723445892334,3.0939183235168457,2.1571409702301025,3.9825844764709473,0.3153941035270691,-0.2614903151988983,0.08879775553941727,1.787649393081665
374,111434,111433,-0.03730646148324013,-0.028987951576709747,0.9758400321006775,1.9431233406066895,-3.259888172149658,3.5378520488739014,2.1583404541015625,3.9827849864959717,0.31527093052864075,-0.2666841149330139,0.06355516612529755,1.7916208505630493
375,111444,111443,-0.02818409353494644,0.0569894015789032,0.9718735218048096,0.10523073375225067,-3.407409906387329,4.414991855621338,2.158867835998535,3.9832563400268555,0.3145509958267212,-0.1861637383699417,0.09527835249900818,1.8680545091629028
376,111454,111453,-0.010991794988512993,0.010511549189686775,0.9688593745231628,-0.29922908544540405,-4.392512798309326,3.6665356159210205,2.16048264503479,3.9837238788604736,0.31438979506492615,-0.17431841790676117,0.1041497066617012,1.9329127073287964
377,111464,111463,0.011310862377285957,-0.046239644289016724,0.9616012573242188,-2.007819175720215,-3.763948917388916,3.1363883018493652,2.160104513168335,3.9829940795898438,0.31431344151496887,0.0003469830844551325,0.09272478520870209,1.9239169359207153
378,111474,111473,-0.013051100075244904,-0.04969791695475578,1.0071266889572144,-5.8799729347229,0.11745654791593552,2.36452579498291,2.1621999740600586,3.9832749366760254,0.31467103958129883,-0.16587384045124054,0.046361103653907776,1.949324131011963
379,111484,111483,-0.013197710737586021,-0.05805714800953865,0.98970627784729,-7.633490085601807,4.7010931968688965,1.095391035079956,2.162618637084961,3.9834084510803223,0.3145401179790497,-0.07456906139850616,-0.058249883353710175,1.9543927907943726
380,111494,111493,-0.06502347439527512,0.012628234922885895,0.9682209491729736,-7.888230323791504,5.513401031494141,0.33621999621391296,2.1620330810546875,3.982868194580078,0.31431910395622253,-0.07100499421358109,-0.18303969502449036,1.8977751731872559
381,111504,111503,0.03961481899023056,-0.08544909209012985,0.9841938018798828,-5.730045318603516,5.461320877075195,-1.594490647315979,2.1635186672210693,3.983812093734741,0.3139916658401489,-0.2535175383090973,-0.30239132046699524,1.8863756656646729
382,111514,111513,0.03198988735675812,-0.023330003023147583,1.00223708152771,-3.5334019660949707,7.0023627281188965,-1.8958789110183716,2.163998603820801,3.982293128967285,0.31586238741874695,-0.26280349493026733,-0.30692258477211,1.806052565574646
383,111524,111523,0.0667356550693512,-0.02945871837437153,0.9987307190895081,0.6530275344848633,4.612298965454102,-2.6992480754852295,2.1654579639434814,3.981529712677002,0.31576070189476013,-0.3459629416465759,-0.26626309752464294,1.8076820373535156
384,111534,111533,0.010989414528012276,0.07674777507781982,0.9489409327507019,2.0459532737731934,2.547677516937256,-3.9300880432128906,2.1665639877319336,3.9821832180023193,0.31563466787338257,-0.3994126319885254,-0.25710463523864746,1.8323076963424683
385,111544,111543,-0.06342021375894547,0.12357397377490997,0.991439163684845,2.2694294452667236,-1.248561978340149,-3.500741958618164,2.1676218509674072,3.9823155403137207,0.31390178203582764,-0.481719970703125,-0.2237524539232254,1.8118911981582642
386,111554,111553,0.024142533540725708,-0.05329125002026558,0.9427812695503235,2.6760549545288086,-2.9500341415405273,-2.551614761352539,2.1694536209106445,3.9831037521362305,0.3136027157306671,-0.49501052498817444,-0.258960098028183,1.792919635772705
387,111564,111563,-0.01081078965216875,-0.02244436927139759,0.9880460500717163,4.434572219848633,-5.442815780639648,-1.3668887615203857,2.1707711219787598,3.9823381900787354,0.31327471137046814,-0.4740179181098938,-0.19906122982501984,1.7254250049591064
388,111574,111573,-0.12179011851549149,0.1620682179927826,0.9765694737434387,6.820326805114746,-9.59143352508545,-0.6837906837463379,2.170300245285034,3.9827444553375244,0.3130737245082855,-0.3121766746044159,-0.10252171754837036,1.7708624601364136
389,111584,111583,-0.05090976879000664,0.15338550508022308,0.9749754667282104,5.542178630828857,-5.279754638671875,-1.0233126878738403,2.1713314056396484,3.9826927185058594,0.312734454870224,-0.2152426540851593,-0.07140248268842697,1.7386575937271118
390,111594,111593,-0.009228406473994255,0.22126029431819916,0.9935840964317322,3.2139813899993896,-0.2784898579120636,-1.1079882383346558,2.170964479446411,3.9823031425476074,0.3124966323375702,-0.013777938671410084,0.020891131833195686,1.7047008275985718
391,111604,111603,0.08372679352760315,0.04458136484026909,0.9312152862548828,1.3522857427597046,2.8890111446380615,-0.9607452750205994,2.172079086303711,3.981473684310913,0.312088280916214,-0.04455532133579254,0.07946177572011948,1.6934391260147095
392,111614,111613,0.04593003913760185,-0.10250929743051529,1.0241284370422363,0.16323469579219818,4.826971530914307,-0.920063316822052,2.1747794151306152,3.9808924198150635,0.3108270764350891,-0.28395748138427734,0.10645965486764908,1.6249303817749023
393,111624,111623,0.019712161272764206,-0.14086124300956726,1.0366108417510986,-0.944402277469635,5.86005163192749,-1.0498749017715454,2.1749792098999023,3.9810631275177,0.3104725182056427,-0.24545472860336304,0.10576246678829193,1.6262651681900024
394,111634,111633,0.03947710245847702,-0.062390051782131195,0.9785498380661011,-4.444072246551514,6.659156322479248,-1.4370580911636353,2.1769673824310303,3.981132745742798,0.30992525815963745,-0.393372118473053,0.0717940405011177,1.6053893566131592
395,111644,111643,0.05741534382104874,0.03032267838716507,0.9932380318641663,-7.300402641296387,6.060768127441406,-1.6527210474014282,2.177842378616333,3.981679677963257,0.3122272491455078,-0.4438020586967468,-0.011506089009344578,1.5896567106246948
396,111654,111653,0.13089753687381744,-0.04520329833030701,1.0197575092315674,-9.374361991882324,-0.3402561843395233,-3.439147710800171,2.178797721862793,3.9823858737945557,0.31198492646217346,-0.45261773467063904,-0.13124756515026093,1.5851867198944092
397,111664,111663,0.001999632455408573,0.036434952169656754,1.0439454317092896,-10.315203666687012,-4.945631980895996,-4.196282386779785,2.1792094707489014,3.98313307762146,0.31178125739097595,-0.3727518320083618,-0.27568572759628296,1.5147899389266968
398,111674,111673,0.015703752636909485,0.04714534431695938,0.9500654935836792,-8.122447967529297,-7.795446872711182,-4.404743671417236,2.181331157684326,3.982616424560547,0.30648937821388245,-0.3711138367652893,-0.34594017267227173,1.4971789121627808
399,111684,111683,-0.011006511747837067,0.05666031688451767,0.9705482125282288,-4.881368637084961,-10.287825584411621,-4.244661808013916,2.1807963848114014,3.982998847961426,0.30601027607917786,-0.17429021000862122,-0.45479825139045715,1.4721437692642212
400,111694,111693,0.006232969928532839,-0.005426381248980761,1.0135430097579956,-0.9778018593788147,-11.510255813598633,-4.089485168457031,2.1807100772857666,3.983590602874756,0.30553367733955383,0.032432921230793,-0.5095095038414001,1.4394025802612305
401,111704,111703,-0.020447611808776855,0.06250127404928207,1.058941125869751,3.155517339706421,-6.35375452041626,-4.39011812210083,2.1821649074554443,3.982952356338501,0.306604266166687,0.054350197315216064,-0.5021389126777649,1.3530018329620361
402,111714,111713,0.025162162259221077,-0.02618640661239624,1.0249812602996826,4.465607643127441,3.8900582790374756,-3.9640161991119385,2.1840686798095703,3.982539653778076,0.30612248182296753,-0.013067333959043026,-0.37041446566581726,1.3088668584823608
403,111724,111723,-0.03282090276479721,-0.009232125245034695,0.9342391490936279,4.575052738189697,7.063927173614502,-4.641838550567627,2.1849606037139893,3.981689214706421,0.30571165680885315,-0.042595937848091125,-0.29382410645484924,1.2616972923278809
404,111734,111733,-0.055308323353528976,0.04855044186115265,0.9787212610244751,1.9593795537948608,5.317112922668457,-3.338869094848633,2.18633770942688,3.9814512729644775,0.3052792549133301,-0.11987757682800293,-0.22067496180534363,1.2164311408996582
405,111744,111743,0.008306738920509815,-0.07067198306322098,1.0093989372253418,-2.649136781692505,1.1288014650344849,-2.0245048999786377,2.187293767929077,3.981165885925293,0.305364191532135,-0.1745080053806305,-0.20386318862438202,1.1466927528381348
406,111754,111753,0.03311620652675629,-0.08456513285636902,1.008770227432251,-5.018890857696533,0.17253157496452332,-2.6576693058013916,2.1882035732269287,3.9815518856048584,0.30497464537620544,-0.14718402922153473,-0.33167803287506104,1.069435715675354
407,111764,111763,-0.011238542385399342,0.027183691039681435,1.0055012702941895,-6.470567226409912,-7.284761428833008,0.2145487368106842,2.1891396045684814,3.98181414604187,0.3044781982898712,-0.12776169180870056,-0.4226900637149811,1.0053669214248657
408,111774,111773,0.03541569039225578,-0.01292166393250227,0.9490025043487549,-4.492953777313232,-8.838411331176758,2.369715690612793,2.1883718967437744,3.98185396194458,0.3016819953918457,0.13810771703720093,-0.506792426109314,1.0230913162231445
409,111784,111783,-0.011337296105921268,0.08528096228837967,1.0033563375473022,-1.892623782157898,-8.930526733398438,4.220141887664795,2.190962076187134,3.980905294418335,0.30105769634246826,0.03525147959589958,-0.39221104979515076,1.0786815881729126
410,111794,111793,0.022345976904034615,0.01274142786860466,1.0025930404663086,1.2458564043045044,-9.03810977935791,5.5133843421936035,2.1910786628723145,3.981307029724121,0.300561785697937,0.2326584756374359,-0.3928219974040985,1.158510446548462
411,111804,111803,-0.01700114831328392,0.09219974279403687,1.0735595226287842,0.8754889369010925,-4.751082897186279,5.471782684326172,2.1925296783447266,3.9812474250793457,0.3016163408756256,0.22415660321712494,-0.45143359899520874,1.1485298871994019
412,111814,111813,-0.032426103949546814,-0.0018473387463018298,1.0287232398986816,-0.691318929195404,0.46424102783203125,6.424716472625732,2.1922895908355713,3.9816291332244873,0.30123627185821533,0.38141515851020813,-0.5090615749359131,1.1952913999557495
413,111824,111823,-0.028875380754470825,0.0015799413667991757,1.0136200189590454,-0.7607787251472473,-0.04710739850997925,7.013192176818848,2.1940085887908936,3.981811285018921,0.30081048607826233,0.3089323937892914,-0.5040495991706848,1.2705926895141602
414,111834,111833,-0.0006121867336332798,-0.002351683098822832,1.0071613788604736,-1.5087727308273315,-0.2496437281370163,8.890307426452637,2.1952359676361084,3.9828529357910156,0.3002869784832001,0.23973149061203003,-0.6600740551948547,1.2773032188415527
415,111844,111843,0.00819205492734909,0.021946266293525696,1.0300298929214478,0.011995741166174412,1.3992172479629517,8.969481468200684,2.1959338188171387,3.9827468395233154,0.299527645111084,0.3164144456386566,-0.6423388719558716,1.388754963874817
416,111854,111853,0.01415124163031578,-0.22173425555229187,1.0162421464920044,1.2691961526870728,1.5454291105270386,8.497946739196777,2.197495698928833,3.9827182292938232,0.2991137206554413,0.23947647213935852,-0.6009400486946106,1.5002250671386719
417,111864,111863,0.020885370671749115,-0.1955399513244629,1.0448886156082153,5.445638179779053,-6.246708869934082,10.250386238098145,2.197300910949707,3.983187437057495,0.2989450693130493,0.385621577501297,-0.5281119346618652,1.614366054534912
418,111874,111873,-0.00594586506485939,-0.07266104221343994,1.0445274114608765,6.696106433868408,-5.520692348480225,10.581293106079102,2.1984403133392334,3.982775926589966,0.2986692190170288,0.4434030055999756,-0.4083341062068939,1.7157350778579712
419,111884,111883,0.031670570373535156,-0.009050202555954456,1.0150339603424072,7.0241007804870605,-1.9547332525253296,10.520052909851074,2.200666666030884,3.983541965484619,0.2983165681362152,0.35295286774635315,-0.4168190658092499,1.8248556852340698
420,111894,111893,0.0005503888241946697,-0.048398103564977646,1.0638186931610107,4.282303810119629,-7.582269668579102,10.356857299804688,2.201406717300415,3.984251022338867,0.29809215664863586,0.4046470522880554,-0.3519458472728729,1.9631441831588745
421,111904,111903,-0.03376578539609909,0.12437910586595535,1.0349998474121094,1.8889012336730957,-8.059996604919434,8.528980255126953,2.2025468349456787,3.9840776920318604,0.29936540126800537,0.5083723068237305,-0.2584466338157654,2.0554118156433105
422,111914,111913,-0.043462906032800674,0.15809734165668488,1.0101027488708496,-6.980063438415527,0.6257104277610779,6.034641265869141,2.2021493911743164,3.9852395057678223,0.2994154989719391,0.7295544147491455,-0.3446262776851654,2.159273624420166
423,111924,111923,0.0021863258443772793,0.002988591091707349,1.0044794082641602,-11.306781768798828,3.3878211975097656,5.475972652435303,2.203549861907959,3.9853086471557617,0.29936322569847107,0.6942257881164551,-0.4487105906009674,2.188051223754883
424,111934,111933,0.010628760792315006,-0.0503302700817585,1.0628974437713623,-9.928449630737305,7.955744743347168,4.194145679473877,2.2050702571868896,3.9861462116241455,0.2991885244846344,0.5352110862731934,-0.6748489141464233,2.210869550704956
425,111944,111943,-0.014088112860918045,0.0201230701059103,1.0060330629348755,-8.723751068115234,17.188894271850586,3.0768330097198486,2.2059829235076904,3.9866604804992676,0.30056464672088623,0.450788676738739,-0.7925370335578918,2.241580009460449
426,111954,111953,-0.08850103616714478,0.03273583576083183,1.0015816688537598,-4.87464714050293,16.809303283691406,2.7534987926483154,2.20711088180542,3.9863200187683105,0.3006677031517029,0.27273619174957275,-0.854848325252533,2.21073055267334
427,111964,111963,0.009381079114973545,-0.006347526330500841,0.9901354312896729,-1.6816014051437378,13.527490615844727,2.092848300933838,2.2080209255218506,3.9865453243255615,0.30082109570503235,0.10858077555894852,-0.857803225517273,2.2379150390625
428,111974,111973,-0.03889467194676399,0.020758261904120445,1.0134400129318237,-3.396249771118164,7.679060459136963,0.12246948480606079,2.208956480026245,3.9868736267089844,0.30000245571136475,0.013609131798148155,-0.8445554971694946,2.261780261993408
429,111984,111983,-0.00982186570763588,-0.07891702651977539,0.9625210165977478,-4.568191051483154,-4.074853420257568,-1.8174513578414917,2.2090718746185303,3.987962484359741,0.3001190721988678,0.028650566935539246,-0.934944212436676,2.23842453956604
430,111994,111993,-0.0030208975076675415,-0.023686174303293228,0.9390063285827637,-4.882610321044922,-12.315791130065918,-4.138913154602051,2.209171772003174,3.987813711166382,0.3002491295337677,0.12967067956924438,-0.9657489061355591,2.2001912593841553
431,112004,112003,-0.035167396068573,-0.037212155759334564,0.9287562370300293,-4.082496166229248,-16.62567710876465,-6.4977641105651855,2.2096593379974365,3.9880733489990234,0.300553560256958,0.3193114995956421,-0.9851582646369934,2.1483867168426514
432,112014,112013,0.034748706966638565,-0.005886746104806662,0.9590253829956055,2.2509217262268066,-24.45322036743164,-7.035560607910156,2.2120800018310547,3.9887866973876953,0.30051136016845703,0.30617135763168335,-0.9488930702209473,2.147526502609253
433,112024,112023,0.02258705534040928,-0.009938159957528114,0.9616184830665588,10.72716999053955,-22.340999603271484,-9.598992347717285,2.2115700244903564,3.9887683391571045,0.3005804419517517,0.7475430369377136,-0.8772646188735962,2.022364377975464
434,112034,112033,-0.04655319079756737,-0.09420155733823776,0.9656977653503418,14.66019058227539,-15.026705741882324,-11.497183799743652,2.2122297286987305,3.988257646560669,0.300321102142334,0.9426082372665405,-0.6831091046333313,1.909720540046692
435,112044,112043,-0.007964827120304108,-0.0300107691437006,0.987462043762207,12.948881149291992,-1.95016610622406,-14.51196575164795,2.2139487266540527,3.9906105995178223,0.30015572905540466,0.928469181060791,-0.6211308836936951,1.9031996726989746
436,112054,112053,-0.017576629295945168,0.0071997372433543205,0.9591889381408691,10.601430892944336,12.29509449005127,-17.35387420654297,2.213930368423462,3.9908154010772705,0.3000437021255493,0.9889929890632629,-0.4358929395675659,1.7334176301956177
437,112064,112063,-0.04402226209640503,0.052094459533691406,0.9957194328308105,6.620040416717529,14.42150592803955,-17.452350616455078,2.214862108230591,3.991436004638672,0.29985910654067993,0.8266390562057495,-0.31549036502838135,1.5618301630020142
438,112074,112073,-0.014880496077239513,-0.07121679931879044,0.9894858598709106,6.194031238555908,24.828054428100586,-19.200172424316406,2.216348171234131,3.9911820888519287,0.2993003726005554,0.5922550559043884,-0.24400457739830017,1.3269520998001099
439,112084,112083,0.003393320133909583,-0.11889209598302841,0.9472663998603821,10.695117950439453,25.42314338684082,-17.11927032470703,2.2163054943084717,3.992499589920044,0.2990713119506836,0.3972647488117218,-0.28632569313049316,1.091928243637085
440,112094,112093,-0.013158519752323627,-0.2147260308265686,0.9685244560241699,14.161163330078125,25.47946548461914,-16.28337860107422,2.2166779041290283,3.994399070739746,0.2987672984600067,0.1400911509990692,-0.24500805139541626,1.0274678468704224
441,112104,112103,-0.05373789370059967,-0.13128961622714996,0.9850602746009827,16.497671127319336,14.486178398132324,-16.16949462890625,2.2173852920532227,3.9935595989227295,0.2981738746166229,-0.12194278836250305,0.004135990981012583,0.8188949227333069
442,112114,112113,-0.01932472363114357,-0.014749880880117416,0.9721665978431702,11.909324645996094,6.797192096710205,-15.570305824279785,2.217489242553711,3.994349956512451,0.29794394969940186,-0.1356784552335739,0.15916657447814941,0.6676986217498779
443,112124,112123,0.04006734862923622,-0.01785411685705185,0.9786065816879272,6.827059745788574,-2.0656015872955322,-17.10400390625,2.217371702194214,3.994701623916626,0.29764267802238464,-0.10366029292345047,0.23182858526706696,0.467197984457016
444,112134,112133,0.009195612743496895,0.04128808528184891,1.0196559429168701,-2.2956137657165527,-5.865050315856934,-19.285343170166016,2.2170917987823486,3.994917631149292,0.29509568214416504,-0.008834081701934338,0.26104846596717834,0.26303815841674805
445,112144,112143,0.004096863325685263,-0.09544176608324051,0.9574298858642578,-8.581318855285645,-5.579146862030029,-20.674104690551758,2.216676950454712,3.9952070713043213,0.2946527302265167,0.14246076345443726,0.23735186457633972,0.052097201347351074
446,112154,112153,-0.01342593040317297,-0.14657141268253326,1.0671921968460083,-9.842024803161621,0.9088708162307739,-22.655040740966797,2.216510057449341,3.9955828189849854,0.29418373107910156,0.22227752208709717,0.14403356611728668,-0.18098893761634827
447,112164,112163,-0.03535064682364464,-0.11695250868797302,1.0963287353515625,-0.21794793009757996,8.09658145904541,-24.835460662841797,2.2172794342041016,3.9962241649627686,0.2937672734260559,0.11253649741411209,0.09698183089494705,-0.39443260431289673
448,112174,112173,-0.03484512120485306,0.06504642963409424,1.0266644954681396,15.894316673278809,8.769181251525879,-24.8435115814209,2.216952085494995,3.996147394180298,0.2938346564769745,0.03853992745280266,0.25250712037086487,-0.6113008260726929
449,112184,112183,-0.008139796555042267,0.06490600109100342,1.046772837638855,28.26536750793457,6.615262031555176,-25.29312515258789,2.2171711921691895,3.996706008911133,0.2935510277748108,-0.03927765414118767,0.4303024411201477,-0.8642964363098145
450,112194,112193,-0.003402168396860361,-0.04859863594174385,1.0847450494766235,31.574844360351562,8.877951622009277,-26.126569747924805,2.218017578125,3.9950482845306396,0.2932793200016022,-0.16539904475212097,0.9161615967750549,-1.1567950248718262
451,112204,112203,0.021904729306697845,-0.08926258981227875,1.0359374284744263,34.36814498901367,7.1180853843688965,-28.189022064208984,2.218318223953247,3.9973559379577637,0.2969386875629425,-0.2045762836933136,0.9619946479797363,-1.4536889791488647
452,112214,112213,-0.001770197763107717,0.003637772286310792,1.0525420904159546,32.50642013549805,-2.1261301040649414,-27.939146041870117,2.218804121017456,3.9981114864349365,0.2970360815525055,-0.2533031702041626,1.3479998111724854,-1.681744933128357
453,112224,112223,0.034232571721076965,0.02502160146832466,1.0821526050567627,27.459016799926758,-5.998684406280518,-25.487850189208984,2.219306707382202,3.9982056617736816,0.2972051203250885,-0.1451081782579422,1.755385398864746,-1.9233975410461426
454,112234,112233,-0.05767670273780823,0.03247788920998573,1.0766133069992065,14.335132598876953,-12.59840202331543,-23.546558380126953,2.219557762145996,3.9990551471710205,0.29832008481025696,-0.09875791519880295,1.9281005859375,-2.1752378940582275
455,112244,112243,-0.05525289103388786,0.05941903218626976,1.043204426765442,-7.2887396812438965,-16.649028778076172,-20.832015991210938,2.2202401161193848,3.998441696166992,0.2986011803150177,0.05227716267108917,2.038785696029663,-2.432093858718872
456,112254,112253,-0.07127326726913452,0.06866402179002762,1.0640603303909302,-20.559062957763672,-14.28985595703125,-19.938962936401367,2.220289707183838,4.0004448890686035,0.2991565763950348,0.30468207597732544,1.7779344320297241,-2.632143259048462
457,112264,112263,-0.11651867628097534,0.049518853425979614,1.1203105449676514,-25.54469871520996,-12.373753547668457,-18.945358276367188,2.221306800842285,4.000371932983398,0.2996024191379547,0.310410737991333,1.5759025812149048,-2.861534833908081
458,112274,112273,-0.061635419726371765,0.002505985787138343,1.0698224306106567,-21.26506805419922,-7.078393459320068,-16.16912269592285,2.22098708152771,4.0012102127075195,0.2988561987876892,0.5206253528594971,1.2083513736724854,-3.079023838043213
459,112284,112283,-0.09843426942825317,-0.03947029635310173,1.1141330003738403,-12.099233627319336,-1.5715819597244263,-11.95071792602539,2.2232744693756104,3.999885082244873,0.29950597882270813,0.3547084927558899,1.1848125457763672,-3.2770261764526367
460,112294,112293,-0.04709981754422188,0.1216483861207962,1.0756864547729492,-0.48238256573677063,5.445943832397461,-8.041109085083008,2.2232422828674316,3.9992928504943848,0.3002018332481384,0.3991040587425232,1.1015377044677734,-3.4390008449554443
461,112304,112303,-0.050994474440813065,0.09912921488285065,1.0851291418075562,7.045167922973633,15.782508850097656,-4.973515033721924,2.2239444255828857,3.997572660446167,0.3008878529071808,0.292354553937912,1.2548332214355469,-3.5659031867980957
462,112314,112313,-0.04210172966122627,0.01198581699281931,1.0369123220443726,12.209623336791992,23.921770095825195,-1.4544786214828491,2.224243402481079,3.9973435401916504,0.30172669887542725,0.12006121873855591,1.4497188329696655,-3.5535316467285156
463,112324,112323,0.03514678776264191,-0.05165315419435501,0.9961355924606323,8.04642391204834,29.235023498535156,-0.2205047458410263,2.222245693206787,3.999363899230957,0.30271071195602417,0.019074197858572006,1.4094817638397217,-3.455932855606079
464,112334,112333,0.009650764055550098,-0.06564205139875412,0.9899534583091736,1.572669267654419,22.69491958618164,0.08147966116666794,2.2222840785980225,3.9992406368255615,0.3026476800441742,-0.28979265689849854,1.5110090970993042,-3.4487404823303223
465,112344,112343,-0.10471294075250626,-0.10653762519359589,1.0206563472747803,-2.9699175357818604,20.92210578918457,2.285691976547241,2.2236554622650146,3.9987645149230957,0.3033851087093353,-0.6355639696121216,1.5099029541015625,-3.4861602783203125
466,112354,112353,-0.12896813452243805,-0.10473766177892685,1.0094479322433472,-4.2707366943359375,9.016202926635742,3.8076748847961426,2.2221319675445557,3.9962708950042725,0.3041694462299347,-0.7143682837486267,1.5240520238876343,-3.5761539936065674
467,112364,112363,-0.15647491812705994,0.15186448395252228,1.0020824670791626,-6.004243850708008,-1.644588828086853,6.9179205894470215,2.219752311706543,3.9978017807006836,0.3052012622356415,-0.5766476988792419,1.4331231117248535,-3.3936500549316406
468,112374,112373,-0.11112623661756516,0.005655957851558924,0.9701370000839233,-6.42919397354126,-13.24512004852295,8.871800422668457,2.2184040546417236,3.997643232345581,0.3044103980064392,-0.5125347375869751,1.3993133306503296,-3.2749106884002686
469,112384,112383,-0.08074582368135452,0.06264438480138779,0.9386351704597473,-6.772409439086914,-15.880261421203613,10.746255874633789,2.21869158744812,3.9980998039245605,0.30513468384742737,-0.3770458400249481,1.289971113204956,-3.1835696697235107
470,112394,112393,-0.027088483795523643,-0.05264512822031975,0.9395412802696228,-6.753050327301025,-9.567919731140137,11.430062294006348,2.2169578075408936,3.997925043106079,0.3058607578277588,-0.08252216130495071,1.1593005657196045,-3.0976157188415527
471,112404,112403,-0.014697183854877949,-0.01624962128698826,0.9519153833389282,-4.024522304534912,-8.005019187927246,13.204132080078125,2.2170095443725586,3.996270179748535,0.30610665678977966,-0.04541905224323273,1.2069393396377563,-3.0694358348846436
472,112414,112413,-0.04566803574562073,-0.056074317544698715,0.9509587287902832,5.441956520080566,4.565171718597412,14.569499015808105,2.217073440551758,3.995936870574951,0.3066670894622803,0.007186532486230135,1.1849768161773682,-2.9052581787109375
473,112424,112423,-0.04850374907255173,-0.06993000209331512,0.952468991279602,14.354698181152344,23.509586334228516,16.707401275634766,2.2171432971954346,3.9946322441101074,0.30709052085876465,-0.15679879486560822,1.3289592266082764,-2.7965314388275146
474,112434,112433,0.04717441275715828,-0.09191679954528809,0.8942644596099854,25.99071502685547,25.668684005737305,18.69550895690918,2.2176120281219482,3.9933958053588867,0.3077927231788635,-0.4515877366065979,1.5741009712219238,-2.655702829360962
475,112444,112443,-0.06831950694322586,-0.04800263047218323,0.9283690452575684,28.330034255981445,26.01390266418457,21.191364288330078,2.2172398567199707,3.991347074508667,0.3080942928791046,-0.6245071291923523,2.017512559890747,-2.4515066146850586
476,112454,112453,-0.03380362316966057,-0.013835817575454712,0.9150418639183044,16.05048179626465,19.934669494628906,22.99134635925293,2.2156240940093994,3.9911959171295166,0.308578759431839,-0.775861382484436,2.126720666885376,-2.313297748565674
