,timestamp_start,timestamp_end,acc.x,acc.y,acc.z,gyro.x,gyro.y,gyro.z,stateEstimate.x,stateEstimate.y,stateEstimate.z,stabilizer.pitch,stabilizer.roll,stabilizer.yaw
0,39462,39459,0.03166749328374863,0.06699974089860916,0.9961040019989014,-9.461649894714355,14.67265510559082,-0.012987465597689152,1.7946802377700806,3.7953109741210938,0.17407692968845367,-0.9101593494415283,0.48039859533309937,3.0682427883148193
1,39472,39469,0.027202244848012924,0.006589206401258707,0.9647232294082642,-8.570241928100586,0.8069350719451904,-0.6322858333587646,1.7969390153884888,3.7971351146698,0.17599117755889893,-1.0722497701644897,0.48415061831474304,3.06305193901062
2,39482,39479,0.023035146296024323,-0.019830048084259033,0.9959937930107117,-4.80754280090332,-13.424216270446777,-0.7275936007499695,1.7978042364120483,3.7967777252197266,0.17791889607906342,-0.9278485774993896,0.14518426358699799,3.0518791675567627
3,39492,39489,0.028439020738005638,-0.018194379284977913,0.9789814352989197,-2.54046893119812,-23.501379013061523,-0.49515020847320557,1.7968032360076904,3.797447443008423,0.17804478108882904,-0.5848609805107117,0.33641430735588074,3.089393377304077
4,39502,39499,-0.021279675886034966,0.020273102447390556,1.0466173887252808,0.30074816942214966,-26.711544036865234,0.18184193968772888,1.7961674928665161,3.796210527420044,0.18042343854904175,-1.1105923652648926,0.24204745888710022,2.9812822341918945
5,39512,39509,-0.013592247851192951,0.14049884676933289,1.0003690719604492,1.1239336729049683,-22.716632843017578,0.39984533190727234,1.7999062538146973,3.7960896492004395,0.18238936364650726,-0.8027293086051941,0.19244921207427979,2.9766461849212646
6,39522,39519,-0.03147923946380615,0.09289693832397461,1.0572915077209473,-0.9398354291915894,-17.652421951293945,0.7794690728187561,1.802024245262146,3.7993643283843994,0.18084979057312012,-0.5873310565948486,0.28262847661972046,2.994332790374756
7,39532,39529,0.042402222752571106,-0.06624578684568405,0.9536344408988953,-1.148173213005066,-14.914487838745117,0.698412299156189,1.8022253513336182,3.799806594848633,0.1827223002910614,-0.5800411701202393,0.2617707848548889,2.9852612018585205
8,39542,39539,-0.007165426388382912,0.009918847121298313,1.0486843585968018,-2.1368520259857178,-12.589750289916992,0.3923504650592804,1.8038907051086426,3.7999303340911865,0.184146910905838,-0.3635396361351013,0.23157230019569397,2.9949755668640137
9,39552,39549,0.014826366677880287,-0.030807524919509888,1.0022141933441162,-4.402166843414307,-12.602751731872559,-0.07780198752880096,1.8041876554489136,3.799649477005005,0.18618318438529968,-0.01674293540418148,0.2510295510292053,3.021150827407837
10,39562,39559,0.020905321463942528,-0.00883501023054123,1.014139175415039,-4.573535919189453,-14.621132850646973,-0.666905403137207,1.8031315803527832,3.8000447750091553,0.18667276203632355,-0.13174401223659515,0.17142026126384735,2.9946844577789307
11,39572,39569,-0.02104860544204712,0.018611779436469078,1.0618683099746704,-4.418822288513184,-14.60031509399414,-0.16942013800144196,1.8072818517684937,3.8013224601745605,0.18832789361476898,0.09836158901453018,0.2416306585073471,3.007855176925659
12,39582,39579,0.04196342080831528,-0.04120292887091637,0.9921268820762634,-4.428066253662109,-14.04340934753418,-0.03865700587630272,1.8075436353683472,3.8023858070373535,0.19029036164283752,0.30888134241104126,0.1465054303407669,3.005690336227417
13,39592,39589,-0.002123031532391906,-0.017636017873883247,1.0194361209869385,-2.4309425354003906,-15.716941833496094,-0.06087244302034378,1.804885745048523,3.804486036300659,0.19252152740955353,0.439899742603302,0.07927006483078003,3.001652956008911
14,39602,39599,-0.013374361209571362,0.005786569323390722,1.0376452207565308,-2.5349860191345215,-14.366637229919434,-0.007916801609098911,1.80662202835083,3.8064072132110596,0.19439814984798431,0.5044292211532593,0.10362289845943451,2.995612382888794
15,39612,39609,0.016001295298337936,-0.01930655725300312,0.9808251857757568,-2.5175235271453857,-11.615880012512207,0.22389627993106842,1.8086729049682617,3.806588888168335,0.1962270587682724,0.5392197370529175,0.11964011192321777,2.991776704788208
16,39622,39619,-0.005299525335431099,-0.03201810270547867,1.0237302780151367,-2.4147934913635254,-9.792036056518555,0.6459380388259888,1.8106533288955688,3.8081438541412354,0.198312908411026,0.776062548160553,0.20499156415462494,3.0041275024414062
17,39632,39629,0.0356292650103569,-0.013117584399878979,1.0317775011062622,-2.3711206912994385,-9.255228996276855,0.3832643926143646,1.8105915784835815,3.8074638843536377,0.20032593607902527,0.7481285333633423,0.12956637144088745,3.0033087730407715
18,39642,39639,0.004128830973058939,-0.022965047508478165,0.9964813590049744,-2.790722370147705,-8.996429443359375,0.18604153394699097,1.8114187717437744,3.8078415393829346,0.20224247872829437,0.7274900674819946,0.057016514241695404,3.002254009246826
19,39652,39649,-0.010332000441849232,0.02736704610288143,1.0756617784500122,-3.3043301105499268,-8.948654174804688,-0.15516673028469086,1.8129674196243286,3.8079826831817627,0.2041006088256836,1.0159138441085815,-0.09253305196762085,3.016434669494629
20,39662,39659,0.039813969284296036,-0.06172233447432518,0.961890697479248,-3.965017080307007,-10.226723670959473,-0.24443960189819336,1.8121439218521118,3.808501720428467,0.20560650527477264,1.2157100439071655,-0.08704563975334167,3.0166029930114746
21,39672,39669,-0.011432761326432228,0.03966917842626572,1.0270988941192627,-3.9933054447174072,-13.640851020812988,-0.38244155049324036,1.812950611114502,3.810992479324341,0.20760564506053925,1.3383827209472656,-0.12767727673053741,3.0143182277679443
22,39682,39679,0.003111024387180805,0.014801082201302052,1.006760835647583,-2.768930196762085,-9.857938766479492,-0.5404398441314697,1.8145034313201904,3.812507152557373,0.20961116254329681,1.4179822206497192,-0.2038336545228958,3.015195608139038
23,39692,39689,0.01973840966820717,-0.05351065471768379,0.9987236857414246,-1.6696845293045044,-6.140864372253418,-1.023911952972412,1.8149125576019287,3.81304931640625,0.20973730087280273,1.5204689502716064,-0.2553819715976715,3.012549877166748
24,39702,39699,0.001980273984372616,-0.015859395265579224,0.9919499158859253,-0.2775300145149231,-4.409570217132568,-0.09976821392774582,1.8177672624588013,3.812438488006592,0.21169812977313995,1.337802767753601,-0.1353244185447693,2.9878385066986084
25,39712,39709,0.006953654810786247,-0.08862098306417465,0.92415851354599,0.1456030309200287,-4.713755130767822,0.4322988986968994,1.8169804811477661,3.8123905658721924,0.21367432177066803,1.4543118476867676,-0.15667162835597992,2.990666389465332
26,39722,39719,0.039226751774549484,-0.07297427952289581,0.9772005677223206,-0.6286051869392395,-5.425171375274658,0.4071004092693329,1.8178023099899292,3.813032388687134,0.21374589204788208,1.5363167524337769,-0.14381594955921173,2.9966847896575928
27,39732,39729,0.005807561334222555,-0.011234860867261887,1.02764892578125,-2.736071825027466,-5.228070259094238,0.5247214436531067,1.8194713592529297,3.8151190280914307,0.2155521661043167,1.6394919157028198,-0.12004628032445908,2.9976210594177246
28,39742,39739,0.05579300969839096,-0.06250210106372833,0.9751070737838745,-3.3855676651000977,-5.2825927734375,0.49286606907844543,1.8195172548294067,3.8151750564575195,0.21726512908935547,1.7958930730819702,-0.12511613965034485,2.9962069988250732
29,39752,39749,0.02368262968957424,0.012076647020876408,0.9424092769622803,-4.174059867858887,-4.112951755523682,0.3950916826725006,1.81915283203125,3.814497947692871,0.22176572680473328,1.8285046815872192,-0.1587626188993454,2.997666835784912
30,39762,39759,0.03607665002346039,0.03519153967499733,0.9085844159126282,-4.542051315307617,-2.0354084968566895,0.4257529675960541,1.8194820880889893,3.8154726028442383,0.22357942163944244,1.900431513786316,-0.2404424101114273,3.0049068927764893
31,39772,39769,0.025794487446546555,0.019959012046456337,0.9999399781227112,-5.695343017578125,0.8843158483505249,0.10735207051038742,1.8193938732147217,3.816478967666626,0.22539258003234863,1.9428128004074097,-0.27555179595947266,3.004196882247925
32,39782,39779,0.018850233405828476,-0.03505357354879379,1.0656089782714844,-4.366069316864014,4.114288806915283,0.8316930532455444,1.8178211450576782,3.8158345222473145,0.22712339460849762,1.7246506214141846,-0.38008594512939453,3.0237622261047363
33,39792,39789,-0.02666221372783184,0.08096920698881149,1.0486568212509155,-3.143291711807251,7.504631996154785,0.586377739906311,1.8193122148513794,3.8158011436462402,0.22901052236557007,1.753609299659729,-0.3785788416862488,3.0189130306243896
34,39802,39799,-0.013231230899691582,0.13936887681484222,0.93658846616745,-1.4998695850372314,8.883339881896973,0.2571302652359009,1.8191322088241577,3.814858913421631,0.23081636428833008,1.6418488025665283,-0.49622195959091187,3.0437264442443848
35,39812,39809,-0.013491527177393436,0.08449755609035492,0.9894656538963318,-0.4311557114124298,8.844513893127441,-0.03644155338406563,1.819543719291687,3.8171725273132324,0.23266145586967468,1.4559873342514038,-0.5165379643440247,3.049290657043457
36,39822,39819,0.024246010929346085,-0.0542529821395874,0.9704663157463074,2.804102897644043,6.790289402008057,-0.08328714221715927,1.8196797370910645,3.8175244331359863,0.23821191489696503,1.5768722295761108,-0.49430930614471436,3.0367236137390137
37,39832,39829,-0.02027384378015995,-0.019487794488668442,1.0500657558441162,3.5852270126342773,3.787180185317993,0.14956514537334442,1.8182635307312012,3.817262887954712,0.2403026521205902,1.5278453826904297,-0.46450358629226685,3.0359323024749756
38,39842,39839,-0.07106731832027435,0.0772818848490715,1.0464556217193604,3.46893310546875,2.3898966312408447,-0.11338154971599579,1.8187048435211182,3.817462682723999,0.24238328635692596,1.4997432231903076,-0.34203457832336426,3.019707679748535
39,39852,39849,-0.05525418370962143,0.17583376169204712,0.9800523519515991,1.483538269996643,1.9704869985580444,-0.08145878463983536,1.8191630840301514,3.8184218406677246,0.24595493078231812,1.5474704504013062,-0.450301855802536,3.0489866733551025
40,39862,39859,0.012775294482707977,0.12319740653038025,0.97953200340271,-0.008978860452771187,2.7858738899230957,-0.4405573606491089,1.8203012943267822,3.8209075927734375,0.24810221791267395,2.1293435096740723,-0.36549660563468933,3.001971483230591
41,39872,39869,0.007385125383734703,0.14181892573833466,1.035024881362915,-0.07737918198108673,3.0235390663146973,-0.23436881601810455,1.8164691925048828,3.8201959133148193,0.2500002980232239,2.1452181339263916,-0.3716992139816284,2.9937829971313477
42,39882,39879,-0.011727379634976387,0.01594560779631138,1.008440613746643,-0.014136788435280323,7.6419501304626465,-0.33308231830596924,1.814766764640808,3.820194721221924,0.25202691555023193,0.8558899164199829,-0.3758338391780853,3.0496816635131836
43,39892,39889,-0.023003017529845238,0.05857180431485176,0.9392969608306885,0.38297557830810547,14.829659461975098,-0.5005196928977966,1.8245950937271118,3.8206660747528076,0.25773194432258606,0.7088404893875122,-0.371757835149765,3.0419960021972656
44,39902,39899,0.0007830953109078109,0.06444013863801956,0.9190469980239868,0.3152095377445221,16.381372451782227,-0.6623981595039368,1.8251363039016724,3.8210110664367676,0.26000210642814636,0.6972161531448364,-0.5086191296577454,3.0516653060913086
45,39912,39909,-0.0012734498595818877,0.04159430414438248,0.9790822267532349,1.228309988975525,9.63463020324707,-0.8396271467208862,1.8239816427230835,3.8234496116638184,0.2626144587993622,0.5304311513900757,-0.47560515999794006,3.040449380874634
46,39922,39919,0.025803599506616592,-0.010304475203156471,0.9423064589500427,2.6251444816589355,1.3846309185028076,-0.6819331049919128,1.8244811296463013,3.8228025436401367,0.2655593156814575,0.4623108208179474,-0.46028199791908264,3.032010316848755
47,39932,39929,0.015119653195142746,-0.07088379561901093,0.9813105463981628,3.995899200439453,-6.946582317352295,-0.36832377314567566,1.8251893520355225,3.824554204940796,0.26793172955513,0.7147921323776245,-0.43775415420532227,3.0144553184509277
48,39942,39939,0.031433846801519394,-0.05280255526304245,0.9293310642242432,6.297064781188965,-12.753202438354492,-0.449021577835083,1.8235979080200195,3.824498414993286,0.2702358365058899,0.8980489373207092,-0.33452969789505005,2.999664068222046
49,39952,39949,0.005446875002235174,-0.004394289571791887,0.941705584526062,6.785059928894043,-13.404789924621582,-0.39675620198249817,1.8217109441757202,3.824617385864258,0.2726130783557892,1.0448317527770996,-0.28599122166633606,2.998471736907959
50,39962,39959,0.03211596980690956,-0.0684824287891388,0.930388867855072,6.463372707366943,-8.913723945617676,-0.7456340789794922,1.820327639579773,3.824963331222534,0.2747759222984314,1.1848130226135254,-0.21577416360378265,2.997063636779785
51,39972,39969,0.13417381048202515,-0.06082059070467949,0.8363529443740845,4.916791915893555,0.08788206428289413,-1.240871548652649,1.8190133571624756,3.8262956142425537,0.2767985165119171,1.2773183584213257,-0.18542663753032684,2.9901185035705566
52,39982,39979,0.07034333795309067,-0.09774671494960785,0.8704473376274109,2.644122362136841,5.844752788543701,-1.5946749448776245,1.8200600147247314,3.828521490097046,0.2787741422653198,1.2105697393417358,-0.179661363363266,2.9823551177978516
53,39992,39989,-0.02380877360701561,-0.07143162190914154,0.9155045747756958,1.3754152059555054,10.197714805603027,-1.238879919052124,1.8196873664855957,3.8303182125091553,0.27864712476730347,1.2068965435028076,-0.1266101896762848,2.9599287509918213
54,40002,39999,-0.0014560265699401498,-0.018555868417024612,0.9264493584632874,0.34528085589408875,13.76242733001709,-1.5566136837005615,1.8184330463409424,3.829896926879883,0.28019291162490845,1.1225652694702148,-0.09249851852655411,2.9425809383392334
55,40012,40009,0.07086549699306488,0.033566638827323914,0.8659741282463074,0.5444051623344421,15.916385650634766,-2.1436517238616943,1.8174880743026733,3.830444097518921,0.28164923191070557,1.042515516281128,-0.07082786411046982,2.919595241546631
56,40022,40019,-0.003579780925065279,0.05806494504213333,0.8979255557060242,0.44923099875450134,14.834405899047852,-2.079641580581665,1.816594123840332,3.830127477645874,0.2826237380504608,0.3859569728374481,-0.26577720046043396,2.932548999786377
57,40032,40029,0.05080578476190567,-0.06138008460402489,0.9375351071357727,-0.23665663599967957,12.810304641723633,-2.16107439994812,1.8223778009414673,3.833604335784912,0.284079372882843,0.7556014657020569,-0.22744755446910858,2.898512601852417
58,40042,40039,0.0342312827706337,-0.048404593020677567,0.9179475903511047,1.3253018856048584,6.842014789581299,-2.2696375846862793,1.818847417831421,3.8337554931640625,0.28563013672828674,0.7802864909172058,-0.2549731135368347,2.8779425621032715
59,40052,40049,0.02399454638361931,-0.03436214476823807,0.8914541006088257,3.883727550506592,3.6047523021698,-2.1271822452545166,1.8173630237579346,3.834524393081665,0.2870430052280426,0.7925260066986084,-0.16949649155139923,2.851271867752075
60,40062,40059,0.014192208647727966,-0.02592509239912033,0.9160743951797485,6.419620990753174,2.402844190597534,-1.7519339323043823,1.8175595998764038,3.836369752883911,0.28798961639404297,0.7662463188171387,-0.1210412010550499,2.8300907611846924
61,40072,40069,0.024475600570440292,-0.012092149816453457,0.942316472530365,9.273958206176758,4.1085896492004395,-1.4519602060317993,1.8168994188308716,3.8353989124298096,0.28889843821525574,0.636661171913147,0.045805394649505615,2.808015823364258
62,40082,40079,-0.04222748428583145,0.09676463156938553,0.8918877840042114,7.361032009124756,8.571393013000488,-1.6146469116210938,1.8185334205627441,3.835965394973755,0.2898821532726288,0.607686460018158,0.060634348541498184,2.791297674179077
63,40092,40089,-0.03554520756006241,0.18186937272548676,0.895870566368103,5.6764912605285645,11.766636848449707,-1.7654427289962769,1.818803071975708,3.838064432144165,0.2906385064125061,0.35348454117774963,0.1917162388563156,2.7710704803466797
64,40102,40099,0.012950911186635494,0.15371495485305786,0.9290564060211182,3.4743199348449707,13.910646438598633,-2.3201959133148193,1.8194767236709595,3.837332010269165,0.29143792390823364,0.5003579258918762,0.2078152745962143,2.749264717102051
65,40112,40109,0.02804218977689743,0.01799808256328106,0.9438337683677673,1.222272276878357,12.864700317382812,-2.448606014251709,1.814886450767517,3.8382034301757812,0.2920030951499939,0.26720482110977173,0.19597049057483673,2.7265989780426025
66,40122,40119,0.011782960034906864,0.01004895381629467,0.974644124507904,-0.011697428300976753,11.820098876953125,-2.1536288261413574,1.8142765760421753,3.8377389907836914,0.292738139629364,0.20977333188056946,0.2310054749250412,2.7047393321990967
67,40132,40129,0.003931851591914892,-0.14337915182113647,0.9677304625511169,-1.4061336517333984,11.973038673400879,-2.3002781867980957,1.8128948211669922,3.8379831314086914,0.29322320222854614,0.07679004967212677,0.09459997713565826,2.6840052604675293
68,40142,40139,-0.003364016069099307,-0.0503135584294796,0.9878786206245422,0.2422216832637787,10.982059478759766,-2.1378870010375977,1.811819314956665,3.8386757373809814,0.29365110397338867,-0.11641182750463486,0.1261747032403946,2.6603641510009766
69,40152,40149,-0.0007845147629268467,0.006311307195574045,0.9904800057411194,2.1514978408813477,10.65854549407959,-1.9142470359802246,1.8128165006637573,3.8385064601898193,0.2927697002887726,-0.14475269615650177,0.2571293115615845,2.643314838409424
70,40162,40159,0.056294795125722885,-0.023173822090029716,0.9216440916061401,4.738960266113281,8.78679084777832,-2.3439834117889404,1.810855507850647,3.8382372856140137,0.29310041666030884,-0.3114643692970276,0.34168070554733276,2.6251423358917236
71,40172,40169,0.09412071108818054,-0.04018983244895935,0.9651056528091431,6.389528274536133,7.001708030700684,-2.1541919708251953,1.8098021745681763,3.8385109901428223,0.2934093475341797,-0.44282519817352295,0.22968539595603943,2.5952231884002686
72,40182,40179,0.09933650493621826,-0.09101562947034836,0.998007595539093,4.865481853485107,6.055991172790527,-2.0235302448272705,1.808741807937622,3.8399951457977295,0.29283809661865234,-0.32330119609832764,0.35147586464881897,2.58365797996521
73,40192,40189,0.0334782637655735,0.01765487901866436,0.9704540371894836,4.057399749755859,5.102258682250977,-2.1490635871887207,1.8054934740066528,3.839376926422119,0.29298168420791626,-0.509700357913971,0.4468630850315094,2.560659170150757
74,40202,40199,-0.02802051231265068,0.06393608450889587,1.017708420753479,3.121349573135376,5.232090950012207,-1.9617936611175537,1.8044527769088745,3.838319778442383,0.2933475971221924,-0.55817049741745,0.48622551560401917,2.540343761444092
75,40212,40209,0.013364948332309723,-0.03874427080154419,0.9656723737716675,1.8510435819625854,5.114260196685791,-1.410452961921692,1.8046613931655884,3.839341163635254,0.2934255301952362,-0.6585730910301208,0.42817434668540955,2.5118651390075684
76,40222,40219,0.04407944530248642,-0.07897329330444336,0.990356981754303,-0.1923423558473587,4.937017440795898,-1.6521737575531006,1.8022879362106323,3.841036558151245,0.29163694381713867,-0.7516074180603027,0.45992451906204224,2.4975435733795166
77,40232,40229,0.014962528832256794,-0.021670693531632423,1.0231890678405762,-1.9765864610671997,4.261926174163818,-1.928605556488037,1.8030864000320435,3.841407299041748,0.2916305959224701,-0.7417039275169373,0.46171051263809204,2.4863791465759277
78,40242,40239,0.013585934415459633,-0.06159015744924545,1.0500768423080444,-1.1063482761383057,2.8616554737091064,-2.057234525680542,1.8009434938430786,3.840505599975586,0.2916092276573181,-0.637752115726471,0.5289072394371033,2.486459255218506
79,40252,40249,0.01440293900668621,-0.000253438571235165,0.9667453169822693,-0.49778008460998535,2.653663158416748,-2.0483851432800293,1.7989486455917358,3.839763879776001,0.29205477237701416,-0.6196465492248535,0.5277328491210938,2.471046209335327
80,40262,40259,0.03117169626057148,0.13102610409259796,0.9655818343162537,1.0992203950881958,3.3348934650421143,-1.860701322555542,1.7971348762512207,3.840406894683838,0.2920796573162079,-0.7777423858642578,0.5491487383842468,2.4429738521575928
81,40272,40269,0.0422733835875988,0.03694891557097435,0.9704678654670715,0.20508795976638794,4.182024002075195,-1.9155751466751099,1.7972198724746704,3.839765787124634,0.2922114431858063,-0.8423909544944763,0.48923078179359436,2.4101052284240723
82,40282,40279,-0.030156485736370087,-0.0018731442978605628,1.0897859334945679,-1.5728930234909058,5.370259761810303,-1.8909941911697388,1.7971584796905518,3.8403472900390625,0.29183486104011536,-0.9045671224594116,0.4785265624523163,2.387525796890259
83,40292,40289,0.024653851985931396,-0.0036641003098338842,1.0321989059448242,-2.434323787689209,5.383575439453125,-1.8770005702972412,1.7977181673049927,3.8401505947113037,0.29188627004623413,-1.1566303968429565,0.4495287239551544,2.353419303894043
84,40302,40299,-0.03576689958572388,0.09410785883665085,1.0496147871017456,-2.4812405109405518,3.327019453048706,-1.8161871433258057,1.7970865964889526,3.8397159576416016,0.2919811010360718,-1.1133373975753784,0.42105811834335327,2.3421778678894043
85,40312,40309,0.02647009678184986,0.004428736865520477,1.008669376373291,-1.7813973426818848,0.4867057204246521,-1.6126652956008911,1.7954076528549194,3.84027099609375,0.29211172461509705,-1.182887077331543,0.39698928594589233,2.3214707374572754
86,40322,40319,-0.004258003085851669,-0.002450787229463458,1.0583587884902954,-0.8268826007843018,-3.791680097579956,-1.4027683734893799,1.7957735061645508,3.840212821960449,0.29396188259124756,-1.0874171257019043,0.38851019740104675,2.313037872314453
87,40332,40329,-0.029185529798269272,-0.0151597298681736,1.0354952812194824,-0.20593054592609406,-5.837738513946533,-1.5406829118728638,1.7947050333023071,3.8401777744293213,0.29428499937057495,-1.0405752658843994,0.3924400806427002,2.297701835632324
88,40342,40339,0.013002883642911911,-0.022452883422374725,0.9506922364234924,0.02529856748878956,-6.09745979309082,-1.593116044998169,1.7948859930038452,3.840266227722168,0.2946358919143677,-0.9912595152854919,0.4004775285720825,2.2827744483947754
89,40352,40349,0.03580383211374283,-0.05282941460609436,1.0102429389953613,0.0013452426064759493,-5.764945030212402,-2.0902416706085205,1.7952022552490234,3.8408360481262207,0.2963699698448181,-0.9912595152854919,0.4004775285720825,2.2648465633392334
90,40362,40359,-0.010606644675135612,-0.03478396311402321,1.0229310989379883,-1.033046007156372,-3.1805498600006104,-2.099151134490967,1.795074462890625,3.8406782150268555,0.29680365324020386,-0.8974193334579468,0.3899213373661041,2.2426774501800537
91,40372,40369,0.0057686404325068,0.03171469643712044,1.06746244430542,-1.8587881326675415,-2.295107364654541,-2.271477460861206,1.795393705368042,3.8406972885131836,0.2972460687160492,-0.8974193334579468,0.3899213373661041,2.2426774501800537
92,40382,40379,0.0062087285332381725,0.0016842016484588385,1.0437910556793213,-2.0756990909576416,5.747447490692139,-2.1618924140930176,1.7953145503997803,3.840693235397339,0.29951509833335876,-0.8934395909309387,0.36309564113616943,2.2178919315338135
93,40392,40389,0.022293224930763245,-0.0052305059507489204,0.9610999226570129,-2.7784082889556885,15.560967445373535,-2.419872999191284,1.7943886518478394,3.840329885482788,0.30013152956962585,-0.8331644535064697,0.40949392318725586,2.2164416313171387
94,40402,40399,0.06738104671239853,-0.1302037537097931,0.9342711567878723,-4.818668842315674,21.234073638916016,-2.3500165939331055,1.7953435182571411,3.841270685195923,0.3008090853691101,-1.0989288091659546,0.2902415990829468,2.161163330078125
95,40412,40409,0.023691052570939064,-0.0348338820040226,1.014120101928711,-4.036884307861328,21.963619232177734,-1.6071045398712158,1.794989824295044,3.840461492538452,0.30142027139663696,-1.3155972957611084,0.37229499220848083,2.166285991668701
96,40422,40419,0.03580305352807045,-0.12981685996055603,1.018078327178955,-3.9195973873138428,19.56060218811035,-2.094148635864258,1.7937331199645996,3.8397092819213867,0.30222541093826294,-1.4000154733657837,0.36983370780944824,2.168311834335327
97,40432,40429,-0.01513739489018917,-0.012379981577396393,1.0508489608764648,-3.703640937805176,16.610061645507812,-1.9434670209884644,1.792547583580017,3.8427670001983643,0.3028755187988281,-1.5384913682937622,0.21409083902835846,2.1286351680755615
98,40442,40439,0.0345660001039505,0.036432113498449326,0.9616732597351074,-2.415083885192871,11.621760368347168,-2.420529842376709,1.793913722038269,3.8433947563171387,0.3034859299659729,-1.85451340675354,0.1501450091600418,2.0961809158325195
99,40452,40449,-0.005171759985387325,0.05891072377562523,1.0209519863128662,-1.4493622779846191,4.9245219230651855,-2.1197853088378906,1.7923368215560913,3.842470169067383,0.3047811985015869,-1.9252206087112427,0.17868919670581818,2.0926222801208496
100,40462,40459,0.015771379694342613,-0.013713035732507706,0.9730035662651062,-1.5642377138137817,-0.45863354206085205,-2.251453399658203,1.7912862300872803,3.8435006141662598,0.30545344948768616,-2.0409326553344727,0.14440828561782837,2.065016269683838
101,40472,40469,0.010018877685070038,0.003559791948646307,0.9976468086242676,-1.7050131559371948,-2.616769552230835,-2.3634097576141357,1.7919000387191772,3.8438289165496826,0.30612149834632874,-2.0554585456848145,0.11547637730836868,2.0395355224609375
102,40482,40479,-0.008190448395907879,0.03241613879799843,1.0053719282150269,-1.9419348239898682,-4.151529312133789,-2.31703519821167,1.7917088270187378,3.8431918621063232,0.3071184754371643,-2.0269126892089844,0.15982042253017426,2.0340826511383057
103,40492,40489,0.018371310085058212,0.030292315408587456,0.9251466393470764,-1.3372688293457031,-3.547891139984131,-2.402602434158325,1.7912038564682007,3.84342885017395,0.3078363537788391,-1.8863784074783325,0.11812017858028412,2.0081987380981445
104,40502,40499,-0.009702504612505436,0.10313273221254349,0.9670919179916382,-2.832509994506836,-1.4279520511627197,-2.1034133434295654,1.7915736436843872,3.843660593032837,0.3084574043750763,-1.9178352355957031,0.08448559045791626,1.9738194942474365
105,40512,40509,0.008056754246354103,0.06203945726156235,0.9703702926635742,-2.5346412658691406,-0.1900266855955124,-2.1194212436676025,1.7922576665878296,3.8453476428985596,0.3086526393890381,-1.8961777687072754,0.03521702438592911,1.9438514709472656
106,40522,40519,0.015889449045062065,-0.020491566509008408,0.9553371667861938,-1.0487197637557983,1.8111512660980225,-1.8603886365890503,1.7928305864334106,3.8465731143951416,0.3091994524002075,-1.9080780744552612,0.04947701469063759,1.9358644485473633
107,40532,40529,-0.0026769565884023905,-0.020818307995796204,0.9663916230201721,-0.007656688801944256,3.241241931915283,-2.2873473167419434,1.7918829917907715,3.8457815647125244,0.3097151517868042,-1.9205974340438843,0.0329718254506588,1.9152820110321045
108,40542,40539,0.004906102549284697,-0.02807028591632843,0.9507054090499878,0.16375252604484558,3.4294397830963135,-1.7025256156921387,1.7927097082138062,3.8464200496673584,0.3102065920829773,-1.965763807296753,0.018543140962719917,1.8914811611175537
109,40552,40549,-0.014160566963255405,0.000741036084946245,0.940881609916687,-0.4449617564678192,3.3136959075927734,-2.5165390968322754,1.7920986413955688,3.84824275970459,0.3115888237953186,-2.0097992420196533,-0.06450153142213821,1.8441797494888306
110,40562,40559,-0.0030930449720472097,0.017260881140828133,0.9443275928497314,-0.47791942954063416,1.5389739274978638,-2.4306061267852783,1.7916209697723389,3.8472177982330322,0.31204092502593994,-2.039911985397339,-0.00245130923576653,1.844515323638916
111,40572,40569,0.011713511310517788,0.004799731075763702,0.9888331890106201,-0.37422963976860046,-0.01916162669658661,-2.6203792095184326,1.7920604944229126,3.848024606704712,0.312477171421051,-2.0563695430755615,-0.007150260731577873,1.8209526538848877
112,40582,40579,-0.00018427094619255513,0.023386945948004723,1.0000840425491333,-1.2233816385269165,-1.2298425436019897,-2.7462637424468994,1.791361927986145,3.8478634357452393,0.3118337094783783,-2.02639102935791,-0.020009854808449745,1.7941343784332275
113,40592,40589,0.06124592572450638,-0.024960998445749283,0.9440886974334717,-2.249145269393921,-2.777987480163574,-2.8404622077941895,1.7925395965576172,3.8473494052886963,0.3121086657047272,-2.0529587268829346,-0.041478972882032394,1.7618849277496338
114,40602,40599,0.03851039335131645,-0.02820587530732155,1.0056040287017822,-2.534184455871582,-6.5266618728637695,-2.9742679595947266,1.7928603887557983,3.8475167751312256,0.3123222887516022,-2.143172264099121,-0.0803908184170723,1.7267752885818481
115,40612,40609,0.026733463630080223,-0.044570814818143845,0.9655105471611023,-2.828052043914795,-7.5976481437683105,-2.3297226428985596,1.7918689250946045,3.847630023956299,0.31498923897743225,-2.009225368499756,-0.12678809463977814,1.6914145946502686
116,40622,40619,0.022950107231736183,-0.06358218193054199,0.9462767839431763,-1.7587162256240845,-9.55485725402832,-2.621999979019165,1.792263150215149,3.848755359649658,0.3153643012046814,-1.8323768377304077,-0.11315800249576569,1.6798080205917358
117,40632,40629,-0.016803229227662086,-0.024001486599445343,0.9805145859718323,-0.970564067363739,-7.825414180755615,-2.7549479007720947,1.791723370552063,3.8480865955352783,0.3157530426979065,-1.7424370050430298,-0.13702386617660522,1.655245065689087
118,40642,40639,0.014819328673183918,-0.023002928122878075,0.9510157704353333,0.23767083883285522,-5.191684722900391,-3.1156203746795654,1.7920000553131104,3.848970890045166,0.3160672187805176,-1.7315069437026978,-0.16041378676891327,1.6256599426269531
119,40652,40649,-0.0053356606513261795,0.12373895198106766,0.9751383066177368,1.9131488800048828,-0.6425790190696716,-2.5501699447631836,1.7931841611862183,3.8489863872528076,0.3162410259246826,-1.6703064441680908,-0.16255837678909302,1.5966371297836304
120,40662,40659,-0.03448209911584854,0.09639693051576614,1.0194557905197144,3.4925756454467773,2.376133680343628,-3.2283573150634766,1.7928259372711182,3.847994565963745,0.3165037930011749,-1.596914291381836,-0.059568971395492554,1.5958664417266846
121,40672,40669,0.005028858780860901,-0.010271056555211544,0.970328688621521,4.725362300872803,4.61637544631958,-3.7453181743621826,1.7939420938491821,3.847916841506958,0.3167054057121277,-1.6431224346160889,-0.06799713522195816,1.5568565130233765
122,40682,40679,0.006764883175492287,-0.03877922147512436,0.9504156708717346,3.8935084342956543,5.209320545196533,-3.8095040321350098,1.7937239408493042,3.8482463359832764,0.3179364502429962,-1.7393451929092407,-0.005688481032848358,1.5275033712387085
123,40692,40689,-0.01883094199001789,-0.01936344802379608,0.977780818939209,2.160088300704956,4.531466007232666,-3.8395352363586426,1.7956253290176392,3.847984790802002,0.3181711435317993,-1.7934774160385132,0.03639786317944527,1.4891464710235596
124,40702,40699,-0.03033379092812538,0.07168511301279068,0.9450432658195496,1.2093652486801147,2.0526440143585205,-4.251558303833008,1.796636700630188,3.8479161262512207,0.3184076249599457,-1.771868109703064,-0.07436631619930267,1.410844087600708
125,40712,40709,0.004948906134814024,0.024376697838306427,0.9454219937324524,-0.40392830967903137,-2.57889986038208,-4.143672943115234,1.7973201274871826,3.8494975566864014,0.31608736515045166,-1.8776772022247314,-0.054086193442344666,1.3697437047958374
126,40722,40719,-0.012581131421029568,-0.0030058983247727156,0.9852745532989502,-0.534430742263794,-7.480057239532471,-4.088038444519043,1.7987035512924194,3.8495640754699707,0.3160076141357422,-2.0475311279296875,-0.05407658591866493,1.3321142196655273
127,40732,40729,-0.0022431148681789637,-0.011383791454136372,1.0059778690338135,0.2064981460571289,-11.841835975646973,-4.093524932861328,1.800329566001892,3.849137783050537,0.315783828496933,-1.9052833318710327,-0.0550396665930748,1.2905248403549194
128,40742,40739,-0.03154032304883003,0.04636335000395775,1.058652639389038,1.8093558549880981,-14.371298789978027,-4.552410125732422,1.8008877038955688,3.850196599960327,0.3148851990699768,-1.6334640979766846,-0.03876756504178047,1.248827338218689
129,40752,40749,0.019404644146561623,-0.047607433050870895,0.9455077648162842,2.4696898460388184,-15.324978828430176,-4.576261520385742,1.7998876571655273,3.8500406742095947,0.31491896510124207,-1.630238652229309,0.07021301239728928,1.2325111627578735
130,40762,40759,-0.05348198860883713,-0.05494547262787819,1.0249837636947632,2.654745578765869,-12.509631156921387,-4.191101551055908,1.801966667175293,3.8491337299346924,0.3147275447845459,-1.3215571641921997,0.10248978435993195,1.1840447187423706
131,40772,40769,-0.06317079812288284,-0.026148896664381027,1.01200270652771,1.1322637796401978,-8.005270957946777,-3.8531174659729004,1.8010836839675903,3.8489246368408203,0.31475263833999634,-1.3488833904266357,-0.09199536591768265,1.0898606777191162
132,40782,40779,0.05253235250711441,-0.07726457715034485,0.9785798788070679,-1.1856396198272705,-0.10380195081233978,-3.686581611633301,1.8031710386276245,3.8510901927948,0.3167629837989807,-1.2292050123214722,0.007807619404047728,1.0682824850082397
133,40792,40789,0.0903073400259018,-0.0965486541390419,1.000778079032898,-0.4331146478652954,2.2843940258026123,-2.705348014831543,1.8041515350341797,3.8498919010162354,0.3168375790119171,-1.2101516723632812,-0.0020529720932245255,1.028869390487671
134,40802,40799,0.04844143986701965,-0.16227658092975616,0.9986231327056885,0.30855104327201843,3.1184983253479004,-2.945183277130127,1.8042927980422974,3.8505985736846924,0.31683820486068726,-1.2230573892593384,-0.003490166272968054,1.0038104057312012
135,40812,40809,0.0723235011100769,-0.15047256648540497,0.9757963418960571,1.2349622249603271,1.43427312374115,-2.924285411834717,1.805397391319275,3.8506040573120117,0.3188365399837494,-1.2441437244415283,0.008392876945436,0.9801353216171265
136,40822,40819,0.02584167756140232,-0.020665673539042473,0.9592782258987427,1.0490690469741821,-0.8300372958183289,-1.9446239471435547,1.8064956665039062,3.8514535427093506,0.3189735412597656,-1.2635821104049683,0.015855582430958748,0.9522380232810974
137,40832,40829,0.025785448029637337,-0.006378327030688524,0.959391713142395,1.5714752674102783,-6.8418402671813965,-1.5901113748550415,1.8064268827438354,3.8521289825439453,0.3191031515598297,-1.1650385856628418,0.04944075271487236,0.9298349022865295
138,40842,40839,-0.03336549922823906,-0.03211250901222229,1.040810227394104,-0.05757974460721016,-10.42214298248291,-1.0354993343353271,1.8061727285385132,3.8515100479125977,0.31980711221694946,-1.1026086807250977,0.0655590370297432,0.9142237305641174
139,40852,40849,-0.008857861161231995,-0.03546707332134247,1.0311697721481323,-0.59772127866745,-8.902325630187988,-0.3039606213569641,1.8063411712646484,3.8516783714294434,0.3199136555194855,-1.2217596769332886,0.06721001118421555,0.9032588601112366
140,40862,40859,-0.04861990734934807,0.048902370035648346,1.0790927410125732,-0.9198393821716309,-9.288657188415527,-0.2630873918533325,1.8098012208938599,3.851879596710205,0.31989139318466187,-0.9629601240158081,0.06086355075240135,0.8932626843452454
141,40872,40869,-0.012847041711211205,-0.014488657005131245,1.0000969171524048,-0.5422328114509583,-9.332535743713379,0.5944861173629761,1.8091953992843628,3.8529765605926514,0.32033097743988037,-0.9302278757095337,0.049204494804143906,0.8895517587661743
142,40882,40879,-0.05824540555477142,0.01939132995903492,0.9720878601074219,-0.7197479009628296,-8.722922325134277,1.243435025215149,1.8109217882156372,3.8545596599578857,0.3193418085575104,-0.7526862621307373,0.041052114218473434,0.891016960144043
143,40892,40889,-0.033672936260700226,0.018642039969563484,0.9812204241752625,-1.8392219543457031,-6.2988080978393555,1.4122587442398071,1.8111549615859985,3.855379819869995,0.3195735514163971,-0.6687922477722168,0.02736658975481987,0.9006491899490356
144,40902,40899,0.012060032226145267,-0.09060367941856384,0.9920200109481812,-2.4267964363098145,-4.767326831817627,1.741502285003662,1.812179446220398,3.8553905487060547,0.3197055160999298,-0.6023140549659729,0.012744664214551449,0.9133865237236023
145,40912,40909,-0.020639857277274132,-0.01577972061932087,1.0401302576065063,-2.894986391067505,-1.94627046585083,1.570670485496521,1.8140860795974731,3.855555295944214,0.3209073841571808,-0.6779484748840332,-0.037184372544288635,0.9309400916099548
146,40922,40919,0.026013094931840897,-0.04016133025288582,0.9658567309379578,-4.178695201873779,-5.415851593017578,2.1993682384490967,1.8155919313430786,3.8566973209381104,0.3210703134536743,-0.5809526443481445,-0.08675213158130646,0.9502461552619934
147,40932,40929,0.011247402057051659,-0.1393098086118698,1.0007482767105103,-4.801498889923096,-3.0324819087982178,1.5627107620239258,1.8159819841384888,3.857759952545166,0.32133617997169495,-0.41397854685783386,-0.14666666090488434,0.9803234338760376
148,40942,40939,0.034677475690841675,-0.09373652935028076,0.8764758706092834,-3.246497631072998,-4.133855819702148,1.8602421283721924,1.8147395849227905,3.8589065074920654,0.3201499283313751,-0.3986535668373108,-0.13136719167232513,1.0049872398376465
149,40952,40949,0.007277098949998617,-0.005040484480559826,0.9516176581382751,-1.0362880229949951,-7.457788467407227,2.1859588623046875,1.8155337572097778,3.858386516571045,0.32019537687301636,-0.35665076971054077,-0.16800449788570404,1.0229450464248657
150,40962,40959,-0.006045108661055565,0.013514204882085323,0.9986331462860107,-1.3298414945602417,-7.838240146636963,2.6139345169067383,1.8159295320510864,3.8581979274749756,0.3201752007007599,-0.283532053232193,-0.1828727126121521,1.0450942516326904
151,40972,40969,0.011518286541104317,-0.028451791033148766,0.9808275103569031,0.47743022441864014,-7.52259635925293,2.6018214225769043,1.8174116611480713,3.8593993186950684,0.32012414932250977,-0.2770642638206482,-0.18370358645915985,1.0725364685058594
152,40982,40979,-0.00849898997694254,-0.03447091206908226,1.0193369388580322,1.3092716932296753,-5.6190876960754395,2.5686326026916504,1.8194472789764404,3.8606789112091064,0.32133811712265015,-0.2055935561656952,-0.16947722434997559,1.0990118980407715
153,40992,40989,0.0004988833679817617,-0.027923591434955597,0.9855619668960571,3.243577480316162,-3.4560065269470215,2.4998464584350586,1.820587396621704,3.8605868816375732,0.3213406503200531,-0.24477317929267883,-0.06079583242535591,1.12990140914917
154,41002,40999,-0.0496455542743206,0.058379609137773514,1.0132275819778442,4.559935092926025,-2.7966856956481934,2.537013053894043,1.8234840631484985,3.860024929046631,0.3213084936141968,-0.07447556406259537,-0.007193129509687424,1.1514856815338135
155,41012,41009,-0.050429001450538635,0.13976991176605225,0.9895321130752563,3.4082107543945312,-2.3614537715911865,2.1077170372009277,1.8228442668914795,3.858898401260376,0.3172476291656494,0.004048340022563934,-0.095561183989048,1.1801116466522217
156,41022,41019,-0.0246554147452116,0.21887090802192688,1.0109691619873047,1.9333947896957397,-2.750697612762451,1.5898398160934448,1.8236267566680908,3.8600804805755615,0.3171337842941284,0.07231129705905914,-0.03951291739940643,1.2002389430999756
157,41032,41029,0.019889110699295998,0.17521917819976807,1.021468162536621,1.3724907636642456,-3.9732487201690674,1.094114065170288,1.825037956237793,3.8600316047668457,0.3169730603694916,0.07045242935419083,-0.002304794965311885,1.2174946069717407
158,41042,41039,0.0074784052558243275,0.02389807254076004,1.0049364566802979,1.1868987083435059,-4.6664509773254395,0.004388485103845596,1.826681137084961,3.859874963760376,0.31820011138916016,0.08667311072349548,0.023163774982094765,1.2293998003005981
159,41052,41049,-0.036761872470378876,0.0003004416648764163,0.9976842999458313,1.1835048198699951,-5.8631272315979,-0.768335223197937,1.8275177478790283,3.8598580360412598,0.3180605471134186,0.1201896145939827,-0.028874065726995468,1.237319827079773
160,41062,41059,-0.0746062695980072,0.025695208460092545,0.9660931825637817,-0.6609244346618652,-3.7628092765808105,-1.38670814037323,1.8295122385025024,3.8608925342559814,0.31798064708709717,0.3014359474182129,-0.012605613097548485,1.2267800569534302
161,41072,41069,-0.022387506440281868,-0.04624377563595772,1.033742070198059,0.0820343866944313,-2.3189356327056885,-0.5251195430755615,1.8281248807907104,3.861191511154175,0.31632736325263977,0.2986634373664856,-0.004172602668404579,1.2119712829589844
162,41082,41079,0.08951527625322342,-0.1841636598110199,0.9815007448196411,1.2914983034133911,0.09495072066783905,-0.8395408391952515,1.82969069480896,3.8616628646850586,0.3161108195781708,0.26686206459999084,0.008982683531939983,1.2126680612564087
163,41092,41089,0.016887685284018517,-0.07095300406217575,1.0819530487060547,1.0622732639312744,2.754923105239868,-0.920894205570221,1.8306869268417358,3.8614048957824707,0.3158976435661316,0.2012779712677002,0.03146163001656532,1.1987444162368774
164,41102,41099,-0.015660647302865982,-0.05559231713414192,1.0377260446548462,2.067737102508545,4.700550556182861,-0.7633311748504639,1.8327958583831787,3.8607189655303955,0.3156680762767792,0.2601199746131897,0.05988822132349014,1.1881861686706543
165,41112,41109,-0.008899316191673279,-0.028807267546653748,1.023147702217102,1.9508856534957886,5.604923725128174,-0.7076542973518372,1.8328884840011597,3.860454797744751,0.3143603503704071,0.28377366065979004,0.019664566963911057,1.1881062984466553
166,41122,41119,0.015545017085969448,0.001866570208221674,1.0154657363891602,1.4814566373825073,4.294924736022949,-0.6189041137695312,1.8326228857040405,3.860921859741211,0.3142724335193634,0.1410527527332306,0.055736325681209564,1.1792731285095215
167,41132,41129,0.03381255269050598,-0.05072567239403725,0.955702543258667,0.6931928396224976,3.6358726024627686,-0.18604998290538788,1.8346478939056396,3.8613758087158203,0.3140675723552704,0.17096443474292755,0.08339039981365204,1.171441912651062
168,41142,41139,0.05113489180803299,-0.17934827506542206,0.9661349058151245,1.2921780347824097,2.54018235206604,0.09819094836711884,1.8349217176437378,3.8611857891082764,0.31014159321784973,0.12988322973251343,0.0926726832985878,1.1618794202804565
169,41152,41149,0.028898756951093674,-0.12352409213781357,1.0141948461532593,2.7092819213867188,0.23333407938480377,0.22170670330524445,1.834963321685791,3.860726833343506,0.30975788831710815,0.11277870088815689,0.1409730762243271,1.157828688621521
170,41162,41159,0.021125592291355133,-0.022411348298192024,1.0387015342712402,1.562811017036438,1.9868416786193848,0.28986868262290955,1.8374342918395996,3.860231637954712,0.3093627393245697,0.11314167827367783,0.10280732065439224,1.1684173345565796
171,41172,41169,0.015463328920304775,-0.01483209803700447,0.9667870998382568,0.9488469362258911,2.135627508163452,0.07029346376657486,1.8384085893630981,3.861149549484253,0.31065768003463745,0.09887216240167618,0.13239695131778717,1.1693367958068848
172,41182,41179,0.03749385476112366,0.06053421273827553,0.9463129639625549,-0.14182975888252258,3.0666472911834717,-0.058078061789274216,1.8391878604888916,3.861602306365967,0.3103545606136322,0.2237633466720581,0.1479659080505371,1.1761951446533203
173,41192,41189,0.06342021375894547,0.10298982262611389,0.9930297136306763,-2.428103446960449,1.6511024236679077,-0.2655893862247467,1.8385189771652222,3.8614814281463623,0.3101317882537842,0.1773999035358429,0.14043118059635162,1.168656587600708
174,41202,41199,0.021776733919978142,0.018840810284018517,1.0196515321731567,-3.0924415588378906,2.060556650161743,-0.5204082727432251,1.839398980140686,3.861521005630493,0.30977895855903625,0.13230012357234955,0.10444647818803787,1.1693695783615112
175,41212,41209,-0.03237169608473778,0.05321604013442993,1.0180301666259766,-2.2530136108398438,3.2364299297332764,-0.5159100294113159,1.8413417339324951,3.8623411655426025,0.3081250786781311,0.16711066663265228,0.06750398129224777,1.1769803762435913
176,41222,41219,-0.0763113871216774,0.14074085652828217,1.0509746074676514,-1.565144658088684,5.2349677085876465,0.20123112201690674,1.840464472770691,3.8628735542297363,0.3077748715877533,0.13522545993328094,0.04488154873251915,1.169472336769104
177,41232,41229,-0.02846038155257702,0.055962130427360535,1.018032193183899,-0.2924056053161621,5.590545177459717,0.3707926869392395,1.8431799411773682,3.863474130630493,0.3073679506778717,0.02020716480910778,0.032200854271650314,1.1785998344421387
178,41242,41239,-0.04852543771266937,0.037579137831926346,1.1145508289337158,-0.2188829779624939,6.09895658493042,-0.47711989283561707,1.8440134525299072,3.8643767833709717,0.30776500701904297,-0.14133404195308685,0.03228263929486275,1.1819560527801514
179,41252,41249,0.038366738706827164,-0.09267459809780121,0.9964480996131897,1.7472734451293945,4.785254955291748,0.06262559443712234,1.8469444513320923,3.8643431663513184,0.30745309591293335,-0.1478041708469391,-0.026677003130316734,1.1852431297302246
180,41262,41259,0.009800278581678867,-0.06839216500520706,0.9651453495025635,2.9950127601623535,3.6483657360076904,-0.24310913681983948,1.8473789691925049,3.8645360469818115,0.3073405921459198,-0.1263219714164734,0.020570872351527214,1.1734066009521484
181,41272,41269,0.03714464232325554,-0.07356463372707367,0.9096377491950989,2.4066262245178223,2.1238279342651367,-0.10162004828453064,1.8479540348052979,3.865091323852539,0.3071575164794922,-0.16815364360809326,0.046137940138578415,1.1781699657440186
182,41282,41279,0.07360400259494781,-0.070456862449646,1.0096219778060913,2.307257890701294,-3.5449838638305664,-0.16686725616455078,1.8497741222381592,3.86649227142334,0.30688175559043884,-0.15886236727237701,0.05209445208311081,1.1922353506088257
183,41292,41289,0.010681409388780594,-0.09527236968278885,1.0252227783203125,0.7132145166397095,-4.5838704109191895,-0.5200619101524353,1.850272297859192,3.866809129714966,0.3067203164100647,-0.33439916372299194,0.012119924649596214,1.19755220413208
184,41302,41299,-0.007938834838569164,0.0860198512673378,1.0421348810195923,1.1090022325515747,-4.795932292938232,-0.0944400429725647,1.854230284690857,3.8676159381866455,0.30635616183280945,-0.1638803631067276,0.04830515384674072,1.1846024990081787
185,41312,41309,-0.040729399770498276,0.1852124184370041,1.0443042516708374,1.7697606086730957,-4.268251895904541,-0.3279796540737152,1.8539347648620605,3.867932081222534,0.30755725502967834,-0.10785017907619476,0.06245618686079979,1.1737197637557983
186,41322,41319,0.023068776354193687,0.13742147386074066,0.967437207698822,0.9220872521400452,-1.824999213218689,-0.08051861822605133,1.8539663553237915,3.867940664291382,0.30756431818008423,-0.09474407136440277,0.12124686688184738,1.172759771347046
187,41332,41329,-0.01628805883228779,0.05288497358560562,1.069952130317688,-0.01890503242611885,1.2550790309906006,-0.5238692164421082,1.85615873336792,3.868025302886963,0.30742204189300537,-0.07941132038831711,0.13122236728668213,1.181433916091919
188,41342,41339,0.034391097724437714,-0.05009257793426514,0.9783956408500671,-0.128536194562912,3.9768457412719727,-0.4242568016052246,1.8584061861038208,3.8704633712768555,0.3075527250766754,-0.08158458024263382,0.06839878857135773,1.1871769428253174
189,41352,41349,-0.031442951411008835,-0.025266673415899277,1.0641064643859863,0.4618983268737793,3.9651241302490234,-0.5589576363563538,1.8599193096160889,3.870513916015625,0.3075192868709564,-0.13789066672325134,0.08535704761743546,1.1808466911315918
190,41362,41359,0.020626528188586235,-0.04492373764514923,0.9866116046905518,0.012536217458546162,6.628071308135986,-0.8504071235656738,1.8610155582427979,3.870349884033203,0.30750545859336853,-0.1499546617269516,0.12020888179540634,1.1583479642868042
191,41372,41369,-0.009516133926808834,-0.017845600843429565,1.035650610923767,0.7626625299453735,6.140084266662598,-0.7403885126113892,1.8617770671844482,3.8701162338256836,0.3091270625591278,-0.21559783816337585,0.12208686023950577,1.156855821609497
192,41382,41379,0.04536004364490509,-0.053016409277915955,1.0159344673156738,0.6922709941864014,4.662522792816162,-0.616244375705719,1.863793969154358,3.8698155879974365,0.30918994545936584,-0.3835069537162781,0.14723725616931915,1.1472007036209106
193,41392,41389,0.03957519680261612,-0.0158760417252779,0.9620421528816223,0.7572091221809387,0.9737521409988403,-0.8085119724273682,1.8638372421264648,3.86989688873291,0.3093487620353699,-0.4345189929008484,0.16918350756168365,1.1396816968917847
194,41402,41399,0.00905559305101633,-0.028255637735128403,0.9750266671180725,0.9070855379104614,-6.847585201263428,-0.003532631788402796,1.8648674488067627,3.870439291000366,0.3086869716644287,-0.4222241938114166,0.18998120725154877,1.1376776695251465
195,41412,41409,0.01252827886492014,-0.10759782046079636,0.9773754477500916,0.16029495000839233,-5.60408353805542,-1.4121328592300415,1.8658772706985474,3.870600461959839,0.30874818563461304,-0.3603396713733673,0.2101273536682129,1.1326799392700195
196,41422,41419,0.029698919504880905,-0.04632551223039627,0.9654793739318848,-0.8055335879325867,-10.153929710388184,-1.199141502380371,1.8653827905654907,3.8700172901153564,0.3087996244430542,-0.2884630858898163,0.21192105114459991,1.1214957237243652
197,41432,41429,0.014092350378632545,-0.001513851573690772,1.005256175994873,-3.2838311195373535,-9.194134712219238,-1.4831323623657227,1.8669379949569702,3.8708295822143555,0.30882886052131653,-0.17236509919166565,0.20120318233966827,1.1176480054855347
198,41442,41439,-0.013657193630933762,-0.037365905940532684,0.9821999073028564,-4.421198844909668,-5.794159889221191,-1.3915486335754395,1.8656259775161743,3.87123966217041,0.30587872862815857,0.08051100373268127,0.15256769955158234,1.1065113544464111
199,41452,41449,0.00244183954782784,0.01035096775740385,1.0261471271514893,-2.549110174179077,-0.6257491707801819,-0.9966022372245789,1.868090033531189,3.870485305786133,0.3056185841560364,-0.02309594862163067,0.14378990232944489,1.0894526243209839
200,41462,41459,0.020448802039027214,-0.006147671956568956,1.0046321153640747,-1.8917701244354248,4.463018894195557,-0.7779959440231323,1.8681926727294922,3.8706841468811035,0.305495947599411,0.05944358557462692,0.10248836874961853,1.0709657669067383
201,41472,41469,-0.013061809353530407,0.021910496056079865,1.0190361738204956,-1.0569981336593628,7.635420799255371,-0.6460690498352051,1.8684570789337158,3.8709235191345215,0.30838990211486816,0.024410143494606018,0.08098101615905762,1.072860836982727
202,41482,41479,0.024024829268455505,-0.10997196286916733,1.034644603729248,-0.4975527226924896,8.767123222351074,-0.17676617205142975,1.8705755472183228,3.8705527782440186,0.30842018127441406,-0.19985003769397736,0.0701383501291275,1.058097004890442
203,41492,41489,0.009355869144201279,-0.05673518776893616,1.0675406455993652,1.8012174367904663,8.750890731811523,-0.6347166895866394,1.8723762035369873,3.8713483810424805,0.30837246775627136,-0.2842341363430023,0.06452690809965134,1.0554431676864624
204,41502,41499,0.03599075973033905,-0.01227485854178667,0.9635990858078003,4.062072277069092,6.6024580001831055,-0.6118748784065247,1.8738181591033936,3.871943473815918,0.31202834844589233,-0.3316862881183624,0.020832665264606476,1.0472722053527832
205,41512,41509,-0.017839252948760986,0.07765448093414307,1.06059992313385,5.4709649085998535,-1.327701210975647,-0.03627333045005798,1.8752083778381348,3.8718791007995605,0.3123342990875244,-0.4173424541950226,0.09543237835168839,1.029663324356079
206,41522,41519,-0.014489157125353813,-0.12800092995166779,1.0132026672363281,3.462329864501953,-7.240123271942139,0.2788000702857971,1.8755522966384888,3.871776580810547,0.3128008544445038,-0.2994379699230194,0.18825890123844147,1.0386886596679688
207,41532,41529,-0.04277155548334122,-0.03655913844704628,1.070163369178772,-1.979901909828186,-9.38886833190918,0.6226336359977722,1.8774842023849487,3.872631072998047,0.31311923265457153,-0.3231297731399536,0.09288253635168076,1.0447344779968262
208,41542,41539,-0.017589984461665154,-0.018731944262981415,0.9973990321159363,-6.093819618225098,-11.391016960144043,1.7639261484146118,1.8767350912094116,3.8731212615966797,0.31427034735679626,-0.14287863671779633,0.072483591735363,1.0520708560943604
209,41552,41549,-0.024585317820310593,0.06708968430757523,1.0062464475631714,-7.1626667976379395,-13.939702987670898,2.6426312923431396,1.8756797313690186,3.8727736473083496,0.3148859441280365,0.14027661085128784,0.06350155174732208,1.0709431171417236
210,41562,41559,0.02505149319767952,0.011199948377907276,0.9654756784439087,-6.4257707595825195,-12.083414077758789,3.474268913269043,1.8779935836791992,3.8732738494873047,0.31533217430114746,0.06934306770563126,-0.040810879319906235,1.0976200103759766
211,41572,41569,-0.001651401398703456,-0.03728990629315376,1.0036201477050781,-4.866265773773193,-6.2049994468688965,3.53006649017334,1.8791594505310059,3.8732523918151855,0.31510770320892334,0.2298324704170227,-0.06665157526731491,1.1432019472122192
212,41582,41579,-0.0004820881295017898,-0.1516546756029129,0.9637383818626404,-1.2134510278701782,-0.1233774945139885,3.9385247230529785,1.879642367362976,3.8735311031341553,0.3155704736709595,0.35147160291671753,-0.13526050746440887,1.1864817142486572
213,41592,41589,-0.01066699717193842,-0.12908035516738892,0.988002598285675,2.801328182220459,4.989711284637451,4.294020652770996,1.8817088603973389,3.8744468688964844,0.31592482328414917,0.21267582476139069,-0.14394782483577728,1.22880220413208
214,41602,41599,0.011008474044501781,-0.0589832067489624,0.9567282199859619,5.919553279876709,3.5620298385620117,4.355419158935547,1.8827897310256958,3.874366044998169,0.3154856264591217,0.15177369117736816,-0.07793707400560379,1.275075078010559
215,41612,41609,-0.04105608910322189,-0.06110326945781708,0.9601311087608337,4.968438625335693,1.6431927680969238,4.47613000869751,1.8838880062103271,3.8749656677246094,0.31577184796333313,0.11286278814077377,-0.047807302325963974,1.3069026470184326
216,41622,41619,0.008903567679226398,-0.04712703451514244,0.9783644080162048,2.924751043319702,0.22590529918670654,4.635641574859619,1.8854820728302002,3.874224901199341,0.31596434116363525,0.03329741209745407,0.04343511909246445,1.358185052871704
217,41632,41629,0.06187257170677185,-0.08938095718622208,0.9554469585418701,1.3976850509643555,-6.687266826629639,4.651016712188721,1.8853341341018677,3.875373363494873,0.31633418798446655,0.14960801601409912,0.021654753014445305,1.4133347272872925
218,41642,41639,0.010537510737776756,0.05949825420975685,1.0180801153182983,1.2036179304122925,-11.132122993469238,5.178684711456299,1.886551856994629,3.875847578048706,0.3143724203109741,0.2857305407524109,0.05599863827228546,1.4701368808746338
219,41652,41649,-0.0023428357671946287,0.05192301794886589,1.0096118450164795,1.9623523950576782,-11.915910720825195,5.369366645812988,1.8888165950775146,3.8750414848327637,0.3143633306026459,0.2581532597541809,0.08381344377994537,1.5041717290878296
220,41662,41659,0.0014736615121364594,0.008976634591817856,0.9938057065010071,1.9419912099838257,-11.748170852661133,6.018312454223633,1.8887282609939575,3.8748881816864014,0.314527690410614,0.4912443459033966,0.12470858544111252,1.5553399324417114
221,41672,41669,-0.001370726735331118,-0.024044757708907127,0.9815403819084167,2.7914323806762695,-11.101195335388184,6.554617404937744,1.8921266794204712,3.8750035762786865,0.3139859437942505,0.4090953469276428,0.16484710574150085,1.6155699491500854
222,41682,41679,-0.007529003079980612,0.05848471447825432,0.9886898398399353,2.05137038230896,-10.843866348266602,6.3401384353637695,1.8910757303237915,3.8754940032958984,0.31417205929756165,0.7164197564125061,0.13906843960285187,1.6837149858474731
223,41692,41689,0.0009314829367212951,0.063419871032238,0.9966661930084229,4.282177925109863,-7.58554220199585,7.158335208892822,1.8914357423782349,3.8752126693725586,0.3142886757850647,0.9111215472221375,0.18491356074810028,1.744627833366394
224,41702,41699,0.059679754078388214,0.024409469217061996,0.9677794575691223,6.7822585105896,-1.2251445055007935,7.123730182647705,1.893753170967102,3.8760886192321777,0.315258651971817,0.884996771812439,0.18552228808403015,1.8232271671295166
225,41712,41709,0.13250848650932312,-0.09807456284761429,0.9496153593063354,8.410994529724121,1.5912457704544067,8.821572303771973,1.8945057392120361,3.8755836486816406,0.3153691589832306,0.9201739430427551,0.3029586672782898,1.8881499767303467
226,41722,41719,0.07272851467132568,-0.20693530142307281,0.9812586903572083,9.760127067565918,4.939569473266602,10.876202583312988,1.8961483240127563,3.8754477500915527,0.3153599202632904,0.8269885778427124,0.36931437253952026,1.977108120918274
227,41732,41729,-0.06170248985290527,-0.127836212515831,1.094391107559204,7.074996471405029,10.516374588012695,11.157343864440918,1.8973149061203003,3.8770062923431396,0.3162515461444855,0.7565068602561951,0.38040691614151,2.092493772506714
228,41742,41739,-0.03960055485367775,-0.09986795485019684,1.0656406879425049,2.3106353282928467,19.81329917907715,10.849021911621094,1.897283673286438,3.8760247230529785,0.3163923919200897,0.6642508506774902,0.5074121952056885,2.1965153217315674
229,41752,41749,-0.008947930298745632,0.012195786461234093,1.0349702835083008,-1.4691928625106812,24.19586944580078,9.527815818786621,1.8981181383132935,3.876492500305176,0.3165285587310791,0.4241493344306946,0.4733821451663971,2.313488483428955
230,41762,41759,0.09023908525705338,-0.10572649538516998,0.9816672205924988,-6.748152732849121,24.18454360961914,8.257109642028809,1.8977465629577637,3.876493453979492,0.3168211877346039,0.2701509892940521,0.4530693590641022,2.4125359058380127
231,41772,41769,0.04045485332608223,-0.0634680837392807,0.9860962629318237,-8.550052642822266,18.936254501342773,8.402252197265625,1.8998991250991821,3.8770360946655273,0.3173866271972656,-0.04652921482920647,0.3467960059642792,2.4886891841888428
232,41782,41779,0.014969028532505035,-0.01802990585565567,0.9697977304458618,-10.19571590423584,12.017369270324707,8.876158714294434,1.9003666639328003,3.8770477771759033,0.31764641404151917,-0.1961088925600052,0.20890992879867554,2.566739320755005
233,41792,41789,-0.013342726044356823,0.006484148558229208,0.9935842156410217,-5.633317947387695,3.2813892364501953,9.333609580993652,1.901103138923645,3.877256155014038,0.31784242391586304,-0.3053741157054901,0.05375372990965843,2.662473201751709
234,41802,41799,0.018618490546941757,-0.0333268940448761,0.929593563079834,0.6722534894943237,-1.8058446645736694,9.464189529418945,1.9016274213790894,3.87727427482605,0.31642764806747437,-0.2725134789943695,-0.014773831702768803,2.761909246444702
235,41812,41809,-0.05054786056280136,0.09993181377649307,0.960497260093689,13.588887214660645,-11.212935447692871,8.588255882263184,1.9001657962799072,3.877660036087036,0.31661683320999146,-0.14610655605793,0.03730078041553497,2.861751079559326
236,41822,41819,-0.041076406836509705,0.04235118255019188,0.9124481678009033,18.11151123046875,-10.44373893737793,10.246272087097168,1.900875210762024,3.876260757446289,0.31667211651802063,-0.04121379554271698,0.2824648916721344,2.9254355430603027
237,41832,41829,-0.0240708589553833,0.013938812538981438,1.0009640455245972,16.961441040039062,-8.611227989196777,10.07280445098877,1.9017020463943481,3.8757855892181396,0.32021182775497437,0.07021363079547882,0.517315149307251,3.0223357677459717
238,41842,41839,0.017502978444099426,-0.043510179966688156,0.9781686067581177,9.349068641662598,-4.74332857131958,10.150603294372559,1.9040846824645996,3.877077579498291,0.3203701078891754,0.07038778811693192,0.5740435123443604,3.1282567977905273
239,41852,41849,0.03441523760557175,-0.04444310814142227,0.9253120422363281,-0.5054706931114197,0.25328946113586426,10.550679206848145,1.9044392108917236,3.876709222793579,0.32062503695487976,0.21206575632095337,0.6487503051757812,3.209022283554077
240,41862,41859,0.006947061978280544,-0.04773682355880737,0.975080132484436,-8.327552795410156,7.041242599487305,10.6548490524292,1.9055426120758057,3.8783891201019287,0.3207342326641083,0.11378543823957443,0.48505401611328125,3.3204071521759033
241,41872,41869,0.02740975096821785,-0.09585981070995331,0.9584395289421082,-9.169757843017578,12.97269058227539,10.988154411315918,1.905651330947876,3.8789141178131104,0.3201886713504791,0.07435041666030884,0.3740861713886261,3.431520462036133
242,41882,41879,-0.020805342122912407,0.0566636398434639,0.9433208703994751,-10.014856338500977,20.00818634033203,10.921902656555176,1.906541347503662,3.8796117305755615,0.32016441226005554,-0.0638003721833229,0.24983933568000793,3.5217933654785156
243,41892,41889,0.046766649931669235,0.056793417781591415,0.965999186038971,-10.403614044189453,22.05660629272461,11.467718124389648,1.9079022407531738,3.878788709640503,0.3200727105140686,-0.31526607275009155,0.18603357672691345,3.635166883468628
244,41902,41899,0.07241889089345932,-0.023118529468774796,1.0141842365264893,-6.228382110595703,20.695476531982422,11.67213249206543,1.906772494316101,3.8781840801239014,0.31803834438323975,-0.37633830308914185,0.11619827896356583,3.7360317707061768
245,41912,41909,0.10645982623100281,-0.12795548141002655,0.8717963695526123,0.05983192101120949,18.401592254638672,11.369726181030273,1.9082682132720947,3.8787448406219482,0.3177342116832733,-0.6577160954475403,0.03439534828066826,3.8500287532806396
246,41922,41919,0.011801954358816147,-0.03590773791074753,0.9678829908370972,6.544371604919434,10.517562866210938,11.596847534179688,1.9101914167404175,3.8782050609588623,0.3174380958080292,-0.8872517943382263,0.13221389055252075,3.9506328105926514
247,41932,41929,0.0015353553462773561,-0.0328931100666523,0.9789210557937622,9.682113647460938,2.093883991241455,10.987421035766602,1.9109652042388916,3.878580093383789,0.3163411617279053,-0.9814934134483337,0.18142148852348328,4.052781105041504
248,41942,41939,-0.04202404245734215,0.12557272613048553,0.9433994889259338,10.359456062316895,-7.758242607116699,11.51414966583252,1.911365032196045,3.877338409423828,0.315987229347229,-0.9344541430473328,0.3626348674297333,4.1661224365234375
249,41952,41949,-0.07424897700548172,0.14085830748081207,0.9623377919197083,5.3810014724731445,-10.363030433654785,10.463068962097168,1.910712480545044,3.8761768341064453,0.3156403601169586,-0.7296754717826843,0.537097692489624,4.272721767425537
250,41962,41959,-0.007391356863081455,0.06024596840143204,0.9511789083480835,0.3850167393684387,-10.128876686096191,8.804316520690918,1.9113045930862427,3.8782424926757812,0.3151850998401642,-0.6347460746765137,0.39777126908302307,4.369070529937744
251,41972,41969,-0.011032109148800373,0.06082313135266304,0.9775499701499939,-3.3660483360290527,-5.802206039428711,6.572353839874268,1.9121036529541016,3.8782594203948975,0.3142004907131195,-0.5606805682182312,0.4085608720779419,4.45640230178833
252,41982,41979,0.04220268130302429,-0.07348209619522095,1.0148512125015259,-3.834728240966797,-2.1703367233276367,4.532076835632324,1.9132474660873413,3.8784921169281006,0.31356221437454224,-0.5493679642677307,0.3640667796134949,4.519585609436035
253,41992,41989,0.09122861176729202,-0.12650546431541443,1.0212610960006714,-5.401132106781006,4.193774700164795,3.5676686763763428,1.9143816232681274,3.8785717487335205,0.3128839433193207,-0.6031098961830139,0.3109658360481262,4.557199954986572
254,42002,41999,0.0435626283288002,-0.0491311252117157,1.0833594799041748,-1.5851824283599854,6.796475410461426,2.0728657245635986,1.914300799369812,3.8781890869140625,0.31307119131088257,-0.5819284319877625,0.24495722353458405,4.59862756729126
255,42012,42009,0.03700133413076401,0.0018218130571767688,1.0027241706848145,-0.9046412706375122,6.082065105438232,1.11968195438385,1.9141908884048462,3.878781795501709,0.312611848115921,-0.6002064943313599,0.2396973967552185,4.620981216430664
256,42022,42019,0.0012225850950926542,0.017007427290081978,1.0081475973129272,2.458606243133545,1.3376866579055786,0.8015444874763489,1.914919137954712,3.879004716873169,0.31217139959335327,-0.6211118698120117,0.2456372231245041,4.653709888458252
257,42032,42029,-0.03322577849030495,-0.002491275081411004,1.09476900100708,5.470736980438232,-6.603440761566162,1.2593413591384888,1.916183352470398,3.8798341751098633,0.3114525079727173,-0.6315133571624756,0.3026723563671112,4.66538143157959
258,42042,42039,0.0007811356335878372,-0.05414999648928642,1.035943627357483,8.997899055480957,-15.969244003295898,2.732090473175049,1.9176188707351685,3.8796186447143555,0.3110210597515106,-0.5880128741264343,0.40914633870124817,4.681342124938965
259,42052,42049,0.05144887417554855,-0.0839940533041954,0.9965057373046875,5.964123249053955,-18.761272430419922,3.655285596847534,1.9196103811264038,3.879143714904785,0.3105640113353729,-0.5486653447151184,0.5587042570114136,4.697011947631836
260,42062,42059,0.044549018144607544,-0.14826332032680511,1.0496857166290283,0.2753503918647766,-24.34471321105957,3.432616949081421,1.9201176166534424,3.8795018196105957,0.30860427021980286,-0.2150460183620453,0.5734362006187439,4.7319111824035645
261,42072,42069,0.04024004191160202,-0.12294585257768631,1.0041011571884155,-4.931490421295166,-23.52834701538086,3.047536611557007,1.9222384691238403,3.8793108463287354,0.3081824481487274,-0.04034718498587608,0.5716697573661804,4.761814117431641
262,42082,42079,-0.05044221132993698,0.02578951232135296,1.0445135831832886,-11.029830932617188,-14.674464225769043,1.6328811645507812,1.9232641458511353,3.8804430961608887,0.30781179666519165,0.2025277018547058,0.48365816473960876,4.788547039031982
263,42092,42089,-0.05490053817629814,-0.032730139791965485,1.0265564918518066,-13.107542991638184,-5.2605156898498535,0.7377427220344543,1.9227559566497803,3.880983352661133,0.3074777126312256,0.458979994058609,0.379293292760849,4.829935550689697
264,42102,42099,0.02370356395840645,0.05380208417773247,0.981101930141449,-11.694109916687012,3.7960288524627686,-0.05248899757862091,1.924634575843811,3.8819313049316406,0.30663779377937317,0.3943627178668976,0.1660814881324768,4.834557056427002
265,42112,42109,-0.001793430419638753,0.0225941501557827,0.9743013978004456,-9.750686645507812,8.974766731262207,-0.5967920422554016,1.9250000715255737,3.882141351699829,0.3063109517097473,0.4047915041446686,0.12542995810508728,4.858923435211182
266,42122,42119,0.004776212852448225,-0.022228868678212166,0.9781650900840759,-5.089741230010986,12.103788375854492,-1.2149966955184937,1.9269516468048096,3.882230281829834,0.30593404173851013,0.25458717346191406,0.03567918390035629,4.844234466552734
267,42132,42129,-0.027459125965833664,0.02690483070909977,0.9762520790100098,-0.6573039293289185,9.267367362976074,-0.8599059581756592,1.9279229640960693,3.8818583488464355,0.3076419532299042,0.13589060306549072,0.02892826497554779,4.83081579208374
268,42142,42139,-0.10325182229280472,0.1484384983778,0.9718977808952332,3.8134827613830566,4.6582489013671875,0.8527628183364868,1.92774498462677,3.881833791732788,0.307490736246109,0.22371327877044678,0.02994513511657715,4.81469202041626
269,42152,42149,-0.08536416292190552,0.11127547174692154,1.0990464687347412,5.941340446472168,-0.6883137822151184,1.9354779720306396,1.9282572269439697,3.88138484954834,0.3071865737438202,0.1445363312959671,0.09751708060503006,4.805628776550293
270,42162,42159,-0.0018233893206343055,0.016423368826508522,1.0725613832473755,3.6779754161834717,-0.5193166136741638,1.8379075527191162,1.927878499031067,3.880894660949707,0.30945584177970886,0.22392338514328003,0.19049079716205597,4.854496479034424
271,42172,42169,0.01480203028768301,0.004552345722913742,1.0180681943893433,-2.055626630783081,-0.2681117653846741,1.393959403038025,1.9286291599273682,3.8808693885803223,0.3095032274723053,0.29674890637397766,0.23634080588817596,4.863447666168213
272,42182,42179,0.09066999703645706,-0.07187076658010483,1.0369441509246826,-6.143609523773193,-1.5030406713485718,1.2312259674072266,1.930138349533081,3.8815395832061768,0.3095315098762512,0.21536771953105927,0.17962241172790527,4.889662742614746
273,42192,42189,0.0590909980237484,-0.09181862324476242,1.0238800048828125,-8.26269817352295,0.7521827816963196,0.35644468665122986,1.9314888715744019,3.8821029663085938,0.3095248341560364,0.13472846150398254,0.0544588677585125,4.891732215881348
274,42202,42199,0.01932254433631897,-0.07852806895971298,0.9600853323936462,-11.27161693572998,2.941554307937622,0.5394038558006287,1.9327462911605835,3.8831946849823,0.311431348323822,0.10464251786470413,-0.10802217572927475,4.8909592628479
275,42212,42209,-0.05551910400390625,0.07474132627248764,1.0641391277313232,-12.081587791442871,5.380427360534668,0.2959159016609192,1.9336000680923462,3.8817741870880127,0.3117901384830475,0.05097915232181549,-0.06803574413061142,4.910450458526611
276,42222,42219,-0.051833972334861755,0.049670733511447906,1.0496338605880737,-11.760323524475098,9.797164916992188,-1.9115855693817139,1.9337882995605469,3.8815858364105225,0.311829537153244,0.025105072185397148,-0.2094024270772934,4.904462814331055
277,42232,42229,-0.028889108449220657,0.02717657759785652,0.9949912428855896,-9.139710426330566,12.034841537475586,-2.0857675075531006,1.933941125869751,3.8828089237213135,0.31200823187828064,-0.07403263449668884,-0.415311723947525,4.88826322555542
278,42242,42239,-0.03519919142127037,0.07449531555175781,1.0189249515533447,-1.9955021142959595,15.249716758728027,-2.4738922119140625,1.9346168041229248,3.8824262619018555,0.3122331500053406,-0.22290202975273132,-0.4807954430580139,4.857377529144287
279,42252,42249,0.06109996140003204,-0.03360624238848686,0.9036255478858948,3.2118728160858154,11.608136177062988,-4.086955547332764,1.9354968070983887,3.8822720050811768,0.3125196099281311,-0.39322781562805176,-0.4325537085533142,4.826235771179199
280,42262,42259,-0.04301305115222931,0.06536754220724106,0.9302542805671692,5.6417460441589355,10.336750984191895,-3.8084237575531006,1.935320496559143,3.882028818130493,0.3105100691318512,-0.5113343596458435,-0.3723251521587372,4.807458400726318
281,42272,42269,-0.0054554115049541,-0.008096719160676003,0.9675095677375793,7.952822208404541,8.350992202758789,-4.4249677658081055,1.936073660850525,3.8816051483154297,0.3106010854244232,-0.5384503602981567,-0.27357417345046997,4.751696586608887
282,42282,42279,0.03330028057098389,-0.07044928520917892,0.9449722766876221,7.0576019287109375,6.381111145019531,-4.839223861694336,1.9367005825042725,3.881164789199829,0.3105446696281433,-0.5994939804077148,-0.1548672616481781,4.705693244934082
283,42292,42289,-0.022146446630358696,-0.025154493749141693,1.0271092653274536,4.517585754394531,4.330378532409668,-5.492711067199707,1.9376791715621948,3.880326986312866,0.3104873597621918,-0.6161782741546631,-0.058815088123083115,4.6275129318237305
284,42302,42299,0.0247320719063282,-0.04584711417555809,0.9587990641593933,-0.5920011401176453,-0.16152460873126984,-5.651880264282227,1.9380338191986084,3.8802614212036133,0.3120308220386505,-0.6075966954231262,-0.031457964330911636,4.54418420791626
285,42312,42309,0.06340978294610977,-0.010370642878115177,0.9382314085960388,-5.833564758300781,3.537876605987549,-7.174469947814941,1.9386347532272339,3.88031268119812,0.31203821301460266,-0.641483724117279,-0.1609494686126709,4.47827672958374
286,42322,42319,0.09907092154026031,-0.04071832075715065,0.8677499890327454,-10.907931327819824,4.521348476409912,-8.090994834899902,1.938326120376587,3.8807427883148193,0.31208306550979614,-0.6434296369552612,-0.29557281732559204,4.413951873779297
287,42332,42329,0.07602015137672424,-0.11398284137248993,0.9378838539123535,-10.374344825744629,4.103605270385742,-9.10446548461914,1.9391870498657227,3.8820905685424805,0.3116234838962555,-0.7201889753341675,-0.48271968960762024,4.345344066619873
288,42342,42339,-0.025542516261339188,-0.01663530245423317,1.0701758861541748,-5.682304382324219,4.803845405578613,-10.021592140197754,1.940089464187622,3.8817942142486572,0.3113786578178406,-0.796764075756073,-0.5605608224868774,4.2332868576049805
289,42352,42349,0.007208301220089197,-0.05801999941468239,0.9668286442756653,0.01625036634504795,8.932767868041992,-10.804429054260254,1.9409939050674438,3.88214111328125,0.3111703395843506,-0.835316002368927,-0.6257463097572327,4.129982948303223
290,42362,42359,-0.023951658979058266,0.1183517724275589,0.8891541361808777,3.1612987518310547,10.323790550231934,-10.827801704406738,1.9419656991958618,3.88122820854187,0.3136177062988281,-0.9153682589530945,-0.5247887372970581,4.005340576171875
291,42372,42369,0.0027062464505434036,-0.007022522389888763,1.048272967338562,6.5255937576293945,12.807480812072754,-11.99912166595459,1.9426029920578003,3.880492925643921,0.3135102093219757,-1.0245604515075684,-0.4545455873012543,3.9029722213745117
292,42382,42379,0.024285977706313133,-0.053044769912958145,0.989033579826355,10.207783699035645,9.76682186126709,-12.829499244689941,1.9430675506591797,3.88065242767334,0.3132786154747009,-1.220362901687622,-0.33188360929489136,3.786771535873413
293,42392,42389,0.019877556711435318,-0.029949598014354706,0.9646753072738647,7.347859859466553,9.165043830871582,-13.588066101074219,1.9435659646987915,3.8796746730804443,0.3131394684314728,-1.2964327335357666,-0.16731123626232147,3.643505811691284
294,42402,42399,0.09236181527376175,-0.21944959461688995,1.0619457960128784,5.878573417663574,3.653853178024292,-13.959158897399902,1.943483591079712,3.8799514770507812,0.31399229168891907,-1.3416273593902588,-0.133954256772995,3.5098280906677246
295,42412,42409,0.023629339411854744,-0.05599839985370636,1.0403012037277222,2.7518506050109863,-3.142014503479004,-14.221536636352539,1.944061517715454,3.8803093433380127,0.3139841854572296,-1.2722381353378296,-0.060808535665273666,3.383411169052124
296,42422,42419,0.013326376676559448,-0.043937280774116516,0.9829092025756836,0.1799398511648178,-7.680634021759033,-14.251788139343262,1.9451072216033936,3.88078236579895,0.3139056861400604,-1.2659567594528198,-0.11437440663576126,3.235227108001709
297,42432,42429,-0.030125409364700317,-0.031236575916409492,1.039772391319275,-2.3146870136260986,-6.491365909576416,-14.07239055633545,1.9451898336410522,3.881748914718628,0.3122265040874481,-1.1315858364105225,-0.12860269844532013,3.1257894039154053
298,42442,42439,0.037559885531663895,-0.012254255823791027,0.9669345021247864,-3.2358715534210205,-5.203795433044434,-14.229557037353516,1.9462372064590454,3.8821613788604736,0.3120999336242676,-1.092868685722351,-0.18046626448631287,3.0085723400115967
299,42452,42449,-0.0030364966951310635,0.03931494057178497,1.027297854423523,-2.751413583755493,-5.801315784454346,-13.98086166381836,1.9475802183151245,3.8826346397399902,0.3119748532772064,-1.0704751014709473,-0.15399625897407532,2.8863565921783447
300,42462,42459,0.022512296214699745,0.011706877499818802,1.026835322380066,-2.922691822052002,-0.7275252938270569,-13.460506439208984,1.9490307569503784,3.8823812007904053,0.31352174282073975,-1.063611626625061,-0.2112889140844345,2.7262258529663086
301,42472,42469,0.007694533094763756,0.009947783313691616,1.0151371955871582,-0.5997180938720703,1.418940544128418,-13.001785278320312,1.9499424695968628,3.882600784301758,0.313496857881546,-1.1242337226867676,-0.2556106150150299,2.5847408771514893
302,42482,42479,0.021522942930459976,-0.09601635485887527,0.9061556458473206,0.8322205543518066,0.660891592502594,-12.906981468200684,1.9522472620010376,3.8831005096435547,0.3134894371032715,-1.2004762887954712,-0.2583669126033783,2.4727888107299805
303,42492,42489,0.01925572380423546,-0.12083406746387482,0.9199881553649902,2.897258758544922,-3.8798892498016357,-12.3529052734375,1.9527918100357056,3.8832015991210938,0.3114892244338989,-1.0830974578857422,-0.2344040423631668,2.339576482772827
304,42502,42499,0.04605049639940262,-0.1256246268749237,1.0085008144378662,2.2652573585510254,-7.776395320892334,-12.137121200561523,1.9556314945220947,3.8833255767822266,0.3111206591129303,-1.200703501701355,-0.18227234482765198,2.234628438949585
305,42512,42509,0.08274615556001663,-0.16024136543273926,1.0304896831512451,2.468531847000122,-12.406611442565918,-12.316554069519043,1.955595850944519,3.8837082386016846,0.311135858297348,-0.918996274471283,-0.2257055640220642,2.082556962966919
306,42522,42519,0.05401020869612694,-0.13164572417736053,1.0262770652770996,3.455057144165039,-13.142498970031738,-11.995033264160156,1.9559619426727295,3.883632183074951,0.31095632910728455,-0.7553752660751343,-0.16864463686943054,1.9529104232788086
307,42532,42529,0.01041203923523426,-0.14823701977729797,0.9895405173301697,1.948704481124878,-9.610010147094727,-12.068976402282715,1.9593734741210938,3.883540153503418,0.3134937584400177,-0.829582154750824,-0.1126905083656311,1.8472634553909302
308,42542,42539,0.016186246648430824,-0.32820749282836914,0.9541143774986267,-0.035639822483062744,-8.53709888458252,-11.571819305419922,1.9600566625595093,3.882875442504883,0.3135085105895996,-0.7082557082176208,-0.09254202246665955,1.7073895931243896
309,42552,42549,-0.0108404029160738,-0.10112468153238297,1.0296337604522705,-0.6945282220840454,-4.821213245391846,-11.515670776367188,1.9613126516342163,3.8829593658447266,0.31348201632499695,-0.6158244013786316,-0.09746582061052322,1.590758204460144
310,42562,42559,0.03191604092717171,0.04608037695288658,1.0140098333358765,1.4829236268997192,-1.6054232120513916,-11.280241012573242,1.963107943534851,3.8822617530822754,0.31553998589515686,-0.6681556701660156,-0.09865745157003403,1.4577354192733765
311,42572,42569,-0.0032185895834118128,0.07374802976846695,1.0728780031204224,3.6527721881866455,-2.180325746536255,-10.840633392333984,1.9634437561035156,3.881455183029175,0.31567490100860596,-0.5794306397438049,-0.05910734832286835,1.2996858358383179
312,42582,42579,-0.011183341965079308,-0.02552001178264618,1.0343750715255737,4.552313804626465,0.08153145015239716,-10.244390487670898,1.965985655784607,3.881451368331909,0.3156334459781647,-0.7333149313926697,0.006777751259505749,1.2281092405319214
313,42592,42589,-0.04382731392979622,0.00686543807387352,1.036510944366455,6.430352687835693,-5.792228698730469,-9.900960922241211,1.9667510986328125,3.8810861110687256,0.31848931312561035,-0.7041836380958557,0.019461987540125847,1.120123267173767
314,42602,42599,-0.034338437020778656,0.03417313098907471,0.9985541105270386,5.036586761474609,-8.040536880493164,-10.248565673828125,1.9665635824203491,3.882646322250366,0.31910234689712524,-0.4570685625076294,0.0485786497592926,1.0425493717193604
315,42612,42609,-0.0005550521309487522,0.032249435782432556,0.9493091106414795,3.919654607772827,-9.50645923614502,-9.488987922668457,1.9683754444122314,3.8825855255126953,0.3194669783115387,-0.40872424840927124,0.13470540940761566,0.9480260610580444
316,42622,42619,0.1016087755560875,-0.06741353869438171,0.9298156499862671,3.1425771713256836,-12.857505798339844,-9.942305564880371,1.9711482524871826,3.8836934566497803,0.3197149336338043,-0.4973350167274475,0.03998323157429695,0.814418613910675
317,42632,42629,0.1456136703491211,-0.1349325180053711,0.9414101839065552,2.2055487632751465,-13.446465492248535,-8.84825611114502,1.9711761474609375,3.883906841278076,0.31746894121170044,-0.2866254448890686,0.02020951360464096,0.758701741695404
318,42642,42639,0.10948291420936584,-0.1049884483218193,0.9351084232330322,3.483168840408325,-15.658880233764648,-8.532858848571777,1.9735376834869385,3.8840408325195312,0.3175409734249115,-0.20225924253463745,0.08613059669733047,0.6942224502563477
319,42652,42649,0.004687809385359287,0.0003786840825341642,0.981963574886322,3.184544086456299,-17.059938430786133,-7.637502193450928,1.972499966621399,3.884228467941284,0.317862331867218,0.15062035620212555,0.17022138833999634,0.6068352460861206
320,42662,42659,0.005044614430516958,-0.019956642761826515,0.9689038395881653,2.612555742263794,-10.23562240600586,-7.851479530334473,1.9747167825698853,3.8844611644744873,0.31644514203071594,0.01328672282397747,0.1274203211069107,0.6155192255973816
321,42672,42669,0.020598754286766052,-0.046146195381879807,0.9314649105072021,3.247199058532715,-10.089378356933594,-7.106578350067139,1.9757952690124512,3.884692907333374,0.3163784146308899,0.11670654267072678,0.1886841505765915,0.5344341993331909
322,42682,42679,0.04158869758248329,-0.05504067242145538,0.9164522886276245,1.2974671125411987,-5.855693340301514,-7.640380859375,1.9769341945648193,3.8848507404327393,0.3163124620914459,0.28004544973373413,0.25372183322906494,0.472476989030838
323,42692,42689,0.032341368496418,-0.03361175209283829,0.9405912160873413,-1.2229318618774414,-4.999531269073486,-6.718007564544678,1.9780478477478027,3.885071039199829,0.3123719394207001,0.37568116188049316,0.21439948678016663,0.4009789824485779
324,42702,42699,0.04418499395251274,-0.061785243451595306,0.9060567617416382,-3.3308393955230713,-2.1825127601623535,-6.916305065155029,1.9805500507354736,3.8857874870300293,0.3116917014122009,0.29630640149116516,0.21782654523849487,0.3233466148376465
325,42712,42709,0.03003125824034214,-0.033249955624341965,0.906500518321991,-2.3922524452209473,-5.004586696624756,-6.422043800354004,1.981149435043335,3.8853909969329834,0.31118398904800415,0.39894646406173706,0.17987552285194397,0.22580966353416443
326,42722,42719,-0.022194448858499527,0.00832938402891159,1.011998176574707,0.8155510425567627,-3.279528856277466,-5.017466068267822,1.9819142818450928,3.8862979412078857,0.31240442395210266,0.5330220460891724,0.0806158185005188,0.1558692902326584
327,42732,42729,-0.02541518025100231,0.07412590086460114,1.0947182178497314,3.138023614883423,-2.8474912643432617,-4.424075603485107,1.9839805364608765,3.8849291801452637,0.3118182122707367,0.5001044273376465,0.18946123123168945,0.07367357611656189
328,42742,42739,-0.013464703224599361,0.036562345921993256,1.044545292854309,3.512707471847534,-3.582097291946411,-3.7807257175445557,1.9854421615600586,3.8846890926361084,0.3112225830554962,0.4668988883495331,0.2539106011390686,0.003753319615498185
329,42752,42749,-0.023158865049481392,-0.009497248567640781,1.0060664415359497,2.861560106277466,-4.186013698577881,-2.104332447052002,1.987311601638794,3.8836984634399414,0.3107427954673767,0.5211041569709778,0.3247604966163635,-0.05293567478656769
330,42762,42759,0.008495938032865524,0.01638989895582199,0.9993930459022522,1.1050164699554443,-7.377931118011475,-2.2822482585906982,1.9887840747833252,3.884180784225464,0.31223249435424805,0.5819039940834045,0.29907745122909546,-0.056828778237104416
331,42772,42769,0.006240631453692913,-0.026028774678707123,0.9449616074562073,-4.044308662414551,-9.169059753417969,-3.2672481536865234,1.988887071609497,3.88541841506958,0.31210455298423767,0.8400498628616333,0.31661298871040344,-0.05310704559087753
332,42782,42779,0.010161052457988262,-0.06870860606431961,0.9626973867416382,-5.813875198364258,-10.725439071655273,-3.9360814094543457,1.9907724857330322,3.885002851486206,0.31168317794799805,0.8173656463623047,0.332172691822052,-0.08407235890626907
333,42792,42789,0.033839985728263855,-0.043877989053726196,1.0454442501068115,-7.468927383422852,-5.296746730804443,-3.3598055839538574,1.9925246238708496,3.8854246139526367,0.31449007987976074,0.8842189311981201,0.23572897911071777,-0.14255040884017944
334,42802,42799,0.03833512216806412,-0.10102890431880951,1.0192651748657227,-4.895988941192627,-1.396006464958191,-3.073814630508423,1.993016242980957,3.8853936195373535,0.3143744170665741,1.0209978818893433,0.12227845191955566,-0.16761477291584015
335,42812,42809,0.0018933709943667054,0.012621705420315266,1.052736520767212,-1.0028162002563477,1.069049596786499,-2.6220836639404297,1.9952377080917358,3.8851873874664307,0.31418174505233765,0.9406476020812988,0.05647659674286842,-0.22199268639087677
336,42822,42819,-0.017545465379953384,0.07549460232257843,1.0291507244110107,3.582651376724243,2.1959848403930664,-2.1381685733795166,1.9958199262619019,3.8840720653533936,0.31554773449897766,1.0497320890426636,0.20233027637004852,-0.25442978739738464
337,42832,42829,-0.008047711104154587,0.02804131805896759,0.9947693943977356,5.407358646392822,2.934870958328247,-0.886505663394928,1.9968211650848389,3.884082317352295,0.31558942794799805,1.0541694164276123,0.18329216539859772,-0.3004012405872345
338,42842,42839,-0.03630542382597923,0.04904225841164589,1.0206354856491089,3.5023550987243652,2.8169662952423096,-1.1339882612228394,1.9985214471817017,3.883748769760132,0.3155973255634308,0.9698307514190674,0.27027109265327454,-0.34114664793014526
339,42852,42849,-0.018052395433187485,0.0014117214595898986,0.991354763507843,0.9506831169128418,4.151106357574463,-0.5486642718315125,2.0002591609954834,3.882744789123535,0.3155907988548279,0.8865036368370056,0.325080543756485,-0.36559224128723145
340,42862,42859,0.0048362030647695065,0.01281090546399355,1.0040827989578247,-2.7602686882019043,2.9264822006225586,0.13006506860256195,1.99869704246521,3.8825926780700684,0.3154439330101013,0.9165598154067993,0.33303916454315186,-0.34261056780815125
341,42872,42869,-0.004852085839956999,-0.029326368123292923,1.0122365951538086,-4.35676908493042,1.1910505294799805,0.12944313883781433,2.0013175010681152,3.882387399673462,0.31533268094062805,0.7435205578804016,0.28005310893058777,-0.3795034885406494
342,42882,42879,0.03878898173570633,-0.1074276715517044,1.0131345987319946,-4.312117576599121,1.1101306676864624,-0.6631680727005005,2.001232624053955,3.882675886154175,0.3154955506324768,0.8338112831115723,0.20139692723751068,-0.35149815678596497
343,42892,42889,0.012128472328186035,-0.04884180426597595,1.0306252241134644,-1.8863049745559692,0.5464128851890564,-1.320096492767334,2.0027248859405518,3.8834333419799805,0.314301997423172,0.7746285200119019,0.13044553995132446,-0.36980965733528137
344,42902,42899,-0.002156944014132023,-0.06410720199346542,0.992059588432312,1.5375401973724365,-1.1497362852096558,-1.2973737716674805,2.0026774406433105,3.8834683895111084,0.3144190311431885,0.9027550220489502,0.10925591737031937,-0.3399893343448639
345,42912,42909,0.025069110095500946,-0.0807046964764595,0.954262912273407,2.6841907501220703,-0.49697980284690857,-1.4339627027511597,2.0041744709014893,3.8833630084991455,0.31448307633399963,0.946672260761261,0.13914838433265686,-0.36726513504981995
346,42922,42919,0.019327934831380844,-0.011282047256827354,0.9944992661476135,1.2291165590286255,-0.6977437138557434,-0.2553099989891052,2.005281448364258,3.8833796977996826,0.31325453519821167,0.9788241386413574,0.18277321755886078,-0.3772575259208679
347,42932,42929,0.029704278334975243,-0.021717101335525513,0.9664551019668579,1.1233832836151123,0.724768877029419,0.35940882563591003,2.008085250854492,3.8838014602661133,0.3130931854248047,0.8517628908157349,0.20228682458400726,-0.3705254793167114
348,42942,42939,0.07282871007919312,-0.04343787208199501,0.9479113817214966,0.7642560601234436,2.818387508392334,0.6650663018226624,2.00809907913208,3.8836803436279297,0.31301742792129517,0.9391927719116211,0.2140263319015503,-0.39488303661346436
349,42952,42949,0.04848448932170868,-0.02651096135377884,0.9675686955451965,-0.4054282009601593,3.5375654697418213,-0.4225986897945404,2.009084463119507,3.885251998901367,0.312844842672348,0.9132678508758545,0.07199911773204803,-0.3250044882297516
350,42962,42959,0.0032728975638747215,0.01989234983921051,0.9997339248657227,-1.9288219213485718,4.219259262084961,0.000941585109103471,2.0085155963897705,3.8832509517669678,0.31153935194015503,0.8546985983848572,0.0778559148311615,-0.40393921732902527
351,42972,42969,0.017626792192459106,-0.02753843180835247,0.9936206936836243,-1.3419972658157349,10.128265380859375,0.09379319846630096,2.010061264038086,3.8839147090911865,0.31125572323799133,0.7720386385917664,0.05769455060362816,-0.38240012526512146
352,42982,42979,-0.0004415537987370044,-0.02165045216679573,0.9750221967697144,0.35148170590400696,10.284497261047363,-0.12154662609100342,2.009782075881958,3.8840372562408447,0.31093907356262207,0.7026299834251404,0.05096067488193512,-0.3627036511898041
353,42992,42989,-0.016400866210460663,-0.018188737332820892,0.9819541573524475,2.6112232208251953,8.58018970489502,-0.05446774885058403,2.0099451541900635,3.883176326751709,0.30966076254844666,0.6259745955467224,0.15166093409061432,-0.40585899353027344
354,43002,42999,-0.01188907865434885,0.07184216380119324,1.012808918952942,4.6646409034729,7.7023797035217285,-0.5811018943786621,2.010514259338379,3.883134126663208,0.3093055486679077,0.567253053188324,0.1232934445142746,-0.3951403498649597
355,43012,43009,0.00025649325107224286,0.10728612542152405,0.9805222749710083,4.621769905090332,6.314634323120117,-0.689554750919342,2.0103697776794434,3.880805730819702,0.30880630016326904,0.43897169828414917,0.20381520688533783,-0.48669514060020447
356,43022,43019,-0.018228797242045403,0.07930000126361847,1.0354317426681519,2.4109625816345215,6.502633571624756,-0.20305544137954712,2.010920524597168,3.8798210620880127,0.31037649512290955,0.41111814975738525,0.35212430357933044,-0.5084620714187622
357,43032,43029,-0.0028665417339652777,0.012605198659002781,0.9973504543304443,0.6794660687446594,5.962960720062256,0.2902665138244629,2.0116584300994873,3.879869222640991,0.31015893816947937,0.3812152147293091,0.3014216721057892,-0.5331853628158569
358,43042,43039,-0.023323770612478256,-0.02137921005487442,0.9993373155593872,-2.193079710006714,7.548182010650635,-0.11683593690395355,2.0123660564422607,3.879948854446411,0.3099004030227661,0.27108702063560486,0.3016214668750763,-0.5888445377349854
359,43052,43049,-0.032743729650974274,0.0323823057115078,1.0096038579940796,-4.92071533203125,10.996039390563965,-0.5479182004928589,2.011045217514038,3.878674030303955,0.3097655773162842,0.21212758123874664,0.25266537070274353,-0.545473575592041
360,43062,43059,0.017798934131860733,-0.03341822698712349,1.0013742446899414,-3.226827621459961,9.85129165649414,-2.189993381500244,2.0092859268188477,3.8770623207092285,0.3095247447490692,0.11414332687854767,0.180827796459198,-0.6198135018348694
361,43072,43069,0.022842489182949066,-0.06193043664097786,0.9345716834068298,-2.353856325149536,10.275203704833984,-2.505695343017578,2.0099568367004395,3.876424551010132,0.3092954754829407,0.02248018980026245,0.20542433857917786,-0.6513625383377075
362,43082,43079,-0.013316397555172443,-0.07040118426084518,1.0282034873962402,-3.2260255813598633,9.80040454864502,-3.1770260334014893,2.010667324066162,3.8753514289855957,0.3090316653251648,-0.07441001385450363,0.23704881966114044,-0.7062002420425415
363,43092,43089,0.015857107937335968,-0.17758268117904663,1.0602545738220215,-2.8844926357269287,10.113840103149414,-3.9910271167755127,2.012092351913452,3.875638484954834,0.3062628209590912,-0.24465250968933105,0.1767130345106125,-0.7869663238525391
364,43102,43099,-0.0036459355615079403,-0.08233864605426788,1.0010366439819336,-3.516361713409424,10.457846641540527,-4.091651439666748,2.011488676071167,3.872889280319214,0.30583950877189636,-0.3377988040447235,0.19336962699890137,-0.8168608546257019
365,43112,43109,0.0005095127853564918,-0.013501041568815708,1.0094059705734253,-3.146397590637207,11.0233154296875,-3.8776190280914307,2.0123538970947266,3.874305486679077,0.3055538833141327,-0.43282920122146606,0.12039736658334732,-0.8892959356307983
366,43122,43119,0.004424163140356541,0.013977192342281342,0.9947052597999573,-1.1961060762405396,11.237051010131836,-3.6351587772369385,2.012709379196167,3.873706102371216,0.3050369918346405,-0.5258673429489136,0.06276753544807434,-0.9269849061965942
367,43132,43129,0.02762291021645069,0.1404889076948166,0.9925599098205566,1.8244764804840088,5.030547142028809,-3.091641902923584,2.013737201690674,3.873429775238037,0.30458948016166687,-0.6875795125961304,0.044856779277324677,-0.9710814356803894
368,43142,43139,0.048631563782691956,-0.00514575419947505,1.044522762298584,2.938166379928589,-1.4458487033843994,-3.2380924224853516,2.0141329765319824,3.872689962387085,0.3043140172958374,-0.6724669933319092,0.15022620558738708,-0.9945945739746094
369,43152,43149,0.02317335084080696,-0.0665191113948822,0.9937108755111694,2.9545342922210693,-5.846844673156738,-2.524630546569824,2.0141029357910156,3.8725082874298096,0.30014967918395996,-0.628430962562561,0.18212881684303284,-1.00863778591156
370,43162,43159,-0.0025489318650215864,-0.015975575894117355,1.0337964296340942,0.909893810749054,-10.600905418395996,-2.625305414199829,2.015158176422119,3.872619867324829,0.29956570267677307,-0.5841977000236511,0.2069680541753769,-1.0072051286697388
371,43172,43169,0.02212173119187355,-0.02460128627717495,0.9880616664886475,-2.5919454097747803,-11.038200378417969,-3.080918312072754,2.014742612838745,3.872608184814453,0.2990131080150604,-0.4744381904602051,0.19737154245376587,-1.020990014076233
372,43182,43179,0.009901950135827065,0.015179373323917389,1.0719008445739746,-7.517927169799805,-16.60206413269043,-3.2487587928771973,2.015873432159424,3.8724870681762695,0.29844510555267334,-0.40745535492897034,0.11964668333530426,-1.0852916240692139
373,43192,43189,0.004232876002788544,-0.03445568308234215,1.1083935499191284,-12.089837074279785,-17.886459350585938,-3.839956760406494,2.016908645629883,3.873243570327759,0.2971119284629822,-0.20836220681667328,-0.03830568119883537,-1.1237294673919678
374,43202,43199,-0.06810642778873444,-0.0012392440112307668,1.1201517581939697,-11.954778671264648,-10.310843467712402,-4.9160566329956055,2.015071392059326,3.871939182281494,0.2967527210712433,0.1331968456506729,-0.17698968946933746,-1.2217357158660889
375,43212,43209,-0.03024936094880104,0.012467436492443085,1.0700191259384155,-9.152788162231445,-0.1545511931180954,-5.159752368927002,2.01820969581604,3.870899200439453,0.2964150011539459,-0.04464836046099663,-0.222772017121315,-1.3199081420898438
376,43222,43219,-0.0063802883960306644,-0.043923284858465195,0.9601334929466248,-4.591951370239258,10.729165077209473,-4.791890621185303,2.0184497833251953,3.8706324100494385,0.2956934869289398,0.029038723558187485,-0.36357566714286804,-1.3713041543960571
377,43232,43229,0.012765930965542793,0.0014376110630109906,0.9950479865074158,-0.14893090724945068,13.122061729431152,-4.4802350997924805,2.019984245300293,3.8709442615509033,0.29535332322120667,-0.13062043488025665,-0.4298856556415558,-1.4142252206802368
378,43242,43239,0.0541088692843914,-0.023907862603664398,0.9427011609077454,5.262645721435547,10.152441024780273,-4.135091781616211,2.0211939811706543,3.870387315750122,0.29504746198654175,-0.23261715471744537,-0.33191290497779846,-1.4483740329742432
379,43252,43249,0.011073200963437557,0.055494002997875214,1.071675181388855,6.299322605133057,9.689687728881836,-4.3665385246276855,2.0226786136627197,3.87001633644104,0.29546990990638733,-0.3905843198299408,-0.24337387084960938,-1.477085828781128
380,43262,43259,0.01169520616531372,-0.08862802386283875,1.0141589641571045,4.918262004852295,5.186496257781982,-3.9585816860198975,2.0235400199890137,3.869920253753662,0.29520636796951294,-0.44396424293518066,-0.1473415195941925,-1.543503999710083
381,43272,43269,0.005256014410406351,-0.10469866544008255,1.064565896987915,2.8320724964141846,2.552385091781616,-3.3996644020080566,2.0241684913635254,3.8696494102478027,0.29503679275512695,-0.44080933928489685,-0.08167099207639694,-1.5633453130722046
382,43282,43279,0.005314522888511419,-0.059662867337465286,1.0205872058868408,1.1771384477615356,-2.017695665359497,-2.147400379180908,2.023958683013916,3.868227243423462,0.29482173919677734,-0.4442746341228485,-0.059932030737400055,-1.6541152000427246
383,43292,43289,-0.010320596396923065,0.014742353931069374,1.0001814365386963,-1.7847181558609009,-0.6618903875350952,-1.566540241241455,2.0256431102752686,3.868563413619995,0.29253146052360535,-0.4599096477031708,-0.070771224796772,-1.6661491394042969
384,43302,43299,0.018772512674331665,0.1012672707438469,0.9575147032737732,-6.50455904006958,-4.939374923706055,0.7200753092765808,2.0273351669311523,3.869020700454712,0.2921525537967682,-0.5450356006622314,-0.14123794436454773,-1.6241531372070312
385,43312,43309,0.016275912523269653,0.17735978960990906,0.9975551962852478,-8.415377616882324,-6.116169452667236,2.1340701580047607,2.0275607109069824,3.8704051971435547,0.2920168340206146,-0.3687696158885956,-0.2535383999347687,-1.6288756132125854
386,43322,43319,0.01642407849431038,-0.009448557160794735,0.9902558326721191,-6.701698303222656,-4.082692623138428,3.3905327320098877,2.0283637046813965,3.871711015701294,0.2930621802806854,-0.32916736602783203,-0.38869866728782654,-1.5480248928070068
387,43332,43329,-0.016375591978430748,0.0016015921719372272,1.0416197776794434,-1.7355716228485107,-1.673136591911316,4.084077835083008,2.027984142303467,3.869398593902588,0.29276642203330994,-0.31540367007255554,-0.40918442606925964,-1.572812795639038
388,43342,43339,-0.005976243410259485,-0.06435151398181915,1.0607305765151978,7.958093643188477,-0.43118464946746826,5.237646102905273,2.02944278717041,3.869785785675049,0.29249319434165955,-0.3429611921310425,-0.39016053080558777,-1.4957833290100098
389,43352,43349,-0.04169109836220741,0.11346209794282913,1.0044975280761719,10.144183158874512,-0.7101597189903259,5.895806789398193,2.0288569927215576,3.8680317401885986,0.2932013273239136,-0.30288416147232056,-0.25186794996261597,-1.493017315864563
390,43362,43359,0.006853670347481966,0.12350264191627502,0.9962432384490967,11.117280960083008,-3.529034376144409,7.045955181121826,2.0280094146728516,3.868246078491211,0.29327818751335144,-0.16308152675628662,-0.07481864094734192,-1.4721026420593262
391,43372,43369,-0.009419534355401993,-0.00534812780097127,1.022939920425415,11.999872207641602,-6.436979293823242,7.018261432647705,2.027846574783325,3.8664772510528564,0.2930258810520172,-0.2238633930683136,0.03694027289748192,-1.3593766689300537
392,43382,43379,0.03131737560033798,-0.03334423154592514,1.0099495649337769,6.987001419067383,-4.351356029510498,6.92636775970459,2.0282187461853027,3.8660197257995605,0.2929950952529907,-0.1730542629957199,0.12803083658218384,-1.3069008588790894
393,43392,43389,-0.01773781329393387,0.012786507606506348,1.0349500179290771,-1.5717509984970093,-1.7222644090652466,6.601827621459961,2.029597043991089,3.866244316101074,0.29328882694244385,-0.15721528232097626,0.12729232013225555,-1.2457301616668701
394,43402,43399,-0.002723576733842492,-0.02937857061624527,1.0197936296463013,-8.371554374694824,0.3341875970363617,6.239856243133545,2.0290937423706055,3.8647408485412598,0.29324501752853394,-0.10192552208900452,0.06692720949649811,-1.2305374145507812
395,43412,43409,0.018925538286566734,0.00865808967500925,0.9928010106086731,-10.504831314086914,2.9807403087615967,6.159895420074463,2.0292632579803467,3.8645472526550293,0.29328787326812744,-0.07757093012332916,-0.0077584851533174515,-1.2477120161056519
396,43422,43419,0.02069663628935814,0.06178716942667961,1.017699956893921,-10.886344909667969,0.7487522959709167,6.379852771759033,2.0290040969848633,3.862093448638916,0.2949170768260956,-0.06790661066770554,-0.043727923184633255,-1.1767860651016235
397,43432,43429,0.05092973634600639,0.0064369612373411655,0.9348672032356262,-8.836309432983398,-2.057265281677246,6.413149833679199,2.029329776763916,3.862586259841919,0.29491981863975525,-0.14038722217082977,-0.3077738285064697,-1.2180920839309692
398,43442,43439,-0.053153909742832184,-0.032416339963674545,1.0522674322128296,-5.201076984405518,3.0640413761138916,6.557859420776367,2.0297632217407227,3.862018346786499,0.2950550317764282,-0.10463700443506241,-0.3588868975639343,-1.126916527748108
399,43452,43449,0.023645495995879173,0.0032904837280511856,1.0164636373519897,-2.5279502868652344,-1.6898558139801025,6.041611194610596,2.0305356979370117,3.8617827892303467,0.29713132977485657,-0.17714284360408783,-0.3486495912075043,-1.0312983989715576
400,43462,43459,-0.060506582260131836,-0.0035725226625800133,1.0673913955688477,-1.5720309019088745,0.16765034198760986,5.7025604248046875,2.031567096710205,3.8618178367614746,0.29735854268074036,-0.18662211298942566,-0.38561704754829407,-0.9703428149223328
401,43472,43469,0.06165415793657303,-0.023052241653203964,0.9767871499061584,1.0375243425369263,0.9535147547721863,4.977036952972412,2.031815528869629,3.8618922233581543,0.2976383566856384,-0.13423067331314087,-0.395086407661438,-0.8760577440261841
402,43482,43479,0.06139722838997841,-0.04608003795146942,0.9791234135627747,3.8774027824401855,-3.8565659523010254,3.950584650039673,2.0315091609954834,3.8621366024017334,0.2981341779232025,0.0018937457352876663,-0.3559844493865967,-0.8698728680610657
403,43492,43489,-0.022871503606438637,-0.03175726532936096,1.016266107559204,2.7415199279785156,-3.6440646648406982,3.3938148021698,2.0342912673950195,3.861105442047119,0.29833030700683594,-0.15485350787639618,-0.2981853783130646,-0.8336654305458069
404,43502,43499,0.0215422585606575,0.005916160065680742,1.0002657175064087,2.7164196968078613,-4.652655601501465,2.6309382915496826,2.0330393314361572,3.8594226837158203,0.2986967861652374,0.019276075065135956,-0.2521095871925354,-0.8741559386253357
405,43512,43509,-0.02338537760078907,0.026911867782473564,1.014554738998413,4.587551593780518,-6.8288726806640625,2.7279932498931885,2.0339038372039795,3.859886884689331,0.2989756464958191,0.0473918579518795,-0.2800126075744629,-0.8852568864822388
406,43522,43519,-0.03371299058198929,0.10879062116146088,0.9556355476379395,3.2921383380889893,-3.4213271141052246,1.7072139978408813,2.033428430557251,3.858997344970703,0.30326026678085327,0.16645516455173492,-0.21019020676612854,-0.8421627283096313
407,43532,43529,0.004185641650110483,0.139588862657547,0.9778172373771667,4.257779121398926,0.1629466563463211,0.49772486090660095,2.0341830253601074,3.858643054962158,0.30375999212265015,0.22678707540035248,-0.15194985270500183,-0.8811747431755066
408,43542,43539,-0.014345224015414715,0.08922918140888214,1.0294989347457886,3.9372217655181885,4.053463459014893,-0.6759892702102661,2.035069227218628,3.8574695587158203,0.3042362928390503,0.21440786123275757,-0.0824229046702385,-0.8917920589447021
409,43552,43549,0.02324546128511429,-0.07909997552633286,0.9321708083152771,1.3955762386322021,3.7235236167907715,-0.7361244559288025,2.0379388332366943,3.856778860092163,0.3048839569091797,-0.00401519937440753,-0.024753129109740257,-0.9245480298995972
410,43562,43559,-0.03219858929514885,-0.15194758772850037,1.0305601358413696,-1.8302894830703735,1.809935212135315,-1.4267562627792358,2.038832902908325,3.8570520877838135,0.30540457367897034,0.019218020141124725,-0.01956041157245636,-0.9288204908370972
411,43572,43569,-0.05711210146546364,-0.12627866864204407,1.0395658016204834,-5.547855377197266,-0.3667125105857849,-2.456753969192505,2.039252519607544,3.857717990875244,0.30598536133766174,0.07624849677085876,-0.14574390649795532,-0.9654326438903809
412,43582,43579,-0.001848587766289711,-0.12833628058433533,0.9254587888717651,-7.307586669921875,-1.632637858390808,-2.7449564933776855,2.039919376373291,3.8571693897247314,0.3058040142059326,0.08370578289031982,-0.17480970919132233,-1.1036837100982666
413,43592,43589,-0.007665954064577818,-0.08281238377094269,0.9518912434577942,-7.954862117767334,-1.141299843788147,-1.2382334470748901,2.0393636226654053,3.8556299209594727,0.3061939775943756,0.13926899433135986,-0.3019820749759674,-1.1290686130523682
414,43602,43599,0.04251271113753319,0.03469942510128021,0.952556312084198,-9.42284107208252,-0.7547482848167419,-0.5943735837936401,2.0412964820861816,3.855984687805176,0.3065289855003357,0.10148140043020248,-0.4305109977722168,-1.1237818002700806
415,43612,43609,0.08435950428247452,0.0585298053920269,0.881827175617218,-8.797656059265137,-2.3372035026550293,-0.1129075139760971,2.0430381298065186,3.8574154376983643,0.3067271113395691,0.09124762564897537,-0.5752897262573242,-1.1153640747070312
416,43622,43619,0.06702473014593124,0.009081527590751648,0.8614294528961182,-4.291847229003906,-6.742204666137695,0.8956441879272461,2.043527126312256,3.855896234512329,0.3055826723575592,0.19228488206863403,-0.5358565449714661,-1.1387895345687866
417,43632,43629,0.0032476105261594057,-0.021696312353014946,0.9444257616996765,0.19039101898670197,-4.118676662445068,1.595186710357666,2.0429046154022217,3.85536789894104,0.3055069148540497,0.301630437374115,-0.5792750716209412,-1.2003710269927979
418,43642,43639,0.017123300582170486,-0.03020739182829857,0.9474453926086426,4.205820560455322,-1.2743899822235107,2.733466863632202,2.043686866760254,3.854649066925049,0.30544692277908325,0.35927069187164307,-0.5484380125999451,-1.1920477151870728
419,43652,43649,-0.006892639212310314,0.024669233709573746,1.0180836915969849,7.017997741699219,-0.4743301272392273,4.43353271484375,2.0443460941314697,3.853562116622925,0.3069596290588379,0.3701191246509552,-0.4565774202346802,-1.2002646923065186
420,43662,43659,-0.03480959311127663,0.09226473420858383,1.0492233037948608,6.833303928375244,3.2187602519989014,5.614676475524902,2.0458953380584717,3.8538973331451416,0.30690595507621765,0.2724384069442749,-0.41276150941848755,-1.1305190324783325
421,43672,43669,-0.026444369927048683,0.04696722701191902,0.9987090826034546,6.883594512939453,7.333569049835205,6.373350143432617,2.047398328781128,3.8538999557495117,0.3069162368774414,0.19596682488918304,-0.29844725131988525,-1.0753021240234375
422,43682,43679,-0.008393954485654831,-0.003652008716017008,0.9913958311080933,6.699622631072998,7.152888774871826,7.145913124084473,2.0473179817199707,3.854058027267456,0.30564162135124207,0.15784762799739838,-0.25534480810165405,-1.035920262336731
423,43692,43689,-0.0037187959533184767,-0.06114012002944946,0.9789078235626221,4.685761451721191,5.11000394821167,7.729365825653076,2.0473811626434326,3.85351300239563,0.30560874938964844,0.13180764019489288,-0.14207951724529266,-0.9404427409172058
424,43702,43699,-0.009372713044285774,-0.01979987323284149,0.9916999340057373,1.7642165422439575,2.9368715286254883,6.864655494689941,2.0474438667297363,3.853576183319092,0.30560824275016785,0.1326955407857895,-0.15021443367004395,-0.888892650604248
425,43712,43709,0.00011769954289775342,0.0016352649545297027,0.995114266872406,-0.25414231419563293,0.9348710775375366,6.447562217712402,2.048659324645996,3.8542652130126953,0.30708327889442444,0.09321225434541702,-0.1965196579694748,-0.8232204914093018
426,43722,43719,0.07761956006288528,-0.006084325257688761,0.9321110248565674,-2.0302720069885254,1.0436631441116333,5.46145486831665,2.0506880283355713,3.8539369106292725,0.3070366084575653,-0.020311038941144943,-0.19810782372951508,-0.7723010778427124
427,43732,43729,0.026051228865981102,0.03523678332567215,1.0107449293136597,-2.8653693199157715,2.3813726902008057,4.763473987579346,2.0508527755737305,3.8537437915802,0.307087779045105,0.05945504084229469,-0.14902697503566742,-0.73922199010849
428,43742,43739,0.07587321102619171,-0.012785802595317364,0.971986711025238,-3.39188814163208,-0.7636260390281677,3.061387777328491,2.0523648262023926,3.854510545730591,0.3069755733013153,-0.022778674960136414,-0.19150525331497192,-0.6393980979919434
429,43752,43749,-0.018725793808698654,-0.006102518178522587,1.021156907081604,-5.508075714111328,-2.2583374977111816,1.484350562095642,2.0533828735351562,3.8554790019989014,0.3048076927661896,0.016105344519019127,-0.3280101418495178,-0.5964108109474182
430,43762,43759,-0.02660810574889183,-0.10760392248630524,1.0186469554901123,-4.011297225952148,-4.753420829772949,0.16015034914016724,2.0530202388763428,3.85673451423645,0.30470654368400574,0.15030907094478607,-0.4057439863681793,-0.5600704550743103
431,43772,43769,-0.02653185836970806,-0.11167147755622864,1.0512052774429321,2.6618547439575195,-5.013266563415527,0.10397219657897949,2.0551328659057617,3.856276273727417,0.30449947714805603,0.06859196722507477,-0.4231732487678528,-0.5907609462738037
432,43782,43779,-0.009822996333241463,-0.025791846215724945,1.0396802425384521,9.777226448059082,-2.5841026306152344,-0.37128615379333496,2.0556161403656006,3.855774164199829,0.3025226891040802,0.13945144414901733,-0.3216145634651184,-0.5897619724273682
433,43792,43789,0.00463500153273344,0.0745384618639946,0.9934980869293213,11.70875358581543,-2.8105363845825195,-0.8744397163391113,2.055706024169922,3.8557660579681396,0.30240869522094727,0.25929269194602966,-0.20528557896614075,-0.6031520962715149
434,43802,43799,-0.032829366624355316,0.031783055514097214,1.040887713432312,12.27312183380127,1.93114173412323,-3.019854784011841,2.055460214614868,3.8565919399261475,0.3022959530353546,0.3519290089607239,-0.13682851195335388,-0.5954933762550354
435,43812,43809,-0.04218257591128349,0.10124701261520386,0.9934318661689758,10.157196998596191,5.006412029266357,-3.0240864753723145,2.0556397438049316,3.8564703464508057,0.3021024167537689,0.29060396552085876,0.0020770702976733446,-0.6295138597488403
436,43822,43819,0.001553798676468432,0.06055751442909241,0.9888498783111572,9.69521713256836,10.42617130279541,-3.117657423019409,2.0584206581115723,3.856200933456421,0.3018825948238373,0.01743856631219387,0.10717564076185226,-0.6814486980438232
437,43832,43829,0.009625598788261414,-0.0016547366976737976,0.9897315502166748,7.329661846160889,9.685866355895996,-1.572022795677185,2.0586135387420654,3.8562614917755127,0.3018071949481964,-0.0062383986078202724,0.2730989158153534,-0.6828985214233398
438,43842,43839,-0.018771881237626076,-0.009443115442991257,1.0210832357406616,5.1162800788879395,12.582493782043457,-1.3524584770202637,2.0595903396606445,3.8565666675567627,0.3016551434993744,-0.1127689927816391,0.31913405656814575,-0.6771796941757202
439,43852,43849,-0.0026788630057126284,0.011864641681313515,1.0240970849990845,3.3247642517089844,5.541136264801025,-0.2637045085430145,2.061213493347168,3.8576250076293945,0.3055401146411896,-0.2806495726108551,0.33784133195877075,-0.7031941413879395
440,43862,43859,-0.022793864831328392,0.033884260803461075,1.0209404230117798,1.4124418497085571,-0.4597032070159912,1.6953964233398438,2.0607266426086426,3.857877492904663,0.30581754446029663,-0.1855115443468094,0.3934154212474823,-0.6524556875228882
441,43872,43869,-0.020253097638487816,0.0016216806834563613,0.9746154546737671,0.9401845932006836,-7.558210372924805,3.580963373184204,2.0607872009277344,3.8584978580474854,0.30597323179244995,-0.1307010054588318,0.3541485071182251,-0.6244392395019531
442,43882,43879,0.0243516955524683,-0.11001701653003693,1.00192391872406,-0.3811163902282715,-10.589791297912598,4.261547088623047,2.061434268951416,3.8586721420288086,0.30645260214805603,-0.05941515043377876,0.3810867965221405,-0.5674179792404175
443,43892,43889,0.003496458288282156,-0.08653715252876282,1.0566515922546387,-1.5649700164794922,-9.718411445617676,4.535099983215332,2.0616953372955322,3.859102725982666,0.30667439103126526,0.10428544878959656,0.30786076188087463,-0.5656982660293579
444,43902,43899,0.01420685090124607,-0.13801386952400208,1.043123722076416,-0.7992566823959351,-6.90373420715332,4.524659156799316,2.0620405673980713,3.86067795753479,0.306948721408844,0.2274080365896225,0.14781491458415985,-0.5263866782188416
445,43912,43909,0.05936263129115105,-0.20222267508506775,1.0007845163345337,2.795377254486084,-3.9009368419647217,4.374103546142578,2.0634679794311523,3.8597354888916016,0.30797073245048523,0.23885485529899597,0.2683190107345581,-0.4848681092262268
446,43922,43919,0.03531065955758095,-0.09892918914556503,1.0295679569244385,6.047921657562256,-0.12623649835586548,3.8908746242523193,2.0635786056518555,3.8596160411834717,0.30837106704711914,0.3618433475494385,0.35823431611061096,-0.44025224447250366
447,43932,43929,-0.02304811030626297,0.004292829893529415,0.9745425581932068,7.962780952453613,1.0855075120925903,5.293675899505615,2.0635383129119873,3.8590664863586426,0.30872055888175964,0.42089200019836426,0.4882086515426636,-0.39957720041275024
448,43942,43939,-0.03972005099058151,-0.015782315284013748,0.9997438192367554,9.266312599182129,5.891593933105469,6.122293949127197,2.0647876262664795,3.8594324588775635,0.30903303623199463,0.27313634753227234,0.5636243224143982,-0.3263465166091919
449,43952,43949,-0.020366840064525604,-0.11058533936738968,0.9704920053482056,7.801005840301514,17.88894271850586,5.989851474761963,2.065211534500122,3.8601346015930176,0.3082216680049896,0.17766067385673523,0.5730754137039185,-0.316032350063324
450,43962,43959,0.06612887233495712,-0.03901902213692665,0.956944465637207,4.541198253631592,15.559374809265137,6.088046550750732,2.0652503967285156,3.859419584274292,0.3084532618522644,0.03684024512767792,0.6997491121292114,-0.221205472946167
451,43972,43969,0.06559059023857117,-0.06930839270353317,0.9723523259162903,-1.668161392211914,8.141240119934082,5.568820953369141,2.0655367374420166,3.859694480895996,0.3086805045604706,-0.07684119045734406,0.6704552173614502,-0.1809857040643692
452,43982,43979,-0.0020821657963097095,0.053506240248680115,1.0024343729019165,-7.913271903991699,0.8489258289337158,4.8928961753845215,2.066213846206665,3.8602795600891113,0.3082427382469177,-0.12276455760002136,0.6117555499076843,-0.11739254742860794
453,43992,43989,-0.05160246416926384,0.042869485914707184,0.9982345104217529,-10.120763778686523,-6.145114898681641,3.3811213970184326,2.065338373184204,3.8605310916900635,0.3084619641304016,0.020986219868063927,0.46029865741729736,-0.08097231388092041
454,44002,43999,-0.06948211044073105,-0.018174979835748672,0.9728562235832214,-7.22483491897583,-6.840061187744141,3.010671854019165,2.0648884773254395,3.8603358268737793,0.3084859549999237,0.16018465161323547,0.401166707277298,-0.05235721915960312
455,44012,44009,-0.020597731694579124,0.0134512260556221,1.0007065534591675,-1.6332706212997437,-5.102885723114014,2.5861809253692627,2.0656778812408447,3.8610241413116455,0.3087548017501831,0.20570015907287598,0.334299236536026,0.006778231356292963
456,44022,44019,-0.06575986742973328,0.0619782917201519,1.0219545364379883,2.703742027282715,5.212558269500732,3.013667345046997,2.0677998065948486,3.8605878353118896,0.3089144825935364,0.08732440322637558,0.34558698534965515,0.00873132236301899
457,44032,44029,-0.05442134290933609,0.13406263291835785,1.033302903175354,8.7263765335083,17.534730911254883,3.998854637145996,2.067155599594116,3.860534906387329,0.30912214517593384,0.040786731988191605,0.4473992884159088,0.056668661534786224
458,44042,44039,-0.009684862568974495,0.09778273850679398,0.9375245571136475,9.88117504119873,21.894004821777344,3.640302896499634,2.0682361125946045,3.8595187664031982,0.30919864773750305,-0.21176664531230927,0.6236283779144287,0.0705181285738945
459,44052,44049,0.04479116201400757,0.03262854740023613,0.9283515214920044,7.406317710876465,17.064891815185547,4.190053939819336,2.0672829151153564,3.8594882488250732,0.309449702501297,-0.29628637433052063,0.7188968062400818,0.11348407715559006
460,44062,44059,0.08708736300468445,-0.0722380205988884,0.9470255970954895,2.012101411819458,9.898943901062012,4.021514892578125,2.067671775817871,3.859795570373535,0.309592068195343,-0.3954402506351471,0.7327808737754822,0.15846037864685059
461,44072,44069,0.07344336062669754,-0.16941538453102112,0.9902556538581848,-1.866944670677185,2.6784398555755615,3.648404598236084,2.068131446838379,3.8594586849212646,0.30959755182266235,-0.479965478181839,0.7410517930984497,0.20278775691986084
462,44082,44079,0.05326646566390991,-0.2237612009048462,0.9625990986824036,-9.730049133300781,1.0170269012451172,1.0702160596847534,2.0680792331695557,3.860262632369995,0.3118285834789276,-0.5036311149597168,0.6331706047058105,0.22585846483707428
463,44092,44089,-0.010828935541212559,-0.10304057598114014,0.9993033409118652,-15.284268379211426,3.440807580947876,-1.0379211902618408,2.06734037399292,3.859959363937378,0.3119795024394989,-0.43808600306510925,0.49240607023239136,0.22154958546161652
464,44102,44099,-0.09247322380542755,0.02713147923350334,0.9539060592651367,-15.279688835144043,1.2414231300354004,-2.910693883895874,2.0674209594726562,3.8607025146484375,0.3120996654033661,-0.43237802386283875,0.29322588443756104,0.1565425992012024
465,44112,44109,-0.12696146965026855,0.08861830085515976,0.9705780744552612,-13.549681663513184,1.5865997076034546,-3.81854248046875,2.0673670768737793,3.860748767852783,0.3104029893875122,-0.4466806948184967,0.12559254467487335,0.17171895503997803
466,44122,44119,-0.13566181063652039,0.09237664192914963,0.9844794869422913,-10.321636199951172,0.7269284129142761,-4.6644158363342285,2.067631721496582,3.859981060028076,0.3104032278060913,-0.47572916746139526,0.08412139117717743,0.14599768817424774
467,44132,44129,-0.09803903847932816,0.13440190255641937,1.0112366676330566,-4.99229097366333,1.7122509479522705,-4.841499328613281,2.0680112838745117,3.859839677810669,0.31031250953674316,-0.4986412525177002,0.11201905459165573,0.12498217076063156
468,44142,44139,-0.06394635140895844,0.20532913506031036,0.9623287320137024,0.03476859629154205,4.737656593322754,-5.335918426513672,2.0669918060302734,3.860530376434326,0.31041112542152405,-0.5349481105804443,0.06232118234038353,0.1669527143239975
469,44152,44149,-0.06693963706493378,0.18335841596126556,0.9133709669113159,1.7663629055023193,7.248321056365967,-5.8393354415893555,2.066195249557495,3.8612005710601807,0.3103328049182892,-0.44652944803237915,0.07540801912546158,0.09690540283918381
470,44162,44159,0.0014999336563050747,0.07446138560771942,0.8584760427474976,1.7293058633804321,9.148496627807617,-5.526486396789551,2.0666422843933105,3.8606104850769043,0.3101440370082855,-0.5695772767066956,0.09660617262125015,0.047165218740701675
471,44172,44169,5.8806555898627266e-05,0.052426036447286606,0.9774177074432373,1.8369218111038208,11.265775680541992,-4.459334850311279,2.067322254180908,3.8599774837493896,0.30985456705093384,-0.7171980142593384,0.11366069316864014,-0.008549083955585957
472,44182,44179,0.017061704769730568,0.10071030259132385,1.0126638412475586,2.60628080368042,14.719951629638672,-4.378891944885254,2.067829132080078,3.8603758811950684,0.3053954243659973,-0.8993642330169678,0.14044412970542908,-0.05539048835635185
473,44192,44189,0.012849198654294014,0.10078689455986023,1.0048798322677612,2.897218942642212,13.686180114746094,-4.523528575897217,2.068451166152954,3.861095905303955,0.3047453463077545,-1.0724483728408813,0.1792708784341812,-0.026352999731898308
474,44202,44199,-0.006061881314963102,0.0922510176897049,1.025988221168518,2.3538424968719482,6.081985950469971,-4.326738357543945,2.0682594776153564,3.86181640625,0.304173082113266,-1.0855731964111328,0.1827474981546402,0.019606349989771843
475,44212,44209,0.002270311815664172,-0.04408473148941994,1.0053788423538208,0.7826340198516846,3.626713275909424,-3.3690593242645264,2.0674853324890137,3.861924171447754,0.3031013607978821,-1.015442967414856,0.2057761698961258,-0.014479859732091427
476,44222,44219,0.01983039267361164,-0.014661782421171665,1.0027354955673218,-1.9998329877853394,2.0374701023101807,-2.391698122024536,2.0675878524780273,3.861981153488159,0.30247607827186584,-1.0715688467025757,0.19529810547828674,-0.09743385016918182
477,44232,44229,-0.03218648210167885,0.04424620419740677,1.0521986484527588,-8.198407173156738,7.080048084259033,-1.2634477615356445,2.0679452419281006,3.8614137172698975,0.3018183410167694,-1.1752800941467285,0.14106503129005432,-0.11240096390247345
478,44242,44239,-0.0153350206092,-0.08074209839105606,1.034209132194519,-10.109183311462402,13.165772438049316,-1.600257396697998,2.06901478767395,3.860588550567627,0.3010726869106293,-1.283540964126587,0.1370207965373993,-0.1531532108783722
479,44252,44249,-0.017634058371186256,0.0947263091802597,0.981532096862793,-10.478460311889648,13.417922019958496,-1.4564446210861206,2.0695273876190186,3.8614068031311035,0.3005419075489044,-1.3411924839019775,-0.049178510904312134,-0.15095825493335724
