,timestamp_start,timestamp_end,acc.x,acc.y,acc.z,gyro.x,gyro.y,gyro.z,stateEstimate.x,stateEstimate.y,stateEstimate.z,stabilizer.pitch,stabilizer.roll,stabilizer.yaw
0,47941,47939,-0.021317286416888237,0.03327762335538864,0.9427222609519958,1.9355510473251343,13.02475357055664,-1.3543919324874878,2.0210494995117188,3.964647054672241,0.1733664721250534,0.7170225381851196,-1.1550688743591309,3.132833957672119
1,47951,47949,-0.04737595468759537,0.03158550336956978,1.0242174863815308,3.5447332859039307,22.73944854736328,-1.21039617061615,2.021827220916748,3.966322898864746,0.17694661021232605,0.2195693403482437,-1.0920225381851196,3.1622259616851807
2,47961,47959,0.034879107028245926,-0.047718893736600876,0.968517005443573,5.014694690704346,29.994537353515625,-1.888062834739685,2.019824266433716,3.966094493865967,0.17884165048599243,-0.015251980163156986,-1.1431001424789429,3.1435353755950928
3,47971,47969,-0.028324050828814507,0.037036895751953125,1.0582526922225952,7.065551280975342,30.97100067138672,-1.8363699913024902,2.019923210144043,3.9673683643341064,0.18090146780014038,-0.4392430782318115,-0.9447824358940125,3.136479139328003
4,47981,47979,-0.04822868853807449,-0.01523797307163477,0.9775324463844299,10.951415061950684,26.931230545043945,-1.9717556238174438,2.0194168090820312,3.967871904373169,0.18301868438720703,-0.8934081792831421,-0.9142003655433655,3.131074905395508
5,47991,47989,-0.04653565213084221,0.03294876962900162,0.9490649700164795,11.114293098449707,19.409955978393555,-1.7107309103012085,2.019131660461426,3.9703593254089355,0.1849701851606369,-1.177040934562683,-0.9171329140663147,3.107712745666504
6,48001,47999,0.020611809566617012,-0.04218442365527153,0.9919255375862122,10.423630714416504,8.013535499572754,-1.2051526308059692,2.018918752670288,3.9719302654266357,0.18720345199108124,-1.2886055707931519,-0.692358672618866,3.09330677986145
7,48011,48009,0.05622180551290512,-0.2892523407936096,1.0924994945526123,12.084673881530762,-1.984724760055542,-1.4405968189239502,2.019202470779419,3.9728081226348877,0.18758469820022583,-1.3970822095870972,-0.5656581521034241,3.096630334854126
8,48021,48019,-0.011169295758008957,-0.02359870821237564,1.0774134397506714,12.601633071899414,-8.431138038635254,-1.408898949623108,2.0192313194274902,3.973456621170044,0.18957392871379852,-1.3871808052062988,-0.40326085686683655,3.0946075916290283
9,48031,48029,0.0366533026099205,-0.004751044791191816,0.9265705347061157,11.489273071289062,-12.031784057617188,-0.9813627004623413,2.018491506576538,3.9734015464782715,0.19161590933799744,-1.3222342729568481,-0.3146318197250366,3.0768115520477295
10,48041,48039,0.029573606327176094,0.009453587234020233,0.973532497882843,8.343103408813477,-14.325263023376465,-1.0385130643844604,2.017667770385742,3.972855567932129,0.19233836233615875,-1.1737679243087769,-0.12888361513614655,3.079486131668091
11,48051,48049,-0.005523185711354017,-0.08176478743553162,1.0169291496276855,4.950103282928467,-11.793782234191895,-1.0531649589538574,2.01768159866333,3.973693370819092,0.19422493875026703,-1.1040065288543701,-0.008532603271305561,3.08020281791687
12,48061,48059,0.00814769696444273,-0.04683978855609894,1.0107845067977905,0.6745131015777588,-8.226115226745605,-0.5250797867774963,2.0173263549804688,3.9731392860412598,0.19615735113620758,-0.9997305870056152,0.035347577184438705,3.072514533996582
13,48071,48069,0.01300802081823349,0.03296787664294243,1.013880968093872,-1.7737632989883423,-4.847664833068848,-0.5496867895126343,2.0168616771698,3.973738431930542,0.1977197378873825,-0.8799957036972046,-0.031675372272729874,3.0542595386505127
14,48081,48079,0.027004141360521317,0.026866838335990906,1.0549861192703247,-1.1868383884429932,-3.2065517902374268,-0.5398238897323608,2.015148878097534,3.973371744155884,0.19961446523666382,-0.7337572574615479,0.031932584941387177,3.0647871494293213
15,48091,48089,-0.044119417667388916,0.031046602874994278,1.0432908535003662,-1.9868531227111816,-0.03768249228596687,-0.6837703585624695,2.014742136001587,3.9728987216949463,0.2015976905822754,-0.7807267308235168,0.08786613494157791,3.0674777030944824
16,48101,48099,0.0351233035326004,-0.03476238250732422,0.968772292137146,-2.7542572021484375,3.0001375675201416,-0.7894506454467773,2.01277756690979,3.972395658493042,0.20340533554553986,-0.5907175540924072,0.11023646593093872,3.072688579559326
17,48111,48109,-0.018663449212908745,0.024321453645825386,1.0463157892227173,-0.10423765331506729,3.2000036239624023,-1.0486998558044434,2.0144219398498535,3.9739325046539307,0.2056836485862732,-0.943924605846405,0.07401236146688461,3.0495409965515137
18,48121,48119,-0.005291481968015432,-0.055411290377378464,0.9928832650184631,0.4626709520816803,2.500856399536133,-0.8954194188117981,2.0122313499450684,3.9717042446136475,0.20750710368156433,-0.6162868738174438,0.6300082206726074,3.1544435024261475
19,48131,48129,-0.05382377281785011,0.09228967130184174,1.003302812576294,-0.8142282962799072,0.4705706238746643,-1.5042591094970703,2.01227068901062,3.972275733947754,0.21001160144805908,-0.7115400433540344,0.5469521880149841,3.1224284172058105
20,48141,48139,-0.05698331445455551,0.183876633644104,0.9548532366752625,-6.8291192054748535,1.6185920238494873,-1.29833984375,2.01206374168396,3.971644639968872,0.21394552290439606,-0.8132849335670471,0.4860934913158417,3.0910494327545166
21,48151,48149,-0.024670114740729332,0.021443413570523262,0.9643683433532715,-13.306106567382812,1.311187982559204,-1.1551655530929565,2.0128026008605957,3.9719865322113037,0.21637116372585297,-0.9719072580337524,0.2474965900182724,3.043185234069824
22,48161,48159,-0.01680944859981537,-0.02998318150639534,1.0063741207122803,-17.219009399414062,0.2260618656873703,-1.0711551904678345,2.012604236602783,3.9733433723449707,0.21855251491069794,-1.0290946960449219,0.007041085045784712,3.0125319957733154
23,48171,48169,0.020618414506316185,-0.08874177187681198,0.9763314723968506,-19.04441261291504,2.2875254154205322,-0.9568892121315002,2.0152294635772705,3.974247455596924,0.22209063172340393,-1.3281906843185425,-0.11277466267347336,2.981464385986328
24,48181,48179,0.04177284240722656,-0.09350643306970596,0.9918754696846008,-13.067085266113281,-6.04652214050293,-0.8737305998802185,2.014211416244507,3.9746015071868896,0.22441086173057556,-1.256645679473877,-0.4177599847316742,2.951730728149414
25,48191,48189,0.0062616863287985325,-0.03494444489479065,1.023105502128601,-8.554978370666504,-10.123575210571289,-0.3968638479709625,2.013845443725586,3.9762327671051025,0.2266414314508438,-1.1239088773727417,-0.6297431588172913,2.931790590286255
26,48201,48199,0.03810650482773781,-0.06375633925199509,0.9615857601165771,-2.295215368270874,-14.969282150268555,-0.29822424054145813,2.012951135635376,3.976097822189331,0.22606612741947174,-0.9097619652748108,-0.7415692806243896,2.9255385398864746
27,48211,48209,-0.05688508599996567,-0.03330233320593834,1.0407381057739258,5.179614543914795,-17.540393829345703,-0.14278729259967804,2.0111677646636963,3.9756181240081787,0.22804374992847443,-0.7080132961273193,-0.7373940348625183,2.9215614795684814
28,48221,48219,0.03954440355300903,-0.040144965052604675,0.9757786393165588,11.075302124023438,-13.691064834594727,-0.07910864800214767,2.0103888511657715,3.9757771492004395,0.23013389110565186,-0.4784635305404663,-0.5484524369239807,2.9448680877685547
29,48231,48229,0.0303299892693758,0.0002106992033077404,0.9830593466758728,13.3700590133667,-13.302303314208984,-0.09675692021846771,2.0148985385894775,3.9744887351989746,0.23243887722492218,-0.9070612192153931,-0.36252880096435547,2.9379680156707764
30,48241,48239,0.010702366009354591,-0.019822031259536743,0.9451822638511658,10.767561912536621,-9.240642547607422,-0.31363624334335327,2.0153605937957764,3.974391222000122,0.2329220473766327,-0.7321090698242188,-0.18027833104133606,2.947071075439453
31,48251,48249,-0.018809111788868904,-0.024011123925447464,0.9697023630142212,5.265676975250244,-9.163948059082031,-0.8257694840431213,2.016512393951416,3.9760663509368896,0.23470038175582886,-0.8215516209602356,-0.22648391127586365,2.917229652404785
32,48261,48259,0.008653019554913044,-0.01305179949849844,0.953112781047821,-1.422773838043213,-11.019697189331055,-1.1586778163909912,2.01619815826416,3.975938320159912,0.23683218657970428,-0.5796806216239929,-0.21228373050689697,2.9082179069519043
33,48271,48269,-0.013384565711021423,-0.00994021911174059,0.9710831046104431,-6.8086628913879395,-14.217442512512207,-1.4717823266983032,2.0159106254577637,3.976740837097168,0.24230721592903137,-0.3059791326522827,-0.29427269101142883,2.8919780254364014
34,48281,48279,0.004205489996820688,-0.029699042439460754,0.941615104675293,-8.117295265197754,-14.499089241027832,-1.841209053993225,2.0178463459014893,3.9792351722717285,0.24421578645706177,-0.37755775451660156,-0.5052512884140015,2.8519198894500732
35,48291,48289,0.0029149455949664116,0.03269697725772858,0.9328354597091675,-6.488858699798584,-14.444605827331543,-1.8959234952926636,2.018552780151367,3.98315167427063,0.2460748255252838,-0.29842886328697205,-0.6250171661376953,2.82731032371521
36,48301,48299,0.036176711320877075,-0.0109479995444417,0.9536697268486023,-0.9466885924339294,-16.463926315307617,-1.7978637218475342,2.0181751251220703,3.9835054874420166,0.2507617175579071,-0.0383971706032753,-0.6782222986221313,2.813040018081665
37,48311,48309,0.040068648755550385,-0.0787455290555954,1.0046454668045044,4.996508598327637,-16.37913703918457,-1.605185627937317,2.020085096359253,3.9880473613739014,0.2527482807636261,0.013651962392032146,-0.6397703289985657,2.7972524166107178
38,48321,48319,0.029935959726572037,-0.09215567260980606,0.9960483908653259,10.895490646362305,-14.978585243225098,-1.5975133180618286,2.019760847091675,3.989853620529175,0.2548770308494568,0.28782111406326294,-0.5673680901527405,2.787770986557007
39,48331,48329,0.03363107889890671,-0.07648095488548279,0.9258539080619812,13.397679328918457,-13.072821617126465,-1.5520378351211548,2.020848035812378,3.9934864044189453,0.25671252608299255,0.298414021730423,-0.5683914422988892,2.766085386276245
40,48341,48339,0.046184081584215164,-0.07305743545293808,0.9224230051040649,13.938810348510742,-10.587383270263672,-1.497843861579895,2.0206096172332764,3.99534010887146,0.2585495412349701,0.5781362652778625,-0.3032110631465912,2.7549047470092773
41,48351,48349,0.00588708370923996,-0.02031564898788929,0.9369702935218811,12.933956146240234,-9.320511817932129,-1.8413962125778198,2.0214293003082275,3.994896173477173,0.26039502024650574,0.6641775965690613,-0.05307804048061371,2.7420923709869385
42,48361,48359,0.021348554641008377,-0.08721502125263214,0.8754801750183105,9.493952751159668,-7.427550315856934,-1.8137171268463135,2.0222368240356445,3.9978084564208984,0.2621678411960602,0.7896744608879089,0.06921688467264175,2.7236151695251465
43,48371,48369,0.012891001999378204,-0.07108654081821442,0.9128836989402771,4.6480183601379395,-6.224431037902832,-2.1425344944000244,2.022508382797241,3.99916934967041,0.26626232266426086,0.9736701846122742,0.12053129822015762,2.706068992614746
44,48381,48379,0.01329155545681715,-0.05097965896129608,0.9297189116477966,-0.5131363272666931,-3.516021251678467,-2.533285140991211,2.0227649211883545,4.001607894897461,0.26799502968788147,0.9527799487113953,0.1644166260957718,2.6818180084228516
45,48391,48389,-0.009363187476992607,-0.02506457269191742,0.9317225813865662,-2.7742879390716553,-2.574876308441162,-2.75591778755188,2.022843360900879,4.004255294799805,0.26966392993927,1.0368772745132446,0.1397787183523178,2.6567158699035645
46,48401,48399,-0.08489562571048737,0.030382655560970306,0.9426478147506714,-4.915590763092041,2.766634225845337,-2.268956184387207,2.0219459533691406,4.003765106201172,0.2678643465042114,1.1246607303619385,0.08853818476200104,2.631162166595459
47,48411,48409,-0.014866328798234463,-0.030138568952679634,0.9397037625312805,-4.365856170654297,1.7888537645339966,-2.08324933052063,2.023498773574829,4.004894733428955,0.2692513167858124,0.9910829067230225,-0.057430073618888855,2.6132616996765137
48,48421,48419,-0.04029244929552078,0.009188258089125156,0.9688793420791626,-2.3100171089172363,2.3115386962890625,-2.0934650897979736,2.022784471511841,4.007088661193848,0.2705513834953308,1.0771229267120361,-0.1022433340549469,2.5969200134277344
49,48431,48429,0.05306250602006912,0.002052182098850608,0.9071493148803711,0.6620158553123474,3.363792896270752,-2.2355175018310547,2.023635149002075,4.008063316345215,0.27175846695899963,0.9958223104476929,-0.016756581142544746,2.5633535385131836
50,48441,48439,0.1431165486574173,0.023554574698209763,0.8758413195610046,4.039546012878418,0.9212245345115662,-2.6178953647613525,2.0249288082122803,4.008663654327393,0.2721808850765228,0.835672914981842,-0.03752487525343895,2.540395498275757
51,48451,48449,0.02354496158659458,0.01868492178618908,0.9485629796981812,5.0195841789245605,0.23230278491973877,-1.8716623783111572,2.0246360301971436,4.009856224060059,0.273152619600296,0.8823711276054382,-0.09443233907222748,2.532243013381958
52,48461,48459,0.07873634994029999,-0.09470855444669724,0.9408068656921387,6.149417400360107,-2.401771306991577,-1.7823877334594727,2.023529291152954,4.009284973144531,0.274095356464386,1.0155081748962402,0.029085969552397728,2.5105085372924805
53,48471,48469,0.013892958872020245,-0.026322415098547935,0.9521828293800354,6.149295330047607,-3.6648757457733154,-1.6218682527542114,2.023982286453247,4.009931564331055,0.2749153971672058,1.016056776046753,0.1527116894721985,2.4827821254730225
54,48481,48479,-0.026681600138545036,-0.06201231852173805,0.9659460186958313,5.331584930419922,-3.014458179473877,-1.5225744247436523,2.024526834487915,4.009366512298584,0.2757152020931244,1.039441466331482,0.2626830041408539,2.456650972366333
55,48491,48489,-0.0029713837429881096,-0.02472461760044098,0.9559856057167053,3.251216173171997,-1.3855149745941162,-1.7641191482543945,2.0242578983306885,4.012737274169922,0.27652743458747864,1.1077924966812134,0.19406603276729584,2.4604456424713135
56,48501,48499,0.005423740483820438,-0.020594418048858643,0.9653434157371521,0.13236340880393982,1.7847294807434082,-2.8097574710845947,2.023860454559326,4.013761520385742,0.27603524923324585,1.1401408910751343,0.24688144028186798,2.435299873352051
57,48511,48509,-0.06388963013887405,0.11491601914167404,0.976695716381073,-2.931469678878784,3.254991054534912,-1.9957867860794067,2.0245521068573,4.015428066253662,0.2768189311027527,1.118048906326294,0.22821739315986633,2.411351442337036
58,48521,48519,-0.013293946161866188,-0.026660418137907982,0.9577426910400391,-3.0429041385650635,2.5330138206481934,-1.9362776279449463,2.0253145694732666,4.016757965087891,0.2775138020515442,1.0038642883300781,0.19244393706321716,2.3882062435150146
59,48531,48529,-0.0350615419447422,-0.04203302413225174,0.9910724759101868,-2.0859291553497314,6.358366966247559,-1.4638886451721191,2.0255978107452393,4.018496036529541,0.27842068672180176,1.009273886680603,0.16881807148456573,2.3730087280273438
60,48541,48539,-0.0010134964250028133,-0.03973623365163803,0.9644307494163513,-0.6691448092460632,5.781682968139648,-1.1417057514190674,2.0266482830047607,4.019784450531006,0.2790525555610657,0.9211631417274475,0.16565614938735962,2.355983257293701
61,48551,48549,-0.01489125844091177,-0.003048289567232132,0.9992892146110535,0.4517573416233063,5.018182754516602,-1.4516702890396118,2.026784658432007,4.0201215744018555,0.2802487313747406,0.842938244342804,0.1829419583082199,2.337974786758423
62,48561,48559,0.0014914979692548513,-0.038287270814180374,0.973209798336029,2.0319700241088867,2.8999009132385254,-0.9365931153297424,2.0274035930633545,4.021948337554932,0.28026366233825684,0.7916011810302734,0.22003400325775146,2.3192226886749268
63,48571,48569,-0.00608478719368577,-0.0426693931221962,0.9374598860740662,3.259681224822998,2.12690806388855,-1.2818357944488525,2.027317762374878,4.022714614868164,0.2836602032184601,0.7591785788536072,0.2841032147407532,2.301947593688965
64,48581,48579,0.019094498828053474,-0.025047341361641884,0.9023664593696594,2.2693734169006348,6.511929512023926,-1.095280408859253,2.0269463062286377,4.025190353393555,0.2843703031539917,0.7179969549179077,0.19182747602462769,2.3103413581848145
65,48591,48589,0.040352918207645416,-0.05103890970349312,0.9444657564163208,1.3374124765396118,-0.1456940919160843,-0.36702823638916016,2.026533365249634,4.025662899017334,0.28501319885253906,0.7072924971580505,0.16428261995315552,2.3126115798950195
66,48601,48599,0.014609204605221748,0.04746446758508682,0.9599305987358093,-0.33583998680114746,-1.6455914974212646,-0.7175256013870239,2.024656057357788,4.026185512542725,0.2858053147792816,0.8767907023429871,0.3535318374633789,2.2908222675323486
67,48611,48609,0.028879616409540176,-0.03363163396716118,0.9519199132919312,0.11285385489463806,-3.066831350326538,-0.14136900007724762,2.025815963745117,4.028480052947998,0.28641220927238464,0.7632710337638855,0.20633551478385925,2.29823899269104
68,48621,48619,-0.027105599641799927,0.02921634539961815,1.024896502494812,-0.10782292485237122,-1.3239201307296753,-0.05556132271885872,2.0254106521606445,4.030628204345703,0.2869177758693695,0.8004540801048279,0.07087673991918564,2.3193199634552
69,48631,48629,0.022139398381114006,-0.06767534464597702,0.9549248218536377,0.3152342140674591,0.5353136658668518,-0.42695072293281555,2.023857831954956,4.02826452255249,0.28803545236587524,0.9477338194847107,0.4113765358924866,2.277378797531128
70,48641,48639,-0.060579899698495865,-0.04420538991689682,1.0000429153442383,1.1849350929260254,3.577789068222046,0.2754357159137726,2.0244412422180176,4.03373384475708,0.2887343168258667,0.84196937084198,-0.03254549577832222,2.3340516090393066
71,48651,48649,-0.09078250080347061,0.017458530142903328,0.9984512329101562,0.8327124118804932,6.689976215362549,-0.11564216762781143,2.022636890411377,4.030209064483643,0.289549857378006,0.9937956929206848,0.4167807102203369,2.2863919734954834
72,48661,48659,-0.006720387376844883,0.01821805350482464,0.996719241142273,0.9496368765830994,9.864851951599121,0.47756513953208923,2.0228471755981445,4.030785083770752,0.2900848686695099,0.891335129737854,0.49905937910079956,2.2754926681518555
73,48671,48669,0.00992256123572588,-0.08223604410886765,1.0078169107437134,1.0566983222961426,10.10677433013916,0.44064635038375854,2.0230541229248047,4.030813217163086,0.2918064594268799,0.705346941947937,0.5133312940597534,2.2749457359313965
74,48681,48679,0.012766513042151928,0.006870098877698183,1.0191482305526733,-0.5185720324516296,10.50912094116211,0.0850985124707222,2.0254433155059814,4.036452770233154,0.2927238643169403,0.2618732154369354,-0.017068712040781975,2.3226208686828613
75,48691,48689,-0.013875261880457401,-0.0027205999940633774,1.008671760559082,-2.8135173320770264,7.702613353729248,0.06752458214759827,2.025916814804077,4.037270545959473,0.2933642566204071,0.12130314111709595,-0.008985288441181183,2.315394878387451
76,48701,48699,0.01890465058386326,-0.02428620494902134,0.9681655764579773,-1.562961459159851,2.43023419380188,-0.3231184482574463,2.0244572162628174,4.03642463684082,0.2934276759624481,0.1958417296409607,-0.01524154469370842,2.3200676441192627
77,48711,48709,-0.03770742192864418,0.06409952044487,1.004639983177185,1.8594448566436768,0.13087806105613708,-1.273754358291626,2.024303436279297,4.0379557609558105,0.29401659965515137,0.19114817678928375,-0.04346274584531784,2.3178598880767822
78,48721,48719,-0.015814486891031265,0.09711512923240662,0.9848320484161377,6.746776580810547,-6.137328624725342,-0.3245852291584015,2.023859977722168,4.037220001220703,0.294684499502182,0.25778067111968994,0.07757443189620972,2.3088464736938477
79,48731,48729,-0.02391734905540943,0.04986238479614258,1.0588676929473877,10.184343338012695,-7.619661808013916,0.1117921993136406,2.022533655166626,4.038696765899658,0.29388320446014404,0.4761742353439331,0.10996963828802109,2.322416067123413
80,48741,48739,0.0021513011306524277,-0.005801589228212833,1.0008442401885986,10.982088088989258,-5.6518168449401855,-0.6237911581993103,2.022442579269409,4.038712501525879,0.2944631576538086,0.5721551775932312,0.33585816621780396,2.3122940063476562
81,48751,48749,-0.0378430001437664,0.08052968233823776,0.9734944105148315,10.107175827026367,-1.452060341835022,-1.0657256841659546,2.023313045501709,4.039870738983154,0.29506418108940125,0.4624880254268646,0.3981534242630005,2.2971622943878174
82,48761,48759,-0.06047419458627701,0.16691093146800995,0.9064212441444397,5.857332229614258,3.0520784854888916,-0.9442391991615295,2.0235793590545654,4.040519714355469,0.2960604131221771,0.4230775237083435,0.4853180944919586,2.2833166122436523
83,48771,48769,-0.04786054417490959,0.14192280173301697,0.9973628520965576,1.6969619989395142,6.4427080154418945,-1.056544542312622,2.021587610244751,4.040670394897461,0.29706642031669617,0.479093074798584,0.5062735676765442,2.279726266860962
84,48781,48779,-0.014943345449864864,0.03358771651983261,1.0648142099380493,-2.0856125354766846,8.212810516357422,-1.3520736694335938,2.0212249755859375,4.04117488861084,0.29706019163131714,0.4234705865383148,0.5248339772224426,2.2691938877105713
85,48791,48789,0.003488766960799694,-0.028187202289700508,1.0035414695739746,-3.755096673965454,7.729167938232422,-1.5277966260910034,2.020672082901001,4.04169225692749,0.29755470156669617,0.34773460030555725,0.5032631754875183,2.254549741744995
86,48801,48799,-0.01573028974235058,-0.012672129087150097,0.9785318374633789,-3.807788372039795,5.881563663482666,-1.3687748908996582,2.021066665649414,4.041543006896973,0.2990955412387848,0.21436573565006256,0.5369361639022827,2.232766628265381
87,48811,48809,0.0006859711720608175,0.10055091977119446,0.9197129011154175,-1.7189921140670776,3.928483247756958,-1.763290524482727,2.0213654041290283,4.042168140411377,0.2996683716773987,0.09378928691148758,0.5178199410438538,2.2089321613311768
88,48821,48819,-0.0034971139393746853,0.21338756382465363,0.9581678509712219,0.06729459762573242,1.7686511278152466,-1.7563797235488892,2.019808769226074,4.0416178703308105,0.3002321422100067,0.13559311628341675,0.5229332447052002,2.196505069732666
89,48831,48829,0.047505661845207214,-0.0050453245639801025,0.9352470636367798,1.0388472080230713,-0.7151471376419067,-1.8443127870559692,2.0199334621429443,4.039614677429199,0.2998277246952057,0.10811125487089157,0.6957841515541077,2.1720893383026123
90,48841,48839,-0.03148750588297844,-0.025256730616092682,1.0485979318618774,0.1483793705701828,-2.168381690979004,-1.9730730056762695,2.0195658206939697,4.040207862854004,0.30025869607925415,0.1095031276345253,0.6253252625465393,2.1512222290039062
91,48851,48849,-0.030812691897153854,0.06288162618875504,0.9771449565887451,-2.232282876968384,-1.7918410301208496,-1.5010485649108887,2.0188348293304443,4.039981842041016,0.30062243342399597,0.14208711683750153,0.6153204441070557,2.133155107498169
92,48861,48859,-0.0013490553246811032,0.0445321723818779,0.981385350227356,-4.978368759155273,-1.9314616918563843,-2.0873324871063232,2.0187413692474365,4.040919780731201,0.30294227600097656,0.14225949347019196,0.555864155292511,2.1147236824035645
93,48871,48869,-0.02667895145714283,-0.18003703653812408,0.9676455855369568,-6.171458721160889,0.06703703850507736,-1.5884002447128296,2.017927885055542,4.041046619415283,0.3034517467021942,0.15760992467403412,0.4573242962360382,2.0945372581481934
94,48881,48879,0.03961694985628128,0.05154884234070778,1.038234829902649,-6.263667583465576,1.8185210227966309,-1.6287050247192383,2.0179786682128906,4.0406694412231445,0.3039723038673401,0.15256214141845703,0.4308200180530548,2.0811285972595215
95,48891,48889,0.06070118397474289,0.049352582544088364,1.0283944606781006,-5.110531806945801,1.899533748626709,-1.694602370262146,2.0174992084503174,4.040060043334961,0.3044372498989105,0.14442509412765503,0.483078271150589,2.067275285720825
96,48901,48899,0.012223422527313232,-0.00278934882953763,1.0064353942871094,-3.7787041664123535,3.1109163761138916,-2.4271786212921143,2.0167124271392822,4.040488243103027,0.3035534620285034,0.2167341560125351,0.3957040309906006,2.0544676780700684
97,48911,48909,-0.07959628105163574,0.1102762222290039,0.9633874297142029,-2.5776796340942383,2.415006637573242,-2.1333820819854736,2.0171010494232178,4.040855407714844,0.30400803685188293,0.13078834116458893,0.3455788791179657,2.022709846496582
98,48921,48919,-0.03628551959991455,0.04925842583179474,0.9515281319618225,-2.0642940998077393,3.4935829639434814,-2.242445707321167,2.0157809257507324,4.0413970947265625,0.3043922781944275,0.19086913764476776,0.30133095383644104,2.006404161453247
99,48931,48929,0.008655302226543427,0.1619957834482193,1.000693440437317,-2.4735605716705322,3.9179444313049316,-1.6122857332229614,2.016000986099243,4.041265487670898,0.30182603001594543,0.09228001534938812,0.33978286385536194,1.9847544431686401
100,48941,48939,0.036996811628341675,0.07503946125507355,1.0137608051300049,-2.247157096862793,5.741920471191406,-1.247883677482605,2.015615224838257,4.0406622886657715,0.3019895851612091,0.0563211627304554,0.36995092034339905,1.9729059934616089
101,48951,48949,0.07447069138288498,0.005362492520362139,1.064354658126831,-3.2871575355529785,5.235641002655029,-2.4701039791107178,2.0152125358581543,4.041097640991211,0.30214565992355347,0.004863803740590811,0.30596673488616943,1.9528194665908813
102,48961,48959,0.019232185557484627,-0.03240485116839409,1.0045441389083862,-4.1343302726745605,5.7721076011657715,-2.3669567108154297,2.014518976211548,4.040854454040527,0.30253520607948303,0.02681930735707283,0.3759486675262451,1.9377800226211548
103,48971,48969,-0.0187467560172081,0.012664172798395157,1.0206587314605713,-5.770635604858398,5.256784439086914,-2.641606092453003,2.0148355960845947,4.04125452041626,0.30281439423561096,-0.10053610056638718,0.26132771372795105,1.9077733755111694
104,48981,48979,0.012287486344575882,0.03541799262166023,0.9461912512779236,-6.526479721069336,5.60276460647583,-2.8310599327087402,2.015681028366089,4.041655540466309,0.30310535430908203,-0.26655855774879456,0.13783052563667297,1.8680164813995361
105,48991,48989,-0.013961942866444588,0.03184625506401062,1.0126640796661377,-6.73009729385376,4.31598424911499,-2.8703248500823975,2.0144765377044678,4.042028427124023,0.3033488988876343,-0.22608645260334015,0.01696177013218403,1.8448282480239868
106,49001,48999,0.027347350493073463,-0.04505009949207306,0.9269006252288818,-4.958168983459473,4.111213207244873,-2.801142692565918,2.014744997024536,4.042011260986328,0.30484750866889954,-0.34230682253837585,-0.09349489957094193,1.8079787492752075
107,49011,49009,-0.007176339626312256,-0.027787238359451294,1.008942723274231,-3.6206040382385254,0.4235791563987732,-2.3268377780914307,2.0131125450134277,4.041029930114746,0.30515041947364807,-0.22140628099441528,-0.01596241258084774,1.7976707220077515
108,49021,49019,-0.05453839525580406,0.08823436498641968,1.0304136276245117,-1.5869157314300537,-0.5962126851081848,-1.653078317642212,2.012943983078003,4.041769027709961,0.3054303228855133,-0.23589743673801422,-0.05413949117064476,1.7741799354553223
109,49031,49029,-0.019216513261198997,0.07738526165485382,0.964163601398468,1.1725022792816162,-0.34060314297676086,-1.0755544900894165,2.0122430324554443,4.042479038238525,0.30368903279304504,-0.2192188948392868,-0.07717958092689514,1.7613794803619385
110,49041,49039,-0.011468411423265934,0.024073608219623566,0.9881540536880493,1.4887425899505615,0.9325345158576965,-1.2556884288787842,2.0129988193511963,4.042506694793701,0.3038545250892639,-0.3349568843841553,-0.05386093631386757,1.7448415756225586
111,49051,49049,0.007904130034148693,0.02856096252799034,0.9918133616447449,0.7646326422691345,2.9748435020446777,-1.524435043334961,2.0114433765411377,4.044192314147949,0.30395451188087463,-0.26176151633262634,-0.044032782316207886,1.7346543073654175
112,49061,49059,-0.042744603008031845,0.03698832541704178,1.0774983167648315,0.817989706993103,0.707362174987793,-1.524216890335083,2.011880874633789,4.045691013336182,0.30140241980552673,-0.3148845434188843,-0.05482105538249016,1.7209733724594116
113,49071,49069,0.007435984443873167,-0.01299082487821579,1.0090335607528687,-1.1683980226516724,3.8999197483062744,-1.6734917163848877,2.0098698139190674,4.047669410705566,0.30137020349502563,-0.2469145506620407,-0.07413706183433533,1.7036570310592651
114,49081,49079,0.002293518977239728,-0.00542823551222682,1.0202864408493042,-0.9608452320098877,2.513038158416748,-2.1076464653015137,2.0100324153900146,4.048091888427734,0.30139803886413574,-0.34246620535850525,-0.10007701069116592,1.6818339824676514
115,49091,49089,0.0032274038530886173,0.053962428122758865,0.963129997253418,-1.960015892982483,3.898785352706909,-1.463250994682312,2.0107240676879883,4.048618316650391,0.2996702194213867,-0.5162353515625,-0.13125070929527283,1.6606464385986328
116,49101,49099,0.010226749815046787,0.11523737758398056,0.9853920936584473,-2.772167205810547,3.778205394744873,-1.3765738010406494,2.0098323822021484,4.049325466156006,0.29957661032676697,-0.4774731397628784,-0.11448487639427185,1.6516417264938354
117,49111,49109,0.01704716496169567,-0.022498559206724167,1.0127350091934204,-2.0002381801605225,2.1183221340179443,-1.0445263385772705,2.0108580589294434,4.050273895263672,0.2994937598705292,-0.5687382817268372,-0.10706047713756561,1.6434541940689087
118,49121,49119,-0.008276958018541336,-0.015598051249980927,1.042290210723877,-1.420541524887085,-1.10933518409729,-0.9527690410614014,2.0099637508392334,4.050583839416504,0.2993890941143036,-0.516735315322876,-0.0698600485920906,1.6384817361831665
119,49131,49129,-0.023811908438801765,-0.10534960776567459,1.0226168632507324,-2.3290979862213135,-2.6826987266540527,-1.054565191268921,2.0097110271453857,4.05109977722168,0.3023649752140045,-0.484348326921463,-0.1215050145983696,1.6264930963516235
120,49141,49139,0.024955598637461662,-0.07262447476387024,0.9696772694587708,-2.2823166847229004,-4.887938022613525,-0.46002277731895447,2.0083870887756348,4.052907466888428,0.3024628162384033,-0.3832770884037018,-0.17333483695983887,1.6160184144973755
121,49151,49149,0.06710641086101532,-0.06951107084751129,0.9735239148139954,-2.034653425216675,-1.8468780517578125,-1.2284079790115356,2.0086498260498047,4.055940628051758,0.3026175796985626,-0.3898993134498596,-0.2300761640071869,1.6072561740875244
122,49161,49159,0.01390414871275425,-0.06480971723794937,1.0096828937530518,-1.3750003576278687,0.5647422075271606,-0.3965718448162079,2.0090994834899902,4.054943561553955,0.30180642008781433,-0.4833940267562866,-0.18778730928897858,1.607285499572754
123,49171,49169,-0.02046794258058071,-0.06416499614715576,1.0126206874847412,-2.1953344345092773,2.00365948677063,-0.2788908779621124,2.008723020553589,4.05648946762085,0.3018302321434021,-0.5335971117019653,-0.22712469100952148,1.600612759590149
124,49181,49179,-0.0061745778657495975,-0.16384489834308624,0.9928280115127563,-0.30601105093955994,1.0570287704467773,-0.26665952801704407,2.009160041809082,4.055408954620361,0.3018655776977539,-0.5757405161857605,-0.18595771491527557,1.606119155883789
125,49191,49189,0.013785963878035545,0.025107569992542267,1.0118824243545532,-0.015027563087642193,0.2159191071987152,-0.1460288166999817,2.0086724758148193,4.05631685256958,0.3029291033744812,-0.5989498496055603,-0.19728794693946838,1.6027510166168213
126,49201,49199,0.00981821957975626,0.05588170886039734,1.059141755104065,-0.1314057558774948,-2.2371222972869873,-0.5182468295097351,2.008387565612793,4.056880950927734,0.3030209243297577,-0.5778886079788208,-0.21101492643356323,1.5974483489990234
127,49211,49209,0.003928451333194971,-0.0033046326134353876,1.0292426347732544,-0.6806662082672119,-3.5438880920410156,-0.30747824907302856,2.0086989402770996,4.057840347290039,0.30319151282310486,-0.538701057434082,-0.23396840691566467,1.5917445421218872
128,49221,49219,0.0017561155837029219,-0.0077833388932049274,1.0166878700256348,-1.9408434629440308,-4.232990741729736,-0.28696489334106445,2.0079967975616455,4.058927536010742,0.30341875553131104,-0.4711533188819885,-0.26955872774124146,1.5856586694717407
129,49231,49229,-0.051799140870571136,0.07833393663167953,1.0277498960494995,-0.9114048480987549,-1.2618893384933472,-0.859692394733429,2.008190155029297,4.06033182144165,0.3020004332065582,-0.4506058692932129,-0.28828510642051697,1.5829282999038696
130,49241,49239,-0.0172182135283947,0.13733087480068207,0.995451033115387,0.09627341479063034,-4.75868034362793,-0.037218622863292694,2.0072154998779297,4.060328483581543,0.3021620512008667,-0.3826429843902588,-0.31202924251556396,1.5756711959838867
131,49251,49249,-0.04354620724916458,0.03002087026834488,1.0634138584136963,1.3452798128128052,-4.223633766174316,-0.02802135795354843,2.007402181625366,4.061506271362305,0.30230626463890076,-0.31518006324768066,-0.31358790397644043,1.5768816471099854
132,49261,49259,-0.018746268004179,-0.033114731311798096,0.9949503540992737,1.741593599319458,-3.3389008045196533,0.4310031831264496,2.007075786590576,4.0614094734191895,0.30299311876296997,-0.25447627902030945,-0.2934885025024414,1.5767189264297485
133,49271,49269,-0.021301766857504845,0.010539812035858631,1.0348328351974487,1.0856927633285522,1.5565869808197021,0.5259026885032654,2.0071465969085693,4.061911106109619,0.30323490500450134,-0.23473294079303741,-0.26836273074150085,1.5803159475326538
134,49281,49279,0.007416424807161093,-0.0006258042994886637,1.0133711099624634,0.9681869745254517,2.055225133895874,0.5156823396682739,2.0080111026763916,4.062129497528076,0.3034837543964386,-0.3447803258895874,-0.25366711616516113,1.589741587638855
135,49291,49289,0.028951827436685562,-0.1517980396747589,1.0501271486282349,0.27311471104621887,2.031980514526367,0.9347048401832581,2.007561683654785,4.063520431518555,0.3068515956401825,-0.3835723400115967,-0.2527150511741638,1.5967475175857544
136,49301,49299,0.06263068318367004,-0.21369707584381104,1.059939980506897,0.627522885799408,0.8473498225212097,0.5213726162910461,2.0069785118103027,4.0637431144714355,0.3073614239692688,-0.32372039556503296,-0.2515113651752472,1.601214051246643
137,49311,49309,0.0031914059072732925,-0.08325305581092834,0.9942964315414429,0.6547616124153137,-0.7511744499206543,0.13907961547374725,2.00696063041687,4.0635480880737305,0.3078836500644684,-0.3269865810871124,-0.2389373481273651,1.609004020690918
138,49321,49319,0.014826209284365177,-0.009607890620827675,0.9139911532402039,0.9217037558555603,-0.22043651342391968,0.25070855021476746,2.0069756507873535,4.064249038696289,0.30846384167671204,-0.338245689868927,-0.22281578183174133,1.6124902963638306
139,49331,49329,0.04995488375425339,0.024033157154917717,0.9318329691886902,0.5474726557731628,-2.3667030334472656,0.4678967595100403,2.0070383548736572,4.06470251083374,0.30952179431915283,-0.3493502140045166,-0.20497074723243713,1.61379873752594
140,49341,49339,0.031994763761758804,-0.07969099283218384,1.0387147665023804,-0.1906880885362625,-4.774850368499756,0.5385138392448425,2.0066494941711426,4.066262722015381,0.3100743293762207,-0.39876797795295715,-0.2040872722864151,1.6156775951385498
141,49351,49349,0.007635943591594696,-0.12614133954048157,1.0366075038909912,1.4102481603622437,-7.566062927246094,1.054612159729004,2.0069403648376465,4.067868232727051,0.31060171127319336,-0.3059772253036499,-0.20707820355892181,1.617148995399475
142,49361,49359,-0.05197067931294441,0.005680879577994347,1.018165946006775,1.1513367891311646,-6.9033989906311035,1.0782725811004639,2.0078327655792236,4.067953586578369,0.31248268485069275,-0.3334987163543701,-0.1876508593559265,1.6318514347076416
143,49371,49369,0.010105116292834282,-0.05058448761701584,0.9412229657173157,1.216456651687622,-5.317603588104248,1.6356765031814575,2.008187770843506,4.069835186004639,0.31313392519950867,-0.20478402078151703,-0.24360567331314087,1.635986566543579
144,49381,49379,0.018332986161112785,0.11421646922826767,0.9913893342018127,0.2775195240974426,-3.4324748516082764,1.3358088731765747,2.0081002712249756,4.0699310302734375,0.3137388229370117,-0.12609994411468506,-0.22198759019374847,1.6526782512664795
145,49391,49389,0.07027820497751236,0.04145563021302223,0.9749866724014282,0.7244400382041931,-3.3894081115722656,0.6958297491073608,2.008692741394043,4.069708347320557,0.3128882646560669,-0.15941551327705383,-0.21029222011566162,1.6677565574645996
146,49401,49399,-0.0048033748753368855,-0.03236944228410721,1.0304229259490967,1.1595396995544434,-4.098195552825928,0.9535487294197083,2.008472204208374,4.069899082183838,0.31335070729255676,-0.10316316783428192,-0.1969810575246811,1.6757402420043945
147,49411,49409,-0.05218321084976196,-0.07092053443193436,1.0005906820297241,0.46458324790000916,-3.7019083499908447,0.9089626669883728,2.0075955390930176,4.069686412811279,0.31385740637779236,-0.03240230306982994,-0.17668840289115906,1.6838436126708984
148,49421,49419,-0.05968925729393959,-0.010068039409816265,0.9856767654418945,1.0677827596664429,-2.8742284774780273,0.9599685668945312,2.0071089267730713,4.070139408111572,0.3148735463619232,0.03442859277129173,-0.15897683799266815,1.6907501220703125
149,49431,49429,0.009233108721673489,0.045060887932777405,0.961685836315155,0.6648954153060913,0.9315056800842285,0.9794614911079407,2.007911205291748,4.069576263427734,0.31537631154060364,-0.0005015173810534179,-0.1444106549024582,1.701395869255066
150,49441,49439,0.0005484212888404727,0.0706888884305954,1.000277042388916,0.1800203025341034,-0.5735035538673401,0.8711972236633301,2.007439613342285,4.0691962242126465,0.31585612893104553,0.018201319500803947,-0.1316543072462082,1.7111883163452148
151,49451,49449,0.06178608909249306,-0.025918303057551384,0.9837675094604492,-0.21672165393829346,-0.14137493073940277,0.7681728005409241,2.0074269771575928,4.070127010345459,0.3162991404533386,0.018704332411289215,-0.20720288157463074,1.718491554260254
152,49461,49459,0.01801130175590515,-0.043239057064056396,0.9860534071922302,-0.961855411529541,-3.0139026641845703,1.3509294986724854,2.0066421031951904,4.069901466369629,0.31298935413360596,0.030115090310573578,-0.2086583822965622,1.726108193397522
153,49471,49469,-0.03312680497765541,0.05261184275150299,0.9766089916229248,-0.031914133578538895,-2.281156301498413,0.715269923210144,2.0070931911468506,4.071059703826904,0.3132087290287018,0.0746975690126419,-0.20693723857402802,1.7368632555007935
154,49481,49479,-0.008046816103160381,-0.03093823976814747,0.9613550305366516,1.5444645881652832,-2.5111899375915527,0.7050118446350098,2.0074121952056885,4.072564125061035,0.313435822725296,0.12082260847091675,-0.26953235268592834,1.7438886165618896
155,49491,49489,0.0015594742726534605,-0.0036622018087655306,0.9817794561386108,3.0484399795532227,-2.650329113006592,1.15132474899292,2.0067083835601807,4.071893692016602,0.3130558133125305,0.1673615723848343,-0.2222580462694168,1.7512362003326416
156,49501,49499,-0.007866289466619492,-0.02557341940701008,0.9716106057167053,4.079432964324951,-2.6442108154296875,1.4444071054458618,2.0067198276519775,4.071506977081299,0.3131892681121826,0.20952440798282623,-0.1530621498823166,1.760880708694458
157,49511,49509,0.02709442749619484,-0.06865616887807846,0.9714051485061646,3.4060873985290527,0.4725464880466461,0.364373117685318,2.006110906600952,4.07126522064209,0.31325361132621765,0.2429409772157669,-0.1567254513502121,1.7731897830963135
158,49521,49519,-0.01643996872007847,-0.05267989635467529,0.9709867835044861,2.9662210941314697,0.9747321009635925,1.183437466621399,2.0072243213653564,4.07174825668335,0.31453290581703186,0.166629359126091,-0.15938057005405426,1.7859853506088257
159,49531,49529,-0.051876768469810486,0.2163190394639969,0.986344575881958,2.0088376998901367,1.6553378105163574,1.1351383924484253,2.0065314769744873,4.072188377380371,0.3146609663963318,0.16459357738494873,-0.1706569790840149,1.7963114976882935
160,49541,49539,-0.018030671402812004,0.07978058606386185,0.9837408661842346,1.7326345443725586,2.3374736309051514,0.8796030879020691,2.0066702365875244,4.073058128356934,0.3147466778755188,0.1448744386434555,-0.1169518455862999,1.8092246055603027
161,49551,49549,0.003108816919848323,-0.015766168013215065,0.9801533222198486,2.11816143989563,0.9088698625564575,1.290148138999939,2.0073623657226562,4.073348522186279,0.31486040353775024,0.11491168290376663,0.010244576260447502,1.8162851333618164
162,49561,49559,0.08842103183269501,-0.13135433197021484,0.9941060543060303,1.6078773736953735,0.1441689133644104,0.8175137639045715,2.0070502758026123,4.0737199783325195,0.31633105874061584,0.09222911298274994,-0.024820128455758095,1.8306199312210083
163,49571,49569,0.09781698882579803,-0.1566251814365387,0.9771378636360168,0.7215660810470581,-1.3099567890167236,0.6743267774581909,2.0064961910247803,4.073740005493164,0.3164612650871277,0.16847477853298187,0.015825148671865463,1.8407862186431885
164,49581,49579,-0.02203395590186119,0.049345992505550385,1.0123122930526733,0.30902716517448425,-3.036285877227783,0.6571723222732544,2.0057501792907715,4.073603630065918,0.316602498292923,0.1932653784751892,0.0382714569568634,1.8474905490875244
165,49591,49589,-0.0024324371479451656,-0.005242349114269018,0.9482105374336243,0.49196675419807434,-2.8603005409240723,1.0501614809036255,2.0058281421661377,4.073526382446289,0.31543272733688354,0.22592924535274506,0.05638550966978073,1.8530445098876953
166,49601,49599,0.04415098577737808,-0.00022975383035372943,0.9726110100746155,0.8569241762161255,-2.539496421813965,1.0908037424087524,2.0050902366638184,4.0743560791015625,0.31546592712402344,0.259183406829834,-0.0007615690119564533,1.8615620136260986
167,49611,49609,0.06171896308660507,-0.024708887562155724,1.035138487815857,0.8714057207107544,-1.3584911823272705,0.9322566986083984,2.0048460960388184,4.074326038360596,0.31542953848838806,0.2838246524333954,0.026009751483798027,1.8739995956420898
168,49621,49619,0.032457929104566574,-0.05644574016332626,1.0025787353515625,-0.08142241835594177,-1.4404743909835815,1.4009425640106201,2.0061352252960205,4.075323581695557,0.3172871768474579,0.21716885268688202,0.051690056920051575,1.8867647647857666
169,49631,49629,-0.04321428760886192,0.12808829545974731,1.0370358228683472,0.22607360780239105,2.127486228942871,0.45764654874801636,2.006885051727295,4.076208114624023,0.317410945892334,0.2182202786207199,0.06723199039697647,1.8980735540390015
170,49641,49639,0.0004561451787594706,0.033257436007261276,1.0035597085952759,0.868267834186554,3.516990900039673,0.41830846667289734,2.0060274600982666,4.076323509216309,0.3175283670425415,0.25966718792915344,0.08139283210039139,1.9062772989273071
171,49651,49649,0.04096297174692154,-0.008746996521949768,0.996995210647583,1.5391346216201782,3.303492784500122,0.4475623369216919,2.006786584854126,4.077744483947754,0.3177078366279602,0.1944977343082428,0.10622852295637131,1.9105149507522583
172,49661,49659,0.021128667518496513,-0.0018025265308097005,1.0091193914413452,0.7184246182441711,2.0507781505584717,0.3188473582267761,2.0066134929656982,4.077491760253906,0.3210500180721283,0.13906919956207275,0.13407672941684723,1.9155147075653076
173,49671,49669,0.01581312157213688,-0.030080150812864304,0.9914017915725708,-0.2242603302001953,0.7645494341850281,0.12165770679712296,2.0070688724517822,4.079284191131592,0.3213854432106018,0.10708612948656082,0.07440420985221863,1.9221240282058716
174,49681,49679,-0.01572938822209835,0.009977880865335464,0.9426742792129517,-1.1223653554916382,-0.6759898066520691,0.08218536525964737,2.0067086219787598,4.078612327575684,0.3217528760433197,0.07989990711212158,0.08228758722543716,1.9244489669799805
175,49691,49689,-0.014062473550438881,-0.0018816717201843858,0.9906383156776428,-0.26398882269859314,-4.663162708282471,-0.3219389021396637,2.0067737102508545,4.079693794250488,0.32043248414993286,0.09484299272298813,0.07836419343948364,1.9240447282791138
176,49701,49699,0.027094382792711258,-0.022859489545226097,0.9984303712844849,0.6313747763633728,-2.993108034133911,-0.19750019907951355,2.0063962936401367,4.0792155265808105,0.32067716121673584,0.14938487112522125,0.08072154223918915,1.9203428030014038
177,49711,49709,0.013100584037601948,0.0005413304315879941,0.9980521202087402,0.7655622363090515,-2.863534688949585,-0.2666316032409668,2.005344867706299,4.079063415527344,0.32089099287986755,0.19490009546279907,0.09460140764713287,1.917128562927246
178,49721,49719,-0.001097699161618948,-0.04056739807128906,0.989199697971344,0.667949914932251,-2.096485137939453,-0.004518360830843449,2.005263566970825,4.079191207885742,0.3227772116661072,0.225859135389328,0.12008196115493774,1.9153859615325928
179,49731,49729,-0.03143397346138954,0.017978191375732422,1.0320284366607666,0.9311920404434204,0.11967174708843231,0.00913439691066742,2.004124164581299,4.080233097076416,0.32306456565856934,0.32086342573165894,0.0622095912694931,1.9172694683074951
180,49741,49739,0.012176992371678352,-0.050029244273900986,0.946250319480896,0.8622259497642517,2.549858331680298,-0.138910174369812,2.0045905113220215,4.082541465759277,0.32337096333503723,0.2889867126941681,0.0897778868675232,1.915540337562561
181,49751,49749,-0.012089848518371582,0.05849303677678108,1.0127381086349487,0.8593448400497437,2.8317174911499023,-0.2655324339866638,2.005427122116089,4.084129333496094,0.32077541947364807,0.23845501244068146,0.11343013495206833,1.9121228456497192
182,49761,49759,0.044076137244701385,-0.000137163297040388,1.0257774591445923,-0.06752108782529831,4.632966041564941,0.03206406906247139,2.0051615238189697,4.085569858551025,0.3208448886871338,0.16884426772594452,0.054265376180410385,1.9123477935791016
183,49771,49769,0.07779403775930405,-0.08980291336774826,0.9993385076522827,-0.128021702170372,3.1785473823547363,0.06014864146709442,2.0060338973999023,4.087187767028809,0.32092443108558655,0.0799657478928566,-0.010439624078571796,1.9156205654144287
184,49781,49779,0.012382262386381626,-0.06722559779882431,0.9897637367248535,0.66555255651474,3.3201513290405273,-0.22692079842090607,2.003626585006714,4.088256359100342,0.321073979139328,0.23756572604179382,-0.05923134461045265,1.9216234683990479
185,49791,49789,0.007093999069184065,-0.04509732127189636,0.9473618865013123,1.7232403755187988,0.31426772475242615,-0.6881066560745239,2.003685712814331,4.089181900024414,0.32045647501945496,0.17395520210266113,-0.016014741733670235,1.9169012308120728
186,49801,49799,-0.03891411051154137,-0.11514334380626678,0.9473510980606079,3.8201534748077393,0.9744499921798706,-0.13912333548069,2.0037434101104736,4.089867115020752,0.32045671343803406,0.14114205539226532,-0.030785517767071724,1.910615086555481
187,49811,49809,0.04797946661710739,-0.06345327943563461,0.9679290652275085,5.303924083709717,1.5706549882888794,-0.26409342885017395,2.0032870769500732,4.091134548187256,0.32046645879745483,0.10310942679643631,-0.012440093792974949,1.9077118635177612
188,49821,49819,0.017057739198207855,-0.007842195220291615,1.0039267539978027,5.758390426635742,1.8798658847808838,0.8787053823471069,2.003042697906494,4.092991828918457,0.31846946477890015,0.05984821543097496,-0.04562511295080185,1.9094992876052856
189,49831,49829,0.09459000080823898,-0.20716312527656555,0.9985173344612122,5.563091278076172,3.648141860961914,0.20059335231781006,2.002866268157959,4.09294319152832,0.31833797693252563,-0.0009194174781441689,0.08283020555973053,1.914196491241455
190,49841,49839,0.026819366961717606,-0.12399744987487793,0.9815566539764404,4.888962268829346,2.6923444271087646,0.02011931873857975,2.0029377937316895,4.093689441680908,0.31817886233329773,-0.0019124547252431512,0.2027926743030548,1.9161173105239868
191,49851,49849,0.04766831547021866,-0.11288166046142578,0.9266737103462219,5.021280765533447,2.306878089904785,0.1816682666540146,2.0037193298339844,4.094736576080322,0.3203659951686859,-0.07410996407270432,0.2349867820739746,1.914657473564148
192,49861,49859,0.07412742078304291,-0.04728982597589493,0.9741806983947754,3.771090030670166,0.9240119457244873,1.0338890552520752,2.003073215484619,4.09590482711792,0.320244163274765,-0.047702107578516006,0.18742956221103668,1.9191774129867554
193,49871,49869,0.06799866259098053,-0.06289412826299667,1.0488665103912354,1.5428386926651,-1.6696592569351196,0.009684915654361248,2.002946376800537,4.0962724685668945,0.32011041045188904,-0.06378485262393951,0.2716370224952698,1.927566409111023
194,49881,49879,0.05932898074388504,-0.10835712403059006,0.99312824010849,0.9395410418510437,-1.5376228094100952,0.013176669366657734,2.0021603107452393,4.096086025238037,0.3199719786643982,0.022915471345186234,0.32630598545074463,1.9329286813735962
195,49891,49889,-0.012936758808791637,0.022807911038398743,0.947818398475647,0.8511234521865845,-4.14229679107666,1.227376103401184,2.0032947063446045,4.097714900970459,0.31673821806907654,-0.054640233516693115,0.29618045687675476,1.9280818700790405
196,49901,49899,-0.0037759451661258936,-0.008452975191175938,1.036750078201294,1.4716697931289673,-0.36909499764442444,0.7587871551513672,2.0024254322052,4.097213268280029,0.3164038360118866,0.04454547539353371,0.3423517942428589,1.9369845390319824
197,49911,49909,0.05927875265479088,-0.002236085943877697,1.0173879861831665,1.5099873542785645,1.7068023681640625,0.7594410181045532,2.0013835430145264,4.097618579864502,0.31604859232902527,0.02160598710179329,0.3875557780265808,1.9446059465408325
198,49921,49919,0.021084140986204147,-0.011717097833752632,1.0061358213424683,1.7619245052337646,2.454141139984131,0.14805705845355988,2.0014305114746094,4.098298072814941,0.31406518816947937,-0.025629334151744843,0.3604162633419037,1.9525947570800781
199,49931,49929,-0.07551069557666779,0.06753604114055634,1.025999665260315,-0.6393620371818542,3.7159266471862793,0.35519835352897644,2.000347375869751,4.099230766296387,0.313692569732666,-0.015890220180153847,0.40157994627952576,1.9546757936477661
200,49941,49939,0.0006555980071425438,0.0246333796530962,0.9637272357940674,-0.4089474678039551,3.2044992446899414,-0.15770268440246582,2.0002074241638184,4.100433826446533,0.31332889199256897,-0.03252331167459488,0.3378599286079407,1.9574542045593262
201,49951,49949,0.012550200335681438,0.062345631420612335,0.9979363679885864,1.0124846696853638,1.8622092008590698,0.2098531275987625,2.0004546642303467,4.099666595458984,0.3109390437602997,-0.10868382453918457,0.4418736696243286,1.9533610343933105
202,49961,49959,-0.002828785451129079,0.00652283476665616,1.0334879159927368,1.685755968093872,0.8776628375053406,-0.026685575023293495,1.9992375373840332,4.101025581359863,0.31042030453681946,-0.07772454619407654,0.39597368240356445,1.9590356349945068
203,49971,49969,-0.048224665224552155,0.03534916415810585,1.0339736938476562,1.1470099687576294,-0.14519071578979492,0.1219971626996994,1.999456763267517,4.100653171539307,0.3099287152290344,-0.10323100537061691,0.43868428468704224,1.9590964317321777
204,49981,49979,-0.07747210562229156,0.06598706543445587,0.9746192097663879,-0.4080054759979248,-0.010016749612987041,0.03524067625403404,1.9979727268218994,4.101341724395752,0.309440940618515,-0.042477432638406754,0.46787384152412415,1.9616338014602661
205,49991,49989,-0.04572553187608719,0.12478021532297134,1.0229408740997314,-1.1394693851470947,0.37756577134132385,0.8053490519523621,1.998799443244934,4.10137414932251,0.311290979385376,-0.056738510727882385,0.4754781424999237,1.9625064134597778
206,50001,49999,-0.027621252462267876,0.04525109753012657,1.0745736360549927,-2.3569326400756836,2.292731523513794,0.9330606460571289,1.99753999710083,4.101273059844971,0.3109879493713379,-0.018755603581666946,0.4639755189418793,1.973213791847229
207,50011,50009,-0.02930532954633236,-0.04506370425224304,1.0191999673843384,-2.8037874698638916,4.115467071533203,0.3455105721950531,1.9968851804733276,4.102192401885986,0.31068381667137146,-0.006137472577393055,0.43322959542274475,1.9833152294158936
208,50021,50019,-0.010332111269235611,-0.02586890012025833,1.0342507362365723,-1.61005437374115,4.0500874519348145,0.27153652906417847,1.997423768043518,4.103212833404541,0.31058329343795776,-0.09908849000930786,0.40458306670188904,1.983311414718628
209,50031,50029,0.0669451430439949,-0.07314430177211761,1.03868567943573,-1.3993569612503052,4.3165154457092285,0.23395034670829773,1.9971680641174316,4.10378360748291,0.310402512550354,-0.19405636191368103,0.37995022535324097,1.9826680421829224
210,50041,50039,0.030821973457932472,-0.04362567141652107,1.0254240036010742,-0.8082722425460815,3.8483588695526123,-0.011894989758729935,1.9960119724273682,4.103816986083984,0.3102457821369171,-0.12857940793037415,0.36536887288093567,1.9943530559539795
211,50051,50049,-0.028420452028512955,-0.06614398211240768,1.0257368087768555,-0.07730205357074738,2.5881741046905518,-0.3016599714756012,1.9954562187194824,4.103659152984619,0.3104071617126465,-0.14431355893611908,0.3596632480621338,1.9962215423583984
212,50061,50059,0.005063025280833244,-0.08243378251791,0.9889388084411621,0.3510318100452423,2.426602840423584,-0.08058315515518188,1.994339108467102,4.103468418121338,0.3103259205818176,-0.15167336165905,0.36536717414855957,1.993719458580017
213,50071,50069,0.062182944267988205,-0.031150905415415764,1.0355373620986938,0.7576943635940552,0.9869166016578674,-0.09327095746994019,1.9950711727142334,4.104832649230957,0.3103067874908447,-0.22531333565711975,0.38357970118522644,1.9882243871688843
214,50081,50079,0.02972664125263691,-0.0264804158359766,1.0342148542404175,-0.2114880084991455,0.9279889464378357,-0.28880810737609863,1.9949281215667725,4.104858875274658,0.3102715313434601,-0.27220118045806885,0.3956660032272339,1.985113501548767
215,50091,50089,0.012907623313367367,-0.07598897069692612,0.9943376183509827,-1.5008364915847778,2.9614269733428955,-0.7606293559074402,1.9953266382217407,4.105978965759277,0.31196126341819763,-0.33121225237846375,0.3948505222797394,1.9783027172088623
216,50101,50099,-0.024343697354197502,0.01760224997997284,1.0375407934188843,-2.0232036113739014,1.218767523765564,-0.24933038651943207,1.9955252408981323,4.106364727020264,0.3120518624782562,-0.3909643590450287,0.3721259534358978,1.968694806098938
217,50111,50109,-0.008369644172489643,-0.035114943981170654,1.0261893272399902,-3.5116894245147705,0.805108368396759,-0.31727334856987,1.9957013130187988,4.107053756713867,0.31217703223228455,-0.42974504828453064,0.3367440700531006,1.9640222787857056
218,50121,50119,-0.01919260062277317,0.02605258859694004,1.030292272567749,-2.4976389408111572,-1.8491357564926147,-0.4661167860031128,1.9959070682525635,4.107133388519287,0.3126091957092285,-0.4418369233608246,0.29362544417381287,1.960545301437378
219,50131,50129,-0.007009017746895552,-0.013859975151717663,1.0072193145751953,-3.0452880859375,-1.9054887294769287,-0.8057252764701843,1.9951528310775757,4.107929706573486,0.31280726194381714,-0.4245211184024811,0.2509072422981262,1.953610897064209
220,50141,50139,0.02043807879090309,-0.0876581147313118,1.044967532157898,-1.5361099243164062,-2.9407479763031006,-0.7746909260749817,1.9945207834243774,4.10890007019043,0.3129922151565552,-0.38898777961730957,0.2121199518442154,1.9481184482574463
221,50151,50149,0.03012443520128727,-0.008137930184602737,1.0881222486495972,-0.16540373861789703,-3.742192506790161,-0.5195949673652649,1.9941697120666504,4.1090569496154785,0.31172868609428406,-0.33260148763656616,0.19606423377990723,1.9424207210540771
222,50161,50159,0.023938234895467758,-0.05536423251032829,1.0068498849868774,1.1266175508499146,-2.8927080631256104,-0.6973292231559753,1.9940165281295776,4.109775543212891,0.31193000078201294,-0.27031078934669495,0.21032272279262543,1.9391106367111206
223,50171,50169,-0.007461744826287031,-0.018162814900279045,1.0145395994186401,1.7070525884628296,-0.2979147434234619,-0.8668816685676575,1.9936132431030273,4.109205722808838,0.312173068523407,-0.23757418990135193,0.23636074364185333,1.9319517612457275
224,50181,50179,0.013256656937301159,0.009068835526704788,1.0310505628585815,1.0108598470687866,-0.5369318127632141,-1.19212007522583,1.992480754852295,4.111025333404541,0.3085499405860901,-0.2248525172472,0.11428862810134888,1.9150453805923462
225,50191,50189,0.03017810918390751,-0.05700937658548355,1.0186973810195923,0.13278578221797943,-0.999083399772644,-0.5540860891342163,1.9924012422561646,4.111011028289795,0.30861008167266846,-0.21250419318675995,0.14216162264347076,1.9044173955917358
226,50201,50199,0.005569889675825834,-0.031929586082696915,1.0039252042770386,0.5531141757965088,2.3974266052246094,-1.4594097137451172,1.9920077323913574,4.110562801361084,0.3086908459663391,-0.21891598403453827,0.1640673726797104,1.898179054260254
227,50211,50209,0.01898639090359211,0.061918847262859344,1.0063505172729492,2.325289011001587,2.3461430072784424,-1.8153941631317139,1.9920653104782104,4.111270427703857,0.3087517023086548,-0.26708275079727173,0.1904899626970291,1.8840692043304443
228,50221,50219,0.004149489104747772,-0.06977614015340805,0.9528596997261047,2.729065418243408,0.8719319105148315,-1.8936673402786255,1.9904398918151855,4.10990571975708,0.3138013184070587,-0.22368985414505005,0.23780252039432526,1.8699942827224731
229,50231,50229,0.02545108087360859,-0.05537023767828941,0.9876551032066345,0.9690478444099426,-0.037596844136714935,-1.6304419040679932,1.9898854494094849,4.110526084899902,0.3141786456108093,-0.2420806735754013,0.2895372211933136,1.8531255722045898
230,50241,50239,0.007419578265398741,-0.005351967643946409,1.009188175201416,0.65110182762146,-1.4846742153167725,-2.449552536010742,1.9900661706924438,4.111398696899414,0.3145221471786499,-0.2475280910730362,0.3124886751174927,1.8368223905563354
231,50251,50249,0.030197815969586372,-0.13575710356235504,0.9925225377082825,-2.335730791091919,-0.5311764478683472,-2.7928225994110107,1.9896811246871948,4.111223220825195,0.31543251872062683,-0.24479076266288757,0.3938682973384857,1.8124586343765259
232,50261,50259,0.010299332439899445,-0.1444707065820694,0.96064293384552,-2.456512689590454,-1.3329533338546753,-2.332181692123413,1.9883333444595337,4.112275123596191,0.31572863459587097,-0.25041377544403076,0.35258790850639343,1.7835049629211426
233,50271,50269,-0.013098823837935925,-0.1857719123363495,0.9364374279975891,-1.9747705459594727,-1.6572343111038208,-2.546367645263672,1.9874225854873657,4.112232208251953,0.3161318302154541,-0.2468344122171402,0.3106365203857422,1.7568508386611938
234,50281,50279,0.06413358449935913,-0.08101070672273636,0.9680539965629578,-3.965165138244629,-2.0825791358947754,-1.9049242734909058,1.9870729446411133,4.112908840179443,0.3138424754142761,-0.2331991344690323,0.25436821579933167,1.7294670343399048
235,50291,50289,0.02933189645409584,0.003645544406026602,1.0106627941131592,-3.5213279724121094,-2.654576539993286,-2.5001513957977295,1.986752986907959,4.113780975341797,0.31391817331314087,-0.1912129819393158,0.12373631447553635,1.7043657302856445
236,50301,50299,0.012959140352904797,-0.0072218854911625385,0.995668351650238,-1.8176661729812622,-2.257812976837158,-2.144880771636963,1.9865186214447021,4.114723205566406,0.313984215259552,-0.15376096963882446,0.0816345140337944,1.6806368827819824
237,50311,50309,-0.008127431385219097,-0.013817541301250458,0.9563182592391968,-1.8124942779541016,1.09561288356781,-2.7418875694274902,1.9865986108779907,4.116517543792725,0.3140757083892822,-0.15519283711910248,0.05528901144862175,1.6586856842041016
238,50321,50319,0.0014109467156231403,-0.007493273820728064,0.9667463898658752,0.4912591874599457,1.426177978515625,-2.683382034301758,1.9870860576629639,4.117129325866699,0.3148788809776306,-0.1891796588897705,0.04760541021823883,1.6308258771896362
239,50331,50329,0.06732004880905151,0.1479862779378891,0.9940863847732544,4.158541202545166,0.12885108590126038,-2.3652501106262207,1.9867762327194214,4.116822242736816,0.31495657563209534,-0.21758022904396057,0.08425994962453842,1.607831358909607
240,50341,50339,0.04727257415652275,0.12548890709877014,1.0476282835006714,5.732021331787109,-0.78448885679245,-2.740119218826294,1.9870808124542236,4.116825103759766,0.31501543521881104,-0.2252155840396881,0.16168442368507385,1.5857163667678833
241,50351,50349,-0.005324658006429672,0.05646674707531929,1.0413203239440918,3.903264045715332,-1.0973411798477173,-2.5567595958709717,1.9868098497390747,4.116285800933838,0.3175334632396698,-0.21177639067173004,0.25387144088745117,1.5604077577590942
242,50361,50359,-0.05363490432500839,0.08120043575763702,0.9943384528160095,0.9739822745323181,-1.6264126300811768,-3.4794976711273193,1.9866142272949219,4.1159443855285645,0.317777544260025,-0.19146837294101715,0.3854653537273407,1.5359536409378052
243,50371,50369,-0.05420912429690361,0.10071810334920883,0.9763080477714539,-0.7935788631439209,-2.547131061553955,-2.193530321121216,1.9861072301864624,4.116128444671631,0.3180983364582062,-0.16594992578029633,0.30927789211273193,1.4997390508651733
244,50381,50379,-0.018961772322654724,0.017141887918114662,0.9965341091156006,-2.0456292629241943,-4.092108726501465,-2.4792375564575195,1.9856719970703125,4.11709451675415,0.32036322355270386,-0.1070902943611145,0.28803613781929016,1.4717190265655518
245,50391,50389,-0.010788162238895893,0.022430408746004105,1.0729906558990479,-4.87136173248291,-2.5252606868743896,-2.741438388824463,1.9856376647949219,4.118525505065918,0.32075610756874084,-0.04721083492040634,0.1565179079771042,1.4432544708251953
246,50401,50399,6.0192542150616646e-05,-0.014693282544612885,0.9834731221199036,-4.858137130737305,-0.3770761787891388,-3.454421281814575,1.984832525253296,4.119513511657715,0.3212145268917084,-0.021730566397309303,0.08676961064338684,1.4149377346038818
247,50411,50409,-0.01892230659723282,-0.03338363394141197,0.9643551707267761,-4.414402484893799,0.5061817169189453,-3.9025135040283203,1.9848358631134033,4.119935989379883,0.32279038429260254,-0.03239772841334343,0.09031355381011963,1.3811229467391968
248,50421,50419,-0.04842379689216614,0.004813809413462877,0.9586869478225708,-1.3093730211257935,1.7750108242034912,-3.2418839931488037,1.9843876361846924,4.120302677154541,0.3232938349246979,-0.06167387589812279,0.03598888963460922,1.344995141029358
249,50431,50429,-0.04592804238200188,0.08480818569660187,0.9920774698257446,1.7012662887573242,1.1053931713104248,-2.808462381362915,1.9839906692504883,4.119511127471924,0.32374313473701477,-0.002961430698633194,0.11620908230543137,1.3152157068252563
250,50441,50439,-0.0016393138794228435,0.06901157647371292,0.9863736629486084,5.245630741119385,-0.0219186469912529,-2.3595569133758545,1.9833228588104248,4.119301795959473,0.3241942524909973,-0.019661447033286095,0.15706782042980194,1.288866639137268
251,50451,50449,-0.007318246643990278,0.030132057145237923,1.0080409049987793,5.708719253540039,0.7566202878952026,-2.85469913482666,1.9834938049316406,4.119709491729736,0.32524168491363525,-0.04534831643104553,0.2438993752002716,1.2640161514282227
252,50461,50459,-0.00037911467370577157,-0.06593465059995651,0.974983274936676,4.116536617279053,0.6637976765632629,-2.6704261302948,1.982380747795105,4.119693279266357,0.32565417885780334,0.015937821939587593,0.32264459133148193,1.2367603778839111
253,50471,50469,0.0006317384541034698,-0.057674337178468704,0.9593184590339661,1.264156699180603,0.6900368928909302,-3.144896984100342,1.9824719429016113,4.1204833984375,0.32611483335494995,-0.010568084195256233,0.2840321958065033,1.209775686264038
254,50481,50479,-0.0021141197066754103,-0.02701524645090103,0.956632673740387,-2.319040536880493,0.9234816431999207,-3.375514268875122,1.982664704322815,4.120566368103027,0.3258085548877716,-0.040057890117168427,0.275692343711853,1.17840576171875
255,50491,50489,-0.021020473912358284,-0.020125336945056915,0.9806509017944336,-4.995910167694092,1.0920331478118896,-3.3911585807800293,1.98287034034729,4.12080717086792,0.3261658549308777,-0.06780924648046494,0.21414563059806824,1.1443588733673096
256,50501,50499,-0.008426095359027386,-0.014675959013402462,0.9633756279945374,-5.538637161254883,1.4028689861297607,-3.298438549041748,1.9830541610717773,4.1213250160217285,0.32645395398139954,-0.09881528466939926,0.12279090285301208,1.1110179424285889
257,50511,50509,0.007864201441407204,-0.02817494235932827,0.9832016825675964,-4.694301605224609,0.3583717942237854,-2.8491663932800293,1.9821529388427734,4.121951580047607,0.3223174214363098,-0.032501641660928726,0.0388055294752121,1.079656720161438
258,50521,50519,-0.032486338168382645,0.010605943389236927,1.0433892011642456,-3.1758840084075928,0.6789398789405823,-2.733637809753418,1.9815285205841064,4.121723175048828,0.32230818271636963,-0.04104514792561531,-0.027132393792271614,1.0514827966690063
259,50531,50529,-0.008249678649008274,-0.010194544680416584,0.9798389673233032,-0.4567931294441223,2.8644258975982666,-2.947770595550537,1.9811480045318604,4.122596263885498,0.3223316967487335,-0.0012762915575876832,-0.049550630152225494,1.0212656259536743
260,50541,50539,-0.03684850409626961,0.041152097284793854,1.013005256652832,2.825388193130493,1.436583161354065,-2.7233176231384277,1.981408953666687,4.12282133102417,0.32237565517425537,-0.05672701075673103,-0.025440769270062447,0.9922207593917847
261,50551,50549,-0.08161648362874985,0.03560391440987587,0.9689478874206543,4.470552444458008,4.076231956481934,-2.585672616958618,1.9802064895629883,4.123688220977783,0.3261982500553131,-0.04491781070828438,0.04247685521841049,0.9616343379020691
262,50561,50559,-0.022498667240142822,0.006250337231904268,0.9675650000572205,4.611402988433838,4.085991859436035,-2.2877514362335205,1.979819655418396,4.1238837242126465,0.3264240622520447,-0.05239377170801163,0.13285696506500244,0.9362348914146423
263,50571,50569,0.023882435634732246,-0.06438630819320679,0.9789832830429077,3.363269567489624,3.4530980587005615,-2.2754967212677,1.97987699508667,4.123610973358154,0.32660990953445435,-0.12905119359493256,0.20773357152938843,0.9169979691505432
264,50581,50579,0.011052394285798073,-0.037984173744916916,0.9432192444801331,1.388837456703186,2.6349995136260986,-2.7734575271606445,1.9801257848739624,4.12346887588501,0.325510174036026,-0.1974552571773529,0.2480437159538269,0.8945786356925964
265,50591,50589,-0.03720002993941307,-0.01486388873308897,1.0068618059158325,-1.2692623138427734,1.8920025825500488,-2.8975560665130615,1.980085015296936,4.123512268066406,0.3255596458911896,-0.25435763597488403,0.24643449485301971,0.8664853572845459
266,50601,50599,0.0002054973301710561,-0.07536869496107101,0.9741062521934509,-2.3927712440490723,-0.08435464650392532,-2.693260669708252,1.9798171520233154,4.123251914978027,0.32560983300209045,-0.26929235458374023,0.21465328335762024,0.8374837040901184
267,50611,50609,0.001737566664814949,-0.037460729479789734,0.9922971129417419,-3.0051095485687256,1.3955730199813843,-2.6246867179870605,1.979687213897705,4.123136043548584,0.32435134053230286,-0.28979364037513733,0.16091682016849518,0.8094820380210876
268,50621,50619,0.02280973084270954,0.01305736880749464,1.0200426578521729,-3.564887523651123,-0.06007618457078934,-2.8458943367004395,1.9787522554397583,4.122760772705078,0.3242779076099396,-0.23569361865520477,0.10207994282245636,0.7826926708221436
269,50631,50629,0.05657580867409706,-0.07988009601831436,0.9194868206977844,-2.9739487171173096,0.10174252092838287,-2.084608793258667,1.9786953926086426,4.123917579650879,0.3242177367210388,-0.20575988292694092,0.043830715119838715,0.7531964182853699
270,50641,50639,0.07204551249742508,-0.16924463212490082,0.9402894377708435,-1.6614065170288086,-2.1106231212615967,-1.2235407829284668,1.9788588285446167,4.12416410446167,0.3241312801837921,-0.22447596490383148,0.001880534691736102,0.7305986285209656
271,50651,50649,0.05948235094547272,-0.2413579821586609,1.0636285543441772,0.7885094285011292,-0.8825055360794067,-1.4091248512268066,1.9783549308776855,4.1231369972229,0.32604312896728516,-0.2031717747449875,-0.007954590953886509,0.7166444063186646
272,50661,50659,0.04120836779475212,-0.19384747743606567,1.068947434425354,1.9033994674682617,0.6957194209098816,-1.4785163402557373,1.9781019687652588,4.123226165771484,0.3260393440723419,-0.20800171792507172,0.018937449902296066,0.703122079372406
273,50671,50669,0.04057192802429199,-0.12364310771226883,1.002415418624878,4.077380657196045,0.9798656702041626,-1.4723092317581177,1.9777113199234009,4.122677803039551,0.3261077404022217,-0.24078509211540222,0.07184997200965881,0.6869820356369019
274,50681,50679,0.02064535766839981,-0.0891873687505722,0.9883288741111755,1.5668631792068481,6.064177513122559,-2.391251564025879,1.9782480001449585,4.122228145599365,0.3257962763309479,-0.32249295711517334,0.12656110525131226,0.6706466674804688
275,50691,50689,0.06005242466926575,-0.017350435256958008,0.8952776193618774,2.3957183361053467,5.021902561187744,-2.1715142726898193,1.9774855375289917,4.122005939483643,0.32587873935699463,-0.38153713941574097,0.15316955745220184,0.6470226645469666
276,50701,50699,-0.009078322909772396,0.0035276394337415695,1.0022622346878052,0.6268842816352844,2.781308650970459,-2.1279735565185547,1.9775781631469727,4.122157573699951,0.3258589804172516,-0.4364957809448242,0.17247581481933594,0.6269086003303528
277,50711,50709,0.0009151788544841111,-0.02071169577538967,0.9946222901344299,-0.4764169156551361,-2.1214752197265625,-1.587558388710022,1.976487398147583,4.121943950653076,0.32421645522117615,-0.3999006152153015,0.16552014648914337,0.6055023074150085
278,50721,50719,-0.06595677137374878,0.01165132224559784,1.0278524160385132,-3.0524027347564697,-0.6398983001708984,-1.724716067314148,1.9764323234558105,4.12216329574585,0.3240884244441986,-0.3841943144798279,0.13024690747261047,0.5877755284309387
279,50731,50729,0.008820625953376293,-0.0224277526140213,0.9428921341896057,-3.9917385578155518,-2.9422175884246826,-1.4973170757293701,1.9762765169143677,4.1223859786987305,0.3239701986312866,-0.3700627386569977,0.07384077459573746,0.5701559782028198
280,50741,50739,-0.0255958903580904,0.09777191281318665,0.9634433388710022,-2.5258355140686035,-4.21329927444458,-1.1068495512008667,1.975710391998291,4.122066020965576,0.3266700506210327,-0.31324124336242676,0.023096350952982903,0.5548815727233887
281,50751,50749,-0.01662529446184635,0.04513872042298317,1.0040092468261719,-0.9287148118019104,-2.7512199878692627,-0.5425162315368652,1.975154995918274,4.121146202087402,0.3266916871070862,-0.2634861171245575,0.06454875320196152,0.5478488802909851
282,50761,50759,-0.010732173919677734,0.004241493064910173,0.9826860427856445,0.5972892045974731,-0.9437879323959351,-0.47303900122642517,1.9755460023880005,4.121596813201904,0.3266977071762085,-0.23740583658218384,0.057049572467803955,0.5427015423774719
283,50771,50769,0.00838374625891447,-0.001428659656085074,1.0126334428787231,1.3847013711929321,0.7354552149772644,-0.3864862024784088,1.9751312732696533,4.121334075927734,0.3267061710357666,-0.24056033790111542,0.06566961854696274,0.5390872359275818
284,50781,50779,-0.013213268481194973,0.04652027785778046,1.0311990976333618,1.1451506614685059,2.0556397438049316,-0.256318598985672,1.9756540060043335,4.122659206390381,0.3239648640155792,-0.2616225779056549,0.015503472648561,0.5340741276741028
285,50791,50789,0.017988355830311775,-0.04538390785455704,0.9765498042106628,1.4307663440704346,2.237856149673462,-0.6616459488868713,1.9760117530822754,4.121861934661865,0.32381802797317505,-0.3785285949707031,0.04197368398308754,0.5318536758422852
286,50801,50799,-0.057129066437482834,0.02102634683251381,1.003098726272583,0.7749320268630981,0.4684487581253052,-0.6936807036399841,1.975306510925293,4.121952533721924,0.323744535446167,-0.3077929615974426,0.06897497177124023,0.5262410044670105
287,50811,50809,-0.02666877582669258,0.048716019839048386,0.9481699466705322,-0.3434971570968628,-0.3239203691482544,-0.9434352517127991,1.975527048110962,4.122932434082031,0.32263100147247314,-0.31822630763053894,-0.000886174151673913,0.5157392621040344
288,50821,50819,0.006298703141510487,0.04433324187994003,0.9859297871589661,-0.6570538878440857,-0.8831271529197693,-0.8840433359146118,1.9751646518707275,4.12269401550293,0.3224087357521057,-0.31627580523490906,-0.005114541854709387,0.506594181060791
289,50831,50829,0.022493576630949974,-0.017303522676229477,0.9957687854766846,-0.7621949315071106,-2.342219591140747,-0.5510802865028381,1.9737074375152588,4.12249755859375,0.3221473693847656,-0.1458432823419571,-0.018025949597358704,0.49519968032836914
290,50841,50839,-0.012323555536568165,-0.030014438554644585,0.9855417609214783,0.07932067662477493,-2.981173515319824,-0.4164544641971588,1.9731582403182983,4.122122764587402,0.3180343806743622,-0.11969766020774841,-0.01584315299987793,0.4891377389431
291,50851,50849,-0.009563589468598366,-0.22261764109134674,1.0502606630325317,1.5216660499572754,-2.900806427001953,-0.02057201787829399,1.9727668762207031,4.122063636779785,0.31751081347465515,-0.04990319535136223,0.001597055932506919,0.4860554039478302
292,50861,50859,-0.0171112809330225,-0.11417689174413681,1.0228387117385864,3.3778772354125977,0.5814267992973328,0.18817812204360962,1.9730093479156494,4.122542858123779,0.3170557916164398,-0.0397680439054966,-0.028021190315485,0.4858691096305847
293,50871,50869,0.006193092092871666,-0.11854633688926697,0.9538320899009705,2.959656000137329,5.7384161949157715,-0.305079847574234,1.9733563661575317,4.122420787811279,0.31663456559181213,-0.09004677087068558,0.04432566091418266,0.4902175962924957
294,50881,50879,-0.004271094687283039,0.024589575827121735,0.9917303323745728,1.4432185888290405,5.5897650718688965,-0.1773228794336319,1.9736055135726929,4.122334003448486,0.3174048662185669,-0.21496190130710602,0.09307607263326645,0.489529013633728
295,50891,50889,-0.028351562097668648,-0.025712881237268448,1.0626662969589233,0.26280078291893005,9.01650333404541,-0.3517530858516693,1.9725898504257202,4.12253999710083,0.31699904799461365,-0.20069223642349243,0.03682144358754158,0.4857906103134155
296,50901,50899,-0.005131395533680916,-0.10147961229085922,1.0595611333847046,-0.4792669415473938,4.714868545532227,-0.5336453318595886,1.9732357263565063,4.122114181518555,0.3166569471359253,-0.33518198132514954,0.04144212603569031,0.48343202471733093
297,50911,50909,-0.020738499239087105,-0.03856275603175163,1.0436006784439087,-0.12210696935653687,3.282344102859497,-0.5563321113586426,1.9730896949768066,4.121764659881592,0.31364691257476807,-0.42199745774269104,0.0494493767619133,0.47962892055511475
298,50921,50919,-0.013553398661315441,0.014802083373069763,1.0504710674285889,1.1629682779312134,-0.4478110671043396,-0.3223646879196167,1.972936749458313,4.12076997756958,0.3132421672344208,-0.4637998044490814,0.06591872870922089,0.47715651988983154
299,50931,50929,0.03794393688440323,0.013176037929952145,0.9889148473739624,1.2086436748504639,-2.5235040187835693,0.03446057811379433,1.9721407890319824,4.120981216430664,0.3128665089607239,-0.38313233852386475,0.08794070035219193,0.47388747334480286
300,50941,50939,-0.016431525349617004,0.04666581749916077,1.0630872249603271,2.2248363494873047,-6.464192867279053,0.0018332413164898753,1.9713038206100464,4.120284557342529,0.3144681453704834,-0.31589123606681824,0.1254706233739853,0.4737386405467987
301,50951,50949,-0.02064122073352337,-0.09143005311489105,1.0461394786834717,1.748513102531433,-8.924823760986328,-0.22498349845409393,1.971480369567871,4.120215892791748,0.31426021456718445,-0.259692519903183,0.15943877398967743,0.47361239790916443
302,50961,50959,0.0063574183732271194,-0.050710923969745636,1.0325891971588135,1.3944491147994995,-3.733443260192871,-0.40406084060668945,1.9713555574417114,4.120326042175293,0.31412529945373535,-0.15367154777050018,0.1937057077884674,0.466391921043396
303,50971,50969,-0.03206803649663925,-0.03428272157907486,1.068376898765564,0.2790737450122833,-0.10915755480527878,-0.31262969970703125,1.9717402458190918,4.120889186859131,0.3140579164028168,-0.20702067017555237,0.13019199669361115,0.4605787992477417
304,50981,50979,0.046458568423986435,-0.01381246093660593,1.0258363485336304,-1.4043617248535156,1.6983397006988525,-0.3055480420589447,1.971138834953308,4.1211466789245605,0.31614288687705994,-0.1449788212776184,0.1253199577331543,0.45788970589637756
305,50991,50989,-0.010555521585047245,-0.0251793060451746,1.0269970893859863,-2.627760887145996,3.781250238418579,0.14957652986049652,1.9708315134048462,4.1211113929748535,0.3162716031074524,-0.1926281899213791,0.10222578793764114,0.45524126291275024
306,51001,50999,0.016502460464835167,-0.018082192167639732,1.0269064903259277,-2.1736249923706055,2.9607455730438232,0.09586794674396515,1.9709975719451904,4.121285438537598,0.3163905739784241,-0.2489350587129593,0.07376150041818619,0.4564298689365387
307,51011,51009,0.0015227618860080838,-0.1184777170419693,1.0403424501419067,-0.5994221568107605,1.1228388547897339,0.042955514043569565,1.9707345962524414,4.120099067687988,0.3189034163951874,-0.28760647773742676,0.1386260837316513,0.45894625782966614
308,51021,51019,0.015862243250012398,0.03285656124353409,0.978050172328949,1.1793345212936401,-1.2401988506317139,-0.32876935601234436,1.9708043336868286,4.120781898498535,0.3192722797393799,-0.2921499013900757,0.07630275189876556,0.4575338661670685
309,51031,51029,-0.038215357810258865,0.037909653037786484,1.042407751083374,2.2127530574798584,-3.274360179901123,-0.38916730880737305,1.9708656072616577,4.12136697769165,0.31962358951568604,-0.2596485912799835,0.10965230315923691,0.45352357625961304
310,51041,51039,-0.004971913527697325,-0.03177608549594879,1.0033588409423828,2.233004331588745,-3.714475393295288,-0.27592021226882935,1.9706133604049683,4.121347904205322,0.3210464417934418,-0.20130498707294464,0.15054602921009064,0.45020046830177307
311,51051,51049,-0.016057772561907768,0.0009982992196455598,1.0122628211975098,2.808195114135742,-4.976769924163818,-0.5280285477638245,1.9706343412399292,4.121713638305664,0.32148972153663635,-0.12553556263446808,0.19602106511592865,0.44749578833580017
312,51061,51059,-0.010452615097165108,0.011169617995619774,0.9903481602668762,0.7944164872169495,-4.0746283531188965,-0.30302372574806213,1.9708921909332275,4.121435165405273,0.3219295144081116,-0.11708022654056549,0.23743638396263123,0.44475406408309937
313,51071,51069,0.029223300516605377,0.0469752736389637,1.0038769245147705,1.183976173400879,-3.298210620880127,-0.34155362844467163,1.9715067148208618,4.121872901916504,0.32242530584335327,-0.1326337456703186,0.244718536734581,0.4417780637741089
314,51081,51079,0.03716042637825012,0.03125506266951561,0.9903403520584106,-0.22405822575092316,-1.5961111783981323,-0.3309720456600189,1.97222101688385,4.1225972175598145,0.31980857253074646,-0.1661623865365982,0.2548838257789612,0.434954971075058
315,51091,51089,0.022584907710552216,0.0037183561362326145,0.9984180331230164,-1.750351071357727,-0.7899142503738403,-0.7898630499839783,1.9719014167785645,4.122855186462402,0.32009533047676086,-0.13432985544204712,0.24355193972587585,0.42992934584617615
316,51101,51099,-0.02128974348306656,-0.0820232704281807,0.9749147891998291,-2.029839515686035,-1.9207866191864014,-0.7215408086776733,1.9720553159713745,4.123185157775879,0.32036635279655457,-0.09399490058422089,0.21735736727714539,0.4227432906627655
317,51111,51109,-0.03643988072872162,-0.10238680243492126,0.955790102481842,-1.9210766553878784,-2.650959014892578,-0.504576563835144,1.971271276473999,4.1232709884643555,0.3208581507205963,-0.04089907929301262,0.18619802594184875,0.41565901041030884
318,51121,51119,-0.021186506375670433,-0.056134533137083054,0.9587581753730774,-2.640955924987793,-2.0793423652648926,-1.1450204849243164,1.9723637104034424,4.123350620269775,0.3210833966732025,-0.08758864551782608,0.14600297808647156,0.4086625576019287
319,51131,51129,-0.05823713168501854,0.007236798759549856,0.9935997128486633,-1.9770303964614868,-1.7857260704040527,-1.0742160081863403,1.9729398488998413,4.123851776123047,0.3212454617023468,-0.12567074596881866,0.10546885430812836,0.3972342908382416
320,51141,51139,0.026243790984153748,-0.04721170291304588,0.9779306650161743,0.2259349524974823,-2.636753797531128,-0.8161386251449585,1.9714385271072388,4.123112201690674,0.32167327404022217,0.00025946905952878296,0.07794693857431412,0.389638751745224
321,51151,51149,0.04306679591536522,-0.05773298814892769,0.9800851345062256,0.0496765561401844,-1.9594414234161377,-0.6712359189987183,1.9726155996322632,4.12327766418457,0.32186126708984375,-0.03785400837659836,0.15393389761447906,0.38024604320526123
322,51161,51159,-0.005134140141308308,-0.013213139958679676,0.9673673510551453,1.8254938125610352,-2.1663355827331543,-1.029280662536621,1.9722237586975098,4.123013019561768,0.3220086097717285,0.00860960129648447,0.1669260710477829,0.37299636006355286
323,51171,51169,-0.011122082360088825,-0.07753496617078781,0.9395726323127747,1.675811767578125,-3.677000045776367,-1.1349626779556274,1.9720711708068848,4.123054027557373,0.32210615277290344,0.06613986194133759,0.18527093529701233,0.3651324212551117
324,51181,51179,0.001489272341132164,-0.10322070866823196,0.9513899087905884,0.9861081838607788,-3.033555507659912,-0.7894122004508972,1.9725733995437622,4.1231303215026855,0.3221777379512787,0.053720589727163315,0.20011138916015625,0.3538632094860077
325,51191,51189,0.00856043491512537,-0.05830378085374832,0.9578984379768372,-0.46436721086502075,-2.152752637863159,-0.5983526706695557,1.972280740737915,4.123316764831543,0.3222043216228485,0.10584048181772232,0.20199622213840485,0.34747079014778137
326,51201,51199,-0.01478621456772089,-0.009481965564191341,0.9999922513961792,-2.060316801071167,-1.8737996816635132,-1.1221383810043335,1.9720755815505981,4.124292373657227,0.3222419321537018,0.14039567112922668,0.17347675561904907,0.33944058418273926
327,51211,51209,0.02554398961365223,-0.010726938024163246,0.9706293940544128,-3.688629150390625,-0.14445577561855316,-0.7968780994415283,1.9726929664611816,4.124915599822998,0.3210436701774597,0.08041221648454666,0.1170206218957901,0.326875776052475
328,51221,51219,0.05340427905321121,-0.15863656997680664,0.9946776032447815,-2.3264474868774414,0.9320794343948364,-1.9289482831954956,1.9728299379348755,4.1256208419799805,0.3209821879863739,0.07743266969919205,0.06904064118862152,0.31807342171669006
329,51231,51229,0.012209511362016201,-0.14948000013828278,0.9473225474357605,-2.850811004638672,0.9870754480361938,-1.524656891822815,1.9734878540039062,4.126245498657227,0.32089051604270935,0.06981349736452103,0.033072106540203094,0.3000493049621582
330,51241,51239,0.0024193509016186,-0.04444070905447006,0.988822340965271,-1.6831125020980835,-0.34584665298461914,-1.0791562795639038,1.972908854484558,4.126858234405518,0.316120445728302,0.07610150426626205,-0.000692721048835665,0.28459376096725464
331,51251,51249,-0.0028738784603774548,-0.10817887634038925,0.9743806719779968,0.5490680932998657,-1.137008547782898,-0.8782011866569519,1.9730114936828613,4.126307964324951,0.3156992495059967,0.09560418128967285,0.07254283130168915,0.2686624825000763
332,51261,51259,-0.00453901756554842,-0.05865383893251419,0.9890432953834534,1.1966848373413086,-0.9405999183654785,-0.33554187417030334,1.9726803302764893,4.125960350036621,0.3152337372303009,0.11641290783882141,0.08407514542341232,0.26270824670791626
333,51271,51269,-0.024063903838396072,0.03594721108675003,1.022411584854126,2.1427297592163086,-3.106835126876831,-0.835906982421875,1.9719300270080566,4.126561164855957,0.3185121417045593,0.1520935595035553,0.10358274728059769,0.2549110949039459
334,51281,51279,-0.11096076667308807,0.09865528345108032,1.0131828784942627,1.8404277563095093,-2.7364511489868164,-0.3914552927017212,1.9721369743347168,4.126692295074463,0.31852519512176514,0.20631512999534607,0.137757807970047,0.24546562135219574
335,51291,51289,-0.03622287139296532,0.015410240739583969,0.9863467812538147,0.6925293803215027,-0.6886804103851318,-0.6282678842544556,1.9715816974639893,4.126458644866943,0.3182971179485321,0.238545760512352,0.14584006369113922,0.24483554065227509
336,51301,51299,-0.06893623620271683,0.07926378399133682,1.0096088647842407,-1.5445529222488403,0.9124869704246521,-0.4818607270717621,1.9731483459472656,4.126059532165527,0.3180913031101227,0.08337274938821793,0.1257844716310501,0.24203278124332428
337,51311,51309,0.013510442338883877,0.020744336768984795,1.053057312965393,-3.6349847316741943,1.7844327688217163,0.47452592849731445,1.9726765155792236,4.126626014709473,0.31650134921073914,0.1612374186515808,0.07171609252691269,0.24265353381633759
338,51321,51319,0.0005138788837939501,-0.004323660396039486,1.0283262729644775,-3.5454134941101074,2.169621467590332,-0.23727676272392273,1.9733572006225586,4.126712799072266,0.3161957561969757,0.13273723423480988,0.00626203790307045,0.24488958716392517
339,51331,51329,-0.004051449242979288,0.007259496953338385,1.0265792608261108,-2.715290069580078,1.7415776252746582,-0.3631584048271179,1.9735324382781982,4.126251697540283,0.3159223198890686,0.09556421637535095,0.024348272010684013,0.2382880300283432
340,51341,51339,0.017796020954847336,-0.019285287708044052,0.9854824542999268,-1.9089250564575195,1.0179587602615356,0.14658600091934204,1.9730615615844727,4.127326011657715,0.31715092062950134,0.07748548686504364,-0.027430081740021706,0.23773008584976196
341,51351,51349,-0.011694392189383507,-0.011154805310070515,1.0290967226028442,0.22205998003482819,-0.5622501969337463,0.3162878751754761,1.9730857610702515,4.127386093139648,0.3170081079006195,0.08116614818572998,-0.0404265820980072,0.24117223918437958
342,51361,51359,0.035591647028923035,-0.047238994389772415,1.0604900121688843,1.5764127969741821,-1.6674429178237915,0.42148351669311523,1.9723644256591797,4.127546310424805,0.3168759047985077,0.10277476161718369,-0.03375701606273651,0.2439471334218979
343,51371,51369,0.05990744009613991,-0.08707094192504883,1.0338045358657837,3.35764479637146,-2.3186187744140625,-0.4489055275917053,1.9726279973983765,4.128763198852539,0.319497674703598,0.1454399824142456,0.016938690096139908,0.24469156563282013
344,51381,51379,-0.007254549767822027,-0.008841033093631268,1.0418230295181274,3.2000582218170166,-0.4059693217277527,-0.68907630443573,1.9721354246139526,4.12783145904541,0.31959962844848633,0.18826556205749512,0.06223180517554283,0.24025042355060577
345,51391,51389,-0.006080612540245056,-0.02252810448408127,0.985105037689209,1.1230175495147705,-0.9963712096214294,-0.17837388813495636,1.9722532033920288,4.12736701965332,0.3197857439517975,0.20566371083259583,0.09361398965120316,0.23500818014144897
346,51401,51399,-0.00722686480730772,0.05604765936732292,1.0246163606643677,-0.5298780202865601,0.33837634325027466,-0.3168359100818634,1.9728134870529175,4.127930641174316,0.3199608027935028,0.139327734708786,0.010625578463077545,0.24008925259113312
347,51411,51409,-0.018381718546152115,0.02916811592876911,1.0632590055465698,-0.5522546768188477,1.558400273323059,-0.7336794137954712,1.971798062324524,4.128240585327148,0.31873923540115356,0.21467621624469757,0.0032300082966685295,0.23306085169315338
348,51421,51419,0.022196410223841667,-0.03345867991447449,0.9740870594978333,-1.091650366783142,-0.03844502195715904,-0.16465820372104645,1.9720923900604248,4.128647804260254,0.31888115406036377,0.17808696627616882,0.05614032968878746,0.22444500029087067
349,51431,51429,-0.06761185079813004,0.08690561354160309,1.0858726501464844,0.7009581327438354,0.39981064200401306,-1.0002235174179077,1.9723577499389648,4.1290202140808105,0.3190215826034546,0.18598008155822754,0.05481811985373497,0.22095322608947754
350,51441,51439,-0.06742408126592636,0.06627970933914185,0.9959133863449097,-0.2902144491672516,2.923729181289673,-0.22233210504055023,1.972081184387207,4.1297197341918945,0.3194924592971802,0.14091794192790985,0.04551837965846062,0.2158510684967041
351,51451,51449,-0.001571536879055202,0.005642770789563656,0.9967395067214966,0.8882395625114441,2.9772789478302,-0.16652293503284454,1.9725781679153442,4.129384994506836,0.3197424113750458,0.08996183425188065,0.05051613226532936,0.21368536353111267
352,51461,51459,-0.02905884198844433,0.0572652742266655,0.9864533543586731,0.7092152237892151,2.3140759468078613,-0.06895824521780014,1.9721016883850098,4.12946081161499,0.3199799656867981,0.0443759448826313,0.06283778697252274,0.2086413949728012
353,51471,51469,-0.02953726425766945,0.11920258402824402,0.9607771635055542,0.5054954886436462,1.0924757719039917,-0.4601080119609833,1.971990704536438,4.129786491394043,0.32077908515930176,0.004846571478992701,0.06834189593791962,0.20114445686340332
354,51481,51479,0.011938686482608318,0.013517661951482296,0.949755072593689,-0.2526979446411133,2.71598482131958,-1.0424163341522217,1.9716999530792236,4.129074573516846,0.32102736830711365,-0.026316076517105103,0.07023239880800247,0.19512499868869781
355,51491,51489,-1.0977405509038363e-05,0.01818349026143551,0.9690365791320801,0.737375020980835,-0.8064554333686829,-0.5256737470626831,1.9713859558105469,4.129669666290283,0.32143035531044006,0.001112340367399156,0.06323932856321335,0.19003155827522278
356,51501,51499,0.06946288794279099,-0.04940455034375191,0.9008840322494507,0.3611476719379425,-0.9477775692939758,-0.739900529384613,1.97187077999115,4.129298686981201,0.3203537166118622,-0.013191466219723225,0.059861134737730026,0.18560032546520233
357,51511,51509,0.036796726286411285,-0.0471440814435482,0.9375074505805969,1.2422747611999512,-5.320834159851074,-0.027018368244171143,1.9709782600402832,4.129056453704834,0.32038265466690063,0.06045662239193916,0.07861272245645523,0.17931383848190308
358,51521,51519,0.03585967421531677,-0.038078904151916504,0.9372515082359314,0.1434074193239212,-5.724119186401367,-0.1119207963347435,1.9705311059951782,4.129481792449951,0.32034751772880554,0.128081813454628,0.07264404743909836,0.1792500764131546
359,51531,51529,-0.016718802973628044,0.03574773296713829,0.9920330047607422,1.7713617086410522,-3.2247045040130615,-0.8515823483467102,1.9698829650878906,4.129791736602783,0.3201638460159302,0.22932903468608856,0.09611789882183075,0.17475827038288116
360,51541,51539,-0.03452073782682419,0.10203990340232849,0.9760524034500122,0.367075115442276,0.4581242501735687,-0.47242802381515503,1.9700640439987183,4.131186485290527,0.3187541365623474,0.26144832372665405,0.09594754129648209,0.16988180577754974
361,51551,51549,-0.006352453492581844,0.09342324733734131,0.9319738149642944,0.17938804626464844,2.0999863147735596,-0.5275606513023376,1.9699387550354004,4.130280494689941,0.31854236125946045,0.21470563113689423,0.08693210035562515,0.1632709503173828
362,51561,51559,0.008943881839513779,-0.04444711655378342,0.964379072189331,0.5872341990470886,4.972055912017822,-0.516299307346344,1.9696496725082397,4.1299614906311035,0.31794124841690063,0.15454065799713135,0.09739281237125397,0.15761496126651764
363,51571,51569,0.013292716816067696,-0.03294476121664047,0.9911704659461975,-2.0426149368286133,6.763276100158691,-1.0367887020111084,1.9701175689697266,4.130133628845215,0.31962311267852783,0.039302218705415726,0.07132451981306076,0.15293976664543152
364,51581,51579,0.05881856381893158,-0.04504389688372612,0.9520402550697327,-2.0041184425354004,6.7006964683532715,-0.9692547917366028,1.9702812433242798,4.13053035736084,0.3194006383419037,-0.11818283796310425,0.03332862630486488,0.1416785567998886
365,51591,51589,0.01957257091999054,0.05829707905650139,0.9067257642745972,-0.7465519905090332,2.9071080684661865,-0.9996970295906067,1.9703391790390015,4.131427764892578,0.3191564679145813,-0.11349797993898392,0.009459979832172394,0.1289319097995758
366,51601,51599,-0.007943795993924141,0.090103380382061,0.9605095982551575,-0.37827634811401367,0.23943811655044556,-0.6366158723831177,1.9705100059509277,4.131511211395264,0.32246220111846924,-0.12873831391334534,0.00328652816824615,0.12136965245008469
367,51611,51609,-0.03695093095302582,0.12108778953552246,0.9993987679481506,2.4215524196624756,-2.34733247756958,-0.27065232396125793,1.9700719118118286,4.131097793579102,0.32230284810066223,-0.10242786258459091,0.03432372212409973,0.11526607722043991
368,51621,51619,0.021568862721323967,-0.07329699397087097,0.9792878031730652,3.2751410007476807,-6.307254314422607,-0.22119766473770142,1.9699136018753052,4.131204605102539,0.32211095094680786,-0.011750360019505024,0.06592288613319397,0.11377760767936707
369,51631,51629,-0.02742430381476879,-0.029582874849438667,1.036637306213379,3.3459012508392334,-4.670708179473877,-0.16685259342193604,1.9692827463150024,4.130828857421875,0.3219185173511505,0.061139266937971115,0.12237310409545898,0.11066184192895889
370,51641,51639,0.046991679817438126,0.04723479971289635,0.917921245098114,3.0066847801208496,2.3607540130615234,-0.43887850642204285,1.969625473022461,4.131063461303711,0.3211246132850647,0.08168952167034149,0.17494617402553558,0.105959452688694
371,51651,51649,-0.012356029823422432,0.10551577061414719,1.0304006338119507,-0.3122939169406891,-0.5534957647323608,-0.33459562063217163,1.9694867134094238,4.131147384643555,0.3208584189414978,0.08721709996461868,0.1814914494752884,0.10553094744682312
372,51661,51659,0.02928471565246582,-0.022981461137533188,0.9949618577957153,-2.8822219371795654,1.9584683179855347,-0.5251882672309875,1.9690955877304077,4.13191556930542,0.32055792212486267,0.07668120414018631,0.14822012186050415,0.1007358729839325
373,51671,51669,-0.020686140283942223,-0.029750153422355652,1.0130424499511719,-3.132335662841797,3.379122257232666,-0.3921208083629608,1.9697034358978271,4.133365631103516,0.32055866718292236,0.035987358540296555,0.09418211877346039,0.0980762466788292
374,51681,51679,0.007560201454907656,-0.09878035634756088,1.0362794399261475,-3.6405234336853027,3.535240888595581,-0.1437835693359375,1.969745397567749,4.132322311401367,0.32030871510505676,-0.026825008913874626,0.11075668781995773,0.09349506348371506
375,51691,51689,-0.008061409927904606,-0.1624409407377243,1.0113141536712646,-2.5408647060394287,2.538825273513794,-0.4318191409111023,1.9693481922149658,4.132770538330078,0.3200663924217224,-0.0027623821515589952,0.047462962567806244,0.09042436629533768
376,51701,51699,-0.010777933523058891,-0.05472845956683159,1.0419895648956299,-0.9853503108024597,0.9150421619415283,-0.27195751667022705,1.9694262742996216,4.132200717926025,0.31594887375831604,-0.03702845796942711,0.09462220221757889,0.0854487195611
377,51711,51709,0.009084492921829224,-0.029203664511442184,0.9904841184616089,0.39330288767814636,-0.7437556982040405,-0.22337374091148376,1.9698554277420044,4.131762981414795,0.3155311346054077,-0.04390639439225197,0.07931644469499588,0.0835689976811409
378,51721,51719,0.028369147330522537,0.049309514462947845,1.0235850811004639,1.5338033437728882,0.37513309717178345,0.026332495734095573,1.9701757431030273,4.1311540603637695,0.31474047899246216,-0.05567893385887146,0.08866056799888611,0.08293528854846954
379,51731,51729,0.022484594956040382,0.02847706526517868,1.0383424758911133,0.6573582887649536,0.10553774237632751,0.34789177775382996,1.9695340394973755,4.131129741668701,0.31514859199523926,0.03472984954714775,0.09962581098079681,0.0825633853673935
380,51741,51739,0.06793252378702164,-0.033981457352638245,1.008721947669983,-0.3412409722805023,-2.1605260372161865,0.070478156208992,1.9705475568771362,4.130732536315918,0.3147847652435303,-0.03570925444364548,0.08958599716424942,0.083345428109169
381,51751,51749,-0.016622934490442276,0.005088198930025101,1.0276862382888794,-1.4509245157241821,-0.522159993648529,-0.508814811706543,1.9704837799072266,4.13092565536499,0.3144635558128357,-0.01794920489192009,0.05897599831223488,0.08361932635307312
382,51761,51759,-0.026647787541151047,0.058339592069387436,1.0085681676864624,-2.658115863800049,0.8044870495796204,-0.5294289588928223,1.9699803590774536,4.1313157081604,0.31416282057762146,-0.02602958120405674,0.012986649759113789,0.07963345944881439
383,51771,51769,-0.002733278088271618,0.0028617007192224264,1.0079362392425537,-2.5244662761688232,1.8668111562728882,-0.14085784554481506,1.9703677892684937,4.1310906410217285,0.31322821974754333,-0.045093294233083725,0.04720579460263252,0.07696425169706345
384,51781,51779,-0.006111173424869776,0.01607566326856613,1.0609259605407715,-2.166361093521118,2.5845234394073486,0.0892816111445427,1.9702155590057373,4.13060998916626,0.3129049837589264,-0.08528774231672287,-0.007641514763236046,0.077204629778862
385,51791,51789,0.02656959742307663,0.021168425679206848,1.055125117301941,0.29370763897895813,1.8193542957305908,0.0263627041131258,1.9707521200180054,4.131209373474121,0.31263160705566406,-0.11464498937129974,-0.026458628475666046,0.08059697598218918
386,51801,51799,0.0063387248665094376,0.026224691420793533,1.0516808032989502,0.5770341157913208,1.1476374864578247,0.4902840554714203,1.970342755317688,4.131436824798584,0.31705889105796814,-0.1352611482143402,-0.020565344020724297,0.0842503011226654
387,51811,51809,-0.0043952446430921555,-0.01843547448515892,1.0229861736297607,1.8422815799713135,-0.5785983204841614,0.31607019901275635,1.970592975616455,4.132066249847412,0.31718116998672485,-0.13158027827739716,-8.22844376671128e-05,0.08795975893735886
388,51821,51819,-0.005162188783288002,-0.020430004224181175,1.03520929813385,1.171506404876709,-2.275339126586914,0.503128170967102,1.9707218408584595,4.132474899291992,0.31733912229537964,-0.10719011723995209,0.012806838378310204,0.0897890254855156
389,51831,51829,0.04372226446866989,-0.09673880785703659,1.0205788612365723,-0.07998453080654144,-5.889813423156738,1.1104235649108887,1.9702060222625732,4.13115119934082,0.3193327486515045,-0.04170973226428032,0.08529038727283478,0.09768446534872055
390,51841,51839,-0.01599527709186077,-0.10660700500011444,1.0808050632476807,0.39067208766937256,-2.7541656494140625,0.08974350243806839,1.9703378677368164,4.131661891937256,0.3196600377559662,0.007498879451304674,0.07432916760444641,0.10139399766921997
391,51851,51849,0.040183231234550476,-0.025400131940841675,0.988560676574707,-0.09419667720794678,-2.3936891555786133,0.24228109419345856,1.969699501991272,4.131677627563477,0.32004109025001526,0.03936641290783882,-0.012235247530043125,0.1032431498169899
392,51861,51859,-0.007972080260515213,-0.00022753376106265932,1.0118850469589233,-2.0160722732543945,-0.04950505122542381,0.11084740608930588,1.9693818092346191,4.131541728973389,0.3204559087753296,0.046902988106012344,-0.03930074721574783,0.10640434920787811
393,51871,51869,-0.010227774269878864,-0.04191279038786888,0.980847954750061,-2.722306251525879,0.7279621362686157,0.3212853968143463,1.969602346420288,4.132096290588379,0.32200026512145996,0.04005882143974304,-0.08288350701332092,0.10789088904857635
394,51881,51879,-0.001705935806967318,-0.006858518812805414,1.0063408613204956,-2.8273847103118896,2.1685585975646973,0.3254942297935486,1.96949303150177,4.131746292114258,0.3224760591983795,0.01713462360203266,-0.12317351996898651,0.11131515353918076
395,51891,51889,0.0048726690001785755,0.015789173543453217,0.9940840005874634,-0.42667126655578613,1.5012067556381226,0.5171914100646973,1.970054268836975,4.131375789642334,0.3229970932006836,-0.007439213804900646,-0.0621524453163147,0.11323700845241547
396,51901,51899,0.0037973409052938223,-0.00405485276132822,0.9752106070518494,1.7128419876098633,4.103273868560791,-0.7833060026168823,1.9700407981872559,4.131160259246826,0.3215985894203186,-0.054387517273426056,-0.05805666372179985,0.11474243551492691
397,51911,51909,-0.04693146422505379,0.10502121597528458,0.9476866126060486,4.173341751098633,0.6950123906135559,0.08503222465515137,1.9699002504348755,4.131250381469727,0.3219640851020813,-0.08712223172187805,-0.09178415685892105,0.11503183841705322
398,51921,51919,0.006949258502572775,-0.02935713902115822,0.9708973169326782,4.812648773193359,0.5538389682769775,-0.44491586089134216,1.969900131225586,4.130794525146484,0.3222547173500061,-0.0912795290350914,-0.015567077323794365,0.11134891957044601
399,51931,51929,-0.006512668449431658,0.01570947840809822,0.9931141138076782,3.720491409301758,0.4202265739440918,-1.0025978088378906,1.9697550535202026,4.130660533905029,0.3230283260345459,-0.0847497284412384,0.04833979904651642,0.10604920238256454
400,51941,51939,0.06808237731456757,0.005330406129360199,0.913744330406189,2.466034173965454,0.0587136410176754,-0.6926880478858948,1.9700583219528198,4.130751609802246,0.32331201434135437,-0.09569426625967026,0.09761127829551697,0.0963413342833519
401,51951,51949,-0.03277156129479408,0.0827091708779335,0.9536728262901306,-0.840027391910553,-1.1917259693145752,-0.8527573943138123,1.9693660736083984,4.131461143493652,0.32359176874160767,-0.047089215368032455,0.021994682028889656,0.08767436444759369
402,51961,51959,-0.013812958262860775,-0.012608819641172886,0.9498440027236938,-2.9672980308532715,-1.3250348567962646,-0.6763653755187988,1.9695533514022827,4.132262706756592,0.3237696588039398,-0.02100689336657524,-0.01659977063536644,0.08000583201646805
403,51971,51969,-0.036752719432115555,0.0019344419706612825,0.9929320812225342,-3.3908944129943848,-1.3430826663970947,-0.27165302634239197,1.9695006608963013,4.1329264640808105,0.32644641399383545,-0.0031608534045517445,-0.06939207017421722,0.07514134049415588
404,51981,51979,0.020939955487847328,-0.03901265189051628,0.9304869174957275,-1.7862269878387451,-0.7027866244316101,0.009762106463313103,1.96965754032135,4.1325812339782715,0.32670801877975464,-0.06810010224580765,-0.02678285539150238,0.07403802871704102
405,51991,51989,0.01552100945264101,0.12980015575885773,0.9502355456352234,0.5946143865585327,0.014001445844769478,-0.11376826465129852,1.9696767330169678,4.132713794708252,0.3269062340259552,-0.07791464030742645,-0.028170283883810043,0.07199855893850327
406,52001,51999,-0.016980482265353203,0.0678693875670433,0.9945238828659058,1.1843793392181396,-0.46184590458869934,0.05314544588327408,1.969712257385254,4.131723403930664,0.3236428201198578,-0.05710054561495781,0.06687533855438232,0.07064104080200195
407,52011,52009,0.022104090079665184,-0.035641178488731384,0.9497293829917908,1.9480053186416626,-0.938947856426239,0.22965914011001587,1.9700469970703125,4.131497383117676,0.32359030842781067,-0.036050185561180115,0.08760009706020355,0.07048244029283524
408,52021,52019,0.010784387588500977,0.005110946949571371,0.9652336239814758,0.2824552059173584,0.2785503566265106,0.48051226139068604,1.9700896739959717,4.131841659545898,0.32348981499671936,-0.017437325790524483,0.0972258448600769,0.07499850541353226
409,52031,52029,0.03442740812897682,-0.04587116092443466,0.944583535194397,-1.6075396537780762,0.8717547655105591,0.1002960354089737,1.9700679779052734,4.131743431091309,0.32454103231430054,-0.007122974842786789,0.07839275896549225,0.07775313407182693
410,52041,52039,-0.011565955355763435,-0.18670673668384552,0.9943878054618835,-1.6465619802474976,-2.3688836097717285,0.5373682975769043,1.9701194763183594,4.131741523742676,0.32443711161613464,0.004150484222918749,0.03434644639492035,0.07860644906759262
411,52051,52049,-0.020369315519928932,0.04209117218852043,0.9700013995170593,-2.5221142768859863,-1.5364766120910645,0.4223245084285736,1.969809889793396,4.131543159484863,0.3242882788181305,0.029818907380104065,-0.012664688751101494,0.08344297856092453
412,52061,52059,-0.01254692766815424,0.013096497394144535,0.9865903854370117,-2.9950993061065674,-1.4586514234542847,0.5910479426383972,1.9697598218917847,4.131786346435547,0.3241165578365326,0.054792337119579315,-0.07505887001752853,0.08740872889757156
413,52071,52069,-0.010861417278647423,0.049331724643707275,1.0017945766448975,-0.6337363719940186,-1.0587025880813599,0.49592554569244385,1.9696708917617798,4.13123083114624,0.3311663269996643,0.07961969822645187,-0.023998621851205826,0.0916324332356453
414,52081,52079,-0.061808936297893524,0.018047938123345375,1.01337468624115,0.2978881597518921,-0.7450358271598816,0.5616372227668762,1.9695377349853516,4.130876541137695,0.33139532804489136,0.10280544310808182,-0.03309275954961777,0.09639834612607956
415,52091,52089,0.01032201200723648,-0.04009005427360535,0.964463472366333,-1.1332377195358276,0.8167151808738708,0.4308324158191681,1.9698927402496338,4.1306562423706055,0.33166614174842834,0.0989924892783165,-0.05916478857398033,0.1024562194943428
416,52101,52099,0.015982389450073242,-0.05280392989516258,0.9717794060707092,0.35603877902030945,2.165113687515259,0.22655370831489563,1.9699831008911133,4.130195617675781,0.3305562734603882,0.06450745463371277,0.009091264568269253,0.10534350574016571
417,52111,52109,-0.01245379913598299,-0.027176467701792717,0.976633608341217,0.7950303554534912,3.7107794284820557,0.15227143466472626,1.9702129364013672,4.130337238311768,0.3306737244129181,0.00034585504909045994,0.003868310246616602,0.10578497499227524
418,52121,52119,-0.008946175687015057,0.04055524617433548,0.9455903172492981,0.4537360668182373,2.1779673099517822,-0.10122928023338318,1.970205545425415,4.130396842956543,0.33077991008758545,-0.03641185909509659,0.0052634719759225845,0.10770964622497559
419,52131,52129,0.005080586764961481,-0.05016911029815674,0.9620450139045715,0.3590296506881714,0.6796243786811829,0.5338130593299866,1.97034752368927,4.130360126495361,0.3319059908390045,-0.054752059280872345,-0.003007566323503852,0.1099073588848114
420,52141,52139,0.03252438083291054,-0.048737358301877975,0.9491055011749268,-0.41660940647125244,-0.7244791984558105,0.7926896214485168,1.9691884517669678,4.1296820640563965,0.33199626207351685,0.02458682283759117,0.06529732793569565,0.11386562138795853
421,52151,52149,0.04648308828473091,-0.049797866493463516,0.9808706641197205,-1.276994228363037,-2.3985114097595215,0.769751250743866,1.9688957929611206,4.129914283752441,0.3320291340351105,0.054131995886564255,0.02750045247375965,0.12036354839801788
422,52161,52159,0.03986144810914993,-0.09513438493013382,0.9961124658584595,-2.442350387573242,-2.64874267578125,0.7323200702667236,1.9689496755599976,4.130397319793701,0.33399689197540283,0.0993206799030304,-0.021851925179362297,0.12909507751464844
423,52171,52169,-0.029022840782999992,-0.025205209851264954,1.0291049480438232,-3.0687668323516846,-1.0735539197921753,0.5352523922920227,1.968807578086853,4.12953519821167,0.3340909481048584,0.12802653014659882,-0.004214412532746792,0.13592085242271423
424,52181,52179,0.0310739204287529,-0.034133877605199814,0.9344073534011841,-1.9109264612197876,2.8779914379119873,-0.8879231810569763,1.9691587686538696,4.129983425140381,0.33422109484672546,0.1047850176692009,-0.060474932193756104,0.13581928610801697
425,52191,52189,0.054563771933317184,-0.02768230438232422,0.9153677821159363,-1.9923738241195679,5.599544525146484,-0.04885457083582878,1.9697078466415405,4.130354404449463,0.3343478739261627,0.032578062266111374,-0.10530543327331543,0.1328585296869278
426,52201,52199,0.02329668216407299,0.02663424052298069,0.9687386751174927,-0.25697576999664307,3.286684036254883,0.20257364213466644,1.9694353342056274,4.13037633895874,0.3353414833545685,-0.026427289471030235,-0.13013938069343567,0.13454082608222961
427,52211,52209,0.03690579906105995,-0.05227310210466385,0.9613190293312073,-0.34086984395980835,4.527560710906982,0.8116061091423035,1.969908356666565,4.130399227142334,0.33537647128105164,-0.10673858225345612,-0.14708347618579865,0.1396515816450119
428,52221,52219,0.02723168581724167,-0.052727796137332916,0.9764103889465332,0.7289662957191467,2.3301968574523926,0.4957588016986847,1.969545841217041,4.130572319030762,0.33541926741600037,-0.1539216935634613,-0.14410288631916046,0.1467735767364502
429,52231,52229,0.005954831838607788,-0.07265858352184296,0.9746462106704712,1.6966629028320312,0.36074671149253845,0.47334638237953186,1.9690818786621094,4.130224227905273,0.33426088094711304,-0.08586320281028748,-0.12737491726875305,0.1517019420862198
430,52241,52239,-0.019622214138507843,-0.0627715066075325,0.9773350358009338,2.9908387660980225,1.2748509645462036,0.35455799102783203,1.9692084789276123,4.1301093101501465,0.33414506912231445,-0.09636890888214111,-0.09039819240570068,0.1578977406024933
431,52251,52249,0.02284512110054493,-0.030130790546536446,0.9265245795249939,3.357699155807495,3.0565478801727295,-0.3570549488067627,1.9690834283828735,4.12919282913208,0.3339895009994507,-0.1251169741153717,-0.04305772855877876,0.15965810418128967
432,52261,52259,0.0009038366843014956,0.05801750347018242,0.9494026303291321,1.9182347059249878,-4.380751609802246,0.06173625588417053,1.9691110849380493,4.128963470458984,0.33223748207092285,-0.1236472800374031,-0.019558358937501907,0.16005440056324005
433,52271,52269,-0.009834392927587032,-0.0415288582444191,0.9818487167358398,0.5304682850837708,-3.155355930328369,-0.46598389744758606,1.9687312841415405,4.128921031951904,0.33191466331481934,-0.09199859201908112,-0.018497616052627563,0.1578056961297989
434,52281,52279,-0.007338908966630697,0.04842079430818558,0.9719606637954712,-2.27132248878479,-0.08525779843330383,0.051704708486795425,1.9672657251358032,4.129478454589844,0.3315407633781433,-0.0067972964607179165,-0.05008283630013466,0.15548175573349
435,52291,52289,0.026113668456673622,-0.07473167777061462,0.9735701680183411,-4.37174654006958,-1.6494100093841553,0.8770879507064819,1.9681651592254639,4.130454063415527,0.33117571473121643,-0.08528895676136017,-0.1220078095793724,0.16196954250335693
436,52301,52299,0.006761324126273394,0.03857782855629921,0.9887562394142151,-4.874037265777588,0.3646203875541687,0.9067609906196594,1.967004656791687,4.1311116218566895,0.3286277949810028,-0.0009433351806364954,-0.20914746820926666,0.16940903663635254
437,52311,52309,0.02746829204261303,0.0661856085062027,0.9211394190788269,-5.5125813484191895,-2.0659701824188232,1.536028504371643,1.9670404195785522,4.131668567657471,0.3280443251132965,0.021801782771945,-0.29429009556770325,0.18266208469867706
438,52321,52319,-0.02259620651602745,0.06703921407461166,1.033149242401123,-3.6978867053985596,-2.029609441757202,1.6787956953048706,1.9664373397827148,4.131682395935059,0.3274621069431305,0.05708733946084976,-0.3601044714450836,0.20038960874080658
439,52331,52329,0.002621479332447052,-0.03716006502509117,1.006380558013916,0.23106487095355988,-6.349883079528809,1.670249581336975,1.967244267463684,4.130928993225098,0.3255540132522583,0.025255227461457253,-0.21507056057453156,0.22045622766017914
440,52341,52339,-0.013409892097115517,-0.001264137332327664,0.9936563372612,3.278728485107422,-2.93902325630188,1.651574969291687,1.9670029878616333,4.130895614624023,0.3248422145843506,0.08038541674613953,-0.1766805201768875,0.23484472930431366
441,52351,52349,0.009221753105521202,-0.021360870450735092,0.988612949848175,1.5573822259902954,-0.02583477459847927,1.7404803037643433,1.966706395149231,4.130573272705078,0.32412827014923096,0.0865655392408371,-0.14415885508060455,0.2547246217727661
442,52361,52359,0.008350650779902935,-0.02264670841395855,1.0105022192001343,-0.14807826280593872,-1.0669935941696167,1.6484177112579346,1.9667989015579224,4.1309099197387695,0.32095885276794434,0.0926918014883995,-0.13289432227611542,0.2702532410621643
443,52371,52369,-0.018117079511284828,0.13302473723888397,1.012395977973938,-4.62459659576416,-1.7154490947723389,1.0802654027938843,1.9671525955200195,4.1310577392578125,0.3201453387737274,0.019143179059028625,-0.18910394608974457,0.2857622802257538
444,52381,52379,0.01837347261607647,-0.06811118125915527,1.0168029069900513,-8.285490989685059,-2.946723461151123,0.8230339884757996,1.9658845663070679,4.132333278656006,0.3193139433860779,0.2269442230463028,-0.31575655937194824,0.28985652327537537
445,52391,52389,-0.009227359667420387,0.004673040006309748,1.0800065994262695,-8.39631175994873,-2.356508493423462,0.716035783290863,1.966369390487671,4.132822036743164,0.3192977011203766,0.1714020073413849,-0.4561748504638672,0.30034902691841125
446,52401,52399,0.0033590507227927446,-0.01999712362885475,1.0941370725631714,-6.753679275512695,3.8495874404907227,0.5865940451622009,1.9663563966751099,4.132491588592529,0.31857579946517944,0.15256930887699127,-0.49412211775779724,0.3073809742927551
447,52411,52409,0.00414356030523777,-0.000511046324390918,1.0776804685592651,-2.579738140106201,0.45932725071907043,0.7151984572410583,1.9662625789642334,4.132755279541016,0.31788748502731323,0.13591638207435608,-0.5600331425666809,0.31526967883110046
448,52421,52419,-0.001685060909949243,0.02544233947992325,1.0153435468673706,1.1304752826690674,1.982982873916626,1.0099776983261108,1.965450644493103,4.131965160369873,0.31734031438827515,0.18252339959144592,-0.4727756977081299,0.3171544075012207
449,52431,52429,-0.028581932187080383,0.06019481271505356,1.0230430364608765,5.467489242553711,2.428823471069336,1.1548395156860352,1.9653698205947876,4.132755279541016,0.32137322425842285,0.14178955554962158,-0.47506919503211975,0.32913219928741455
450,52441,52439,-0.003152562538161874,0.022569309920072556,1.045737624168396,6.3305487632751465,3.317889928817749,1.1295652389526367,1.965431809425354,4.131333827972412,0.32117733359336853,0.08004247397184372,-0.28892257809638977,0.34068211913108826
451,52451,52449,-0.011346525512635708,0.004078455734997988,1.0723005533218384,4.916296482086182,3.317110776901245,1.3130673170089722,1.9655718803405762,4.131886005401611,0.3209812641143799,0.011430422775447369,-0.279133677482605,0.35664603114128113
452,52461,52459,0.029711810871958733,-0.1265515834093094,0.9938045740127563,1.2461740970611572,0.46021950244903564,0.819586992263794,1.9660285711288452,4.132746696472168,0.3209044933319092,-0.03557797521352768,-0.31441330909729004,0.3663453161716461
453,52471,52469,0.007746180985122919,-0.09105207026004791,1.015915036201477,-1.6742876768112183,-0.34699568152427673,0.5401092767715454,1.9649139642715454,4.133487701416016,0.3208264708518982,0.035019490867853165,-0.3967643082141876,0.36749112606048584
454,52481,52479,-0.002974090166389942,-0.0269126258790493,1.0386780500411987,-2.4172110557556152,-3.733181953430176,-0.6574464440345764,1.964916467666626,4.134495735168457,0.3207467496395111,0.06341078132390976,-0.4148992598056793,0.3647698163986206
455,52491,52489,0.006827249191701412,-0.06573992222547531,1.0085309743881226,-1.899535894393921,-4.6726508140563965,-1.1637042760849,1.96500563621521,4.134182929992676,0.3207916021347046,0.04756249114871025,-0.43544143438339233,0.35967519879341125
456,52501,52499,0.02326912060379982,0.015561620704829693,1.0187718868255615,-0.3266899585723877,-7.61572790145874,-1.5034292936325073,1.964692234992981,4.1346869468688965,0.320793479681015,0.10421030968427658,-0.3606422543525696,0.3416871130466461
457,52511,52509,0.07300873100757599,0.0017848600400611758,0.9798981547355652,1.7518562078475952,-3.984463691711426,-1.930639624595642,1.9641649723052979,4.134703159332275,0.32081738114356995,0.11801441758871078,-0.3436596691608429,0.3399091064929962
458,52521,52519,0.02250606380403042,0.04920288175344467,0.9482966661453247,1.6613982915878296,-1.1786116361618042,-1.9537792205810547,1.9646313190460205,4.135703086853027,0.3207935094833374,0.09265892207622528,-0.38512882590293884,0.3250761032104492
459,52531,52529,-0.02132187969982624,-0.006143921986222267,1.016722559928894,2.335315704345703,-1.0686554908752441,-2.2407946586608887,1.9646265506744385,4.135632038116455,0.3187558650970459,0.12313932925462723,-0.25850504636764526,0.30369997024536133
460,52541,52539,0.007264907006174326,-0.023332636803388596,1.0475355386734009,3.0295889377593994,3.0209403038024902,-2.5197582244873047,1.9647841453552246,4.136252403259277,0.3185688257217407,0.11446717381477356,-0.2918153703212738,0.2824026644229889
461,52551,52549,-0.007452833000570536,0.03953183442354202,0.9947919845581055,2.787806272506714,3.2510690689086914,-2.374877452850342,1.9651927947998047,4.137096881866455,0.3184393346309662,0.06825223565101624,-0.23299247026443481,0.2586166262626648
462,52561,52559,-0.0088851572945714,-0.0007480733329430223,1.0092049837112427,1.727287769317627,2.565487861633301,-2.327749490737915,1.9648667573928833,4.136944770812988,0.3175320327281952,0.011821680702269077,-0.1867716759443283,0.23715375363826752
463,52571,52569,0.026292210444808006,-0.03854963555932045,0.9840583205223083,0.8110619783401489,1.116881012916565,-2.7316675186157227,1.9638725519180298,4.137199401855469,0.31738904118537903,0.132199227809906,-0.2311248630285263,0.206396222114563
464,52581,52579,-0.027091989293694496,0.017394334077835083,1.0304924249649048,0.12584449350833893,0.48856568336486816,-2.3183698654174805,1.9638128280639648,4.138097286224365,0.3172004222869873,0.10697426646947861,-0.2839243710041046,0.18254336714744568
465,52591,52589,0.01165104005485773,-0.05963044986128807,0.9668377637863159,2.0513789653778076,1.1520274877548218,-1.9292089939117432,1.9627176523208618,4.137962341308594,0.3163713812828064,0.1650932878255844,-0.25392916798591614,0.15549162030220032
466,52601,52599,-0.009097357280552387,0.031541988253593445,1.037492275238037,5.446704387664795,0.7842177748680115,-1.9123421907424927,1.963911771774292,4.138401031494141,0.3162067234516144,0.0574696883559227,-0.1915954202413559,0.13875643908977509
467,52611,52609,-0.020623940974473953,-0.03278472647070885,0.9817425012588501,5.269461154937744,3.7708346843719482,-1.4083189964294434,1.962952733039856,4.137994766235352,0.31603994965553284,0.09453610330820084,-0.09681720286607742,0.11582015454769135
468,52621,52619,-0.02914171665906906,0.027102375403046608,1.0223954916000366,4.828566551208496,9.020417213439941,-0.9667955636978149,1.9631041288375854,4.13979434967041,0.3158380687236786,-0.005277740303426981,-0.15056928992271423,0.10513924807310104
469,52631,52629,-0.00334835983812809,-0.03486495092511177,1.002662181854248,3.6919124126434326,17.576011657714844,-1.3340353965759277,1.9631621837615967,4.141252517700195,0.319521963596344,-0.11523637175559998,-0.20435072481632233,0.0953589454293251
470,52641,52639,0.020534593611955643,-0.05041008070111275,1.010647177696228,1.928762435913086,22.44398307800293,-1.3486895561218262,1.9623874425888062,4.1411452293396,0.3196147680282593,-0.19507324695587158,-0.1236262321472168,0.07844611257314682
471,52651,52649,-0.01906585320830345,-0.017589213326573372,1.0182045698165894,3.1196024417877197,21.0695743560791,-1.1279520988464355,1.9623888731002808,4.141971588134766,0.31969645619392395,-0.42529815435409546,-0.05898521840572357,0.06439609080553055
472,52661,52659,0.024915756657719612,0.043738484382629395,0.9981894493103027,5.084620952606201,21.868844985961914,-2.0759167671203613,1.9627456665039062,4.141389846801758,0.3180960416793823,-0.6581447124481201,0.02046300657093525,0.051237497478723526
473,52671,52669,-0.02280402183532715,0.17403410375118256,0.9947648048400879,6.165081977844238,17.280311584472656,-1.5967735052108765,1.9621047973632812,4.141968250274658,0.31810685992240906,-0.8578078746795654,0.05130160227417946,0.03085450455546379
474,52681,52679,-0.0018201060593128204,0.0774097889661789,0.9765207767486572,5.837214946746826,12.458491325378418,-1.6946934461593628,1.9628583192825317,4.141749382019043,0.3180104196071625,-1.1408607959747314,0.17108745872974396,0.01794738508760929
475,52691,52689,0.004054298624396324,0.08072061836719513,1.0245122909545898,4.534853458404541,5.82672119140625,-2.0614261627197266,1.9620953798294067,4.141654014587402,0.3173302114009857,-1.1742924451828003,0.27964723110198975,0.002702707890421152
476,52701,52699,0.010066753253340721,-0.003313362831249833,0.994208574295044,2.1586804389953613,2.137312412261963,-2.062349319458008,1.9630227088928223,4.141801357269287,0.31727924942970276,-1.2664215564727783,0.27615994215011597,-0.021150797605514526
477,52711,52709,0.009711979888379574,0.051331862807273865,1.0345661640167236,0.1542748659849167,-2.1614561080932617,-2.893106698989868,1.9623572826385498,4.141392707824707,0.31723976135253906,-1.2806659936904907,0.3158929646015167,-0.04013759270310402
