,timestamp_start,timestamp_end,acc.x,acc.y,acc.z,gyro.x,gyro.y,gyro.z,stateEstimate.x,stateEstimate.y,stateEstimate.z,stabilizer.pitch,stabilizer.roll,stabilizer.yaw
0,39696,39694,0.0336834080517292,-0.01987941563129425,0.9727857708930969,-1.6425135135650635,0.6133795976638794,-1.058186411857605,2.0630133152008057,4.074498176574707,0.1833328753709793,1.8846014738082886,0.056531183421611786,1.304924488067627
1,39706,39704,0.016182078048586845,-0.03636699542403221,0.956791341304779,-1.0761032104492188,3.4005801677703857,-1.0925507545471191,2.0623648166656494,4.073904037475586,0.1855437010526657,1.956773281097412,0.10114414244890213,1.287345051765442
2,39716,39714,0.003324338234961033,-0.024503840133547783,0.9782543182373047,-0.49035021662712097,7.339257717132568,-1.398079752922058,2.062871217727661,4.075156211853027,0.1876710206270218,1.7815282344818115,0.044995617121458054,1.2767360210418701
3,39726,39724,-0.02538280561566353,0.08094910532236099,0.950370728969574,0.25697898864746094,11.107874870300293,-1.8813235759735107,2.063567876815796,4.0755767822265625,0.18738749623298645,1.2456384897232056,0.16490407288074493,1.1931207180023193
4,39736,39734,0.025479286909103394,-0.008444823324680328,0.9427193999290466,0.2353864163160324,12.626660346984863,-1.973623275756836,2.066664457321167,4.074745178222656,0.18960344791412354,1.6386338472366333,0.11242281645536423,1.229553461074829
5,39746,39744,-0.010267287492752075,-0.014679038897156715,0.9906583428382874,0.4553435742855072,10.95201301574707,-2.354365110397339,2.064558506011963,4.075845241546631,0.1924085170030594,1.5151352882385254,0.11730479449033737,1.2074944972991943
6,39756,39754,0.021629663184285164,-0.01075240783393383,0.9977893233299255,0.5449772477149963,7.228572845458984,-3.5291566848754883,2.0705535411834717,4.08750057220459,0.1950918287038803,0.3987481892108917,-1.563088059425354,1.452566385269165
7,39766,39764,-0.011223522014915943,-0.0249874759465456,0.9897134304046631,5.993170738220215,0.8472428917884827,-4.664100646972656,2.071333169937134,4.088995933532715,0.1953788697719574,0.47048789262771606,-1.230294108390808,1.3655179738998413
8,39776,39774,-0.0031044520437717438,-0.022795990109443665,0.9908785820007324,17.676538467407227,-6.42584753036499,-3.7210662364959717,2.0708394050598145,4.089269638061523,0.1996198296546936,0.712908923625946,-0.8585705161094666,1.28781259059906
9,39786,39784,0.021525977179408073,0.0931580662727356,0.9845272302627563,28.721023559570312,-12.584087371826172,-2.621478796005249,2.068568706512451,4.09127950668335,0.2034473568201065,0.8050919771194458,-0.6350494623184204,1.2633039951324463
10,39796,39794,0.026494741439819336,0.11531408876180649,0.9531183242797852,34.35973358154297,-13.176559448242188,-1.7408686876296997,2.0679872035980225,4.09052038192749,0.20191164314746857,1.1792818307876587,0.011191841214895248,1.1996771097183228
11,39806,39804,0.06802809983491898,-0.004883142653852701,0.9491657614707947,34.34455871582031,-11.822566032409668,-0.7186794877052307,2.0676214694976807,4.092616081237793,0.20373809337615967,1.5088051557540894,0.2957816421985626,1.1918138265609741
12,39816,39814,0.004609639756381512,-0.0435900017619133,1.0024590492248535,26.44700813293457,-1.7554867267608643,-1.0276751518249512,2.06655216217041,4.095035076141357,0.20537492632865906,1.5485641956329346,0.7941206693649292,1.1626298427581787
13,39826,39824,0.025879953056573868,-0.08143608272075653,0.9914188981056213,17.51336097717285,-0.6087469458580017,-1.2577235698699951,2.0660500526428223,4.094931602478027,0.2059604674577713,1.5577038526535034,1.017334222793579,1.1518113613128662
14,39836,39834,-0.03233623504638672,0.0363910086452961,0.9870165586471558,5.994511604309082,10.160152435302734,-2.4432497024536133,2.0655932426452637,4.096561431884766,0.2076205164194107,1.5250383615493774,1.1537141799926758,1.1375755071640015
15,39846,39844,-0.07610682398080826,0.014356892555952072,1.0020840167999268,-5.4560065269470215,16.519548416137695,-2.19295597076416,2.0663089752197266,4.100455284118652,0.21091637015342712,1.5872468948364258,1.2469502687454224,1.1220555305480957
16,39856,39854,-0.004932616837322712,0.03953895345330238,0.9424691200256348,-10.665687561035156,17.569067001342773,-2.5766642093658447,2.0649616718292236,4.099823951721191,0.21072550117969513,1.4120457172393799,1.2800543308258057,1.0840661525726318
17,39866,39864,0.0028913519345223904,-0.018785960972309113,1.0661413669586182,-12.646827697753906,10.856180191040039,-1.0784748792648315,2.0641908645629883,4.0995612144470215,0.2104226052761078,1.154726505279541,1.1650863885879517,1.0530991554260254
18,39876,39874,0.045950956642627716,-0.09841730445623398,1.0961672067642212,-7.272347927093506,13.384296417236328,-2.5704166889190674,2.0644643306732178,4.099392890930176,0.21201589703559875,1.2041486501693726,1.1044511795043945,1.0563634634017944
19,39886,39884,-0.019825616851449013,0.0003193684678990394,1.0374757051467896,-0.4651520252227783,12.039325714111328,-3.849790334701538,2.0634236335754395,4.100454330444336,0.213453471660614,1.0916991233825684,1.1962813138961792,1.0146185159683228
20,39896,39894,-0.04789905622601509,0.06980723142623901,0.9857523441314697,4.366766929626465,8.439957618713379,-2.8109874725341797,2.062328338623047,4.099162578582764,0.2129925787448883,0.8839407563209534,1.2876273393630981,0.9601637125015259
21,39906,39904,-0.002176123671233654,0.07528016716241837,0.9627947211265564,4.420651912689209,5.900027751922607,-1.9435402154922485,2.06160569190979,4.098416328430176,0.21463048458099365,0.8074259757995605,1.3957947492599487,0.9291704297065735
22,39916,39914,-0.030369574204087257,-0.05436772480607033,1.0433896780014038,1.9129332304000854,5.376039981842041,-1.461366891860962,2.0615742206573486,4.098487854003906,0.21608495712280273,0.8986795544624329,1.4680168628692627,0.9353319406509399
23,39926,39924,0.003950177691876888,-0.03631366789340973,1.0368902683258057,-3.4736506938934326,9.219697952270508,-1.1363619565963745,2.0600063800811768,4.097609519958496,0.21662728488445282,0.7885448336601257,1.4620219469070435,0.9148058295249939
24,39936,39934,0.03588942810893059,-0.07049214094877243,1.008259892463684,-8.422393798828125,8.350707054138184,-0.3449053168296814,2.0595717430114746,4.099132537841797,0.21815678477287292,0.8168115019798279,1.4351236820220947,0.9292778968811035
25,39946,39944,-0.0017396596958860755,-0.037171151489019394,1.0139427185058594,-12.632604598999023,10.335411071777344,-0.8686656951904297,2.0573880672454834,4.097716331481934,0.2210436910390854,0.7255362868309021,1.3319422006607056,0.9253174662590027
26,39956,39954,-0.03056105598807335,0.03311345726251602,0.9914342164993286,-14.724284172058105,10.32862663269043,-0.5601210594177246,2.057788372039795,4.098689079284668,0.221144899725914,0.5617062449455261,1.1926445960998535,0.9068854451179504
27,39966,39964,-0.05940849706530571,0.08801188319921494,0.9898345470428467,-15.865671157836914,10.997122764587402,0.20784294605255127,2.0577356815338135,4.099612236022949,0.22315360605716705,0.6245316863059998,1.0675103664398193,0.9400510787963867
28,39976,39974,-0.01706043817102909,-0.005444059614092112,1.0199998617172241,-14.452638626098633,14.526945114135742,-0.6405051946640015,2.0555334091186523,4.099721908569336,0.22460521757602692,0.4529620110988617,0.9636299014091492,0.9288674592971802
29,39986,39984,0.048071883618831635,-0.05374820902943611,1.024164080619812,-9.308890342712402,12.519508361816406,-1.400284767150879,2.055314064025879,4.099155426025391,0.22621828317642212,0.29640981554985046,0.7696032524108887,0.9161279797554016
30,39996,39994,0.011159946210682392,-0.03788744658231735,1.0215092897415161,-4.8369059562683105,11.74509334564209,-1.3438225984573364,2.0544073581695557,4.098335266113281,0.2262839823961258,0.1807279735803604,0.6887785196304321,0.9046382308006287
31,40006,40004,-0.009585188701748848,0.014436164870858192,1.0093399286270142,-2.257887125015259,9.721717834472656,-0.8038157224655151,2.0538840293884277,4.097383975982666,0.22778654098510742,0.05427542328834534,0.7199631333351135,0.8933268785476685
32,40016,40014,0.0024886284954845905,0.029717514291405678,1.0236637592315674,-1.2996101379394531,10.466266632080078,-0.30607661604881287,2.052258253097534,4.100154399871826,0.22933098673820496,-0.12401213496923447,0.7452691197395325,0.8869933485984802
33,40026,40024,0.0041678231209516525,-0.03630147874355316,0.9766703248023987,-1.038532018661499,11.697772026062012,-0.2883966565132141,2.051990270614624,4.099913120269775,0.2309424728155136,-0.22468848526477814,0.7783258557319641,0.8865153193473816
34,40036,40034,0.027719760313630104,-0.05795320123434067,0.9760851263999939,-2.1850438117980957,9.337546348571777,-0.09672971069812775,2.050856351852417,4.098823070526123,0.2324473261833191,-0.3148132860660553,0.7664682865142822,0.8861504197120667
35,40046,40044,0.028491593897342682,-0.07663334161043167,1.0199737548828125,-4.78396463394165,2.621401786804199,0.02862044982612133,2.049882173538208,4.100040912628174,0.23400594294071198,-0.3802015483379364,0.6270046830177307,0.8767905831336975
36,40056,40054,-0.018758593127131462,-0.0434252992272377,1.0767416954040527,-6.444077968597412,-2.0353751182556152,0.5261647701263428,2.0495872497558594,4.100555419921875,0.23509538173675537,-0.38693976402282715,0.5773797035217285,0.8815693259239197
37,40066,40064,-0.052543334662914276,-0.009046265855431557,1.0635253190994263,-8.56831169128418,-0.7622660994529724,0.7268832921981812,2.04968523979187,4.102965354919434,0.23664522171020508,-0.10386314243078232,0.490927129983902,0.9275809526443481
38,40076,40074,-0.023880407214164734,-0.01616470143198967,0.9923645257949829,-9.720720291137695,5.123819828033447,0.7345836162567139,2.0457353591918945,4.101865291595459,0.23817652463912964,-0.1326318085193634,0.4002738893032074,0.9335318207740784
39,40086,40084,0.023624362424016,0.003206954337656498,0.9971232414245605,-9.516603469848633,10.809104919433594,0.12792883813381195,2.0471975803375244,4.104773044586182,0.24008621275424957,-0.4280897080898285,0.2743377685546875,0.9048091769218445
40,40096,40094,0.06460122019052505,-0.04002232477068901,0.9810214042663574,-7.017881393432617,13.016716003417969,-0.2932332456111908,2.047609806060791,4.106197834014893,0.2426372766494751,-0.6174576878547668,0.2664557993412018,0.9062907099723816
41,40106,40104,0.05671382695436478,-0.0006571653066202998,1.014384150505066,-4.75844144821167,10.373189926147461,-0.4500942826271057,2.0460097789764404,4.105659008026123,0.244385227560997,-0.6428877115249634,0.2841112017631531,0.9254238605499268
42,40116,40114,0.004495845176279545,-0.010091294534504414,0.9987514019012451,-4.5256876945495605,6.479331970214844,-0.04713078960776329,2.0456974506378174,4.1065826416015625,0.24609637260437012,-0.8440663814544678,0.1633436679840088,0.9027186036109924
43,40126,40124,-0.021248742938041687,0.02428303100168705,0.9850603938102722,-5.460479736328125,3.9692256450653076,-0.13325029611587524,2.045987606048584,4.106938362121582,0.24623258411884308,-0.9808538556098938,0.11768343299627304,0.8988264799118042
44,40136,40134,-0.019819654524326324,-0.003314852947369218,0.9324946403503418,-6.806619167327881,2.7767996788024902,0.17254115641117096,2.0471794605255127,4.10849142074585,0.24784445762634277,-1.0716761350631714,0.05370980128645897,0.8951670527458191
45,40146,40144,0.03751162439584732,-0.0672258734703064,0.9430469870567322,-7.2909345626831055,-0.024788642302155495,0.472627192735672,2.0482165813446045,4.1095499992370605,0.24940922856330872,-1.1072711944580078,-0.021186379715800285,0.8957685828208923
46,40156,40154,0.012312216684222221,-0.07455488294363022,0.9852337837219238,-5.869507312774658,-8.271391868591309,0.3597014248371124,2.047924757003784,4.111155033111572,0.2535431683063507,-1.0378986597061157,-0.01313216146081686,0.9176069498062134
47,40166,40164,-0.03194402903318405,-0.008241214789450169,0.9750127196311951,-5.128950119018555,-8.818380355834961,0.49937862157821655,2.0472757816314697,4.1102070808410645,0.25678545236587524,-0.9258955121040344,-0.21693354845046997,0.8904829025268555
48,40176,40174,0.01670145057141781,0.005221354775130749,1.0050904750823975,-3.634608745574951,-12.772293090820312,0.6487237215042114,2.046259641647339,4.11170768737793,0.2568725347518921,-0.7780550718307495,-0.09404812753200531,0.9350109100341797
49,40186,40184,-0.070341557264328,-0.010950521565973759,1.0390491485595703,-2.657749891281128,-12.274447441101074,0.011106827296316624,2.045701503753662,4.110970973968506,0.25850626826286316,-0.6695645451545715,-0.12900063395500183,0.9381067156791687
50,40196,40194,-0.09493343532085419,-0.0034409360960125923,1.017478108406067,-1.2817400693893433,-10.165800094604492,0.14662332832813263,2.044748067855835,4.108635425567627,0.25932297110557556,-0.4933042526245117,-0.0598953478038311,0.960978090763092
51,40206,40204,-0.025095762684941292,0.04362839087843895,0.976324737071991,-3.568258047103882,-3.9284937381744385,0.23283442854881287,2.0444047451019287,4.109870910644531,0.26096004247665405,-0.4540347754955292,-0.012703866697847843,0.9746634364128113
52,40216,40214,-0.012721099890768528,0.033687692135572433,0.9543493986129761,-6.586406230926514,1.9732643365859985,-0.17900758981704712,2.044426679611206,4.109105587005615,0.26256293058395386,-0.49940425157546997,-0.09460923075675964,0.966792106628418
53,40226,40224,0.03850175440311432,0.010523959062993526,0.9445169568061829,-9.353364944458008,5.100277900695801,-0.5488753914833069,2.043447971343994,4.110713958740234,0.26277369260787964,-0.5966203808784485,-0.2899640202522278,0.9359849691390991
54,40236,40234,0.10695965588092804,-0.019439805299043655,0.9522209763526917,-10.528071403503418,4.999248027801514,-0.7876192331314087,2.0436198711395264,4.1112494468688965,0.2642904818058014,-0.7682936787605286,-0.42457833886146545,0.9203663468360901
55,40246,40244,0.0943077877163887,-0.07887238264083862,0.9671978950500488,-8.40049934387207,0.13271741569042206,-1.6266820430755615,2.0444419384002686,4.111471176147461,0.26571425795555115,-0.8006904125213623,-0.5425549745559692,0.9038324952125549
56,40256,40254,-0.012184095568954945,0.005497837904840708,0.9680440425872803,-5.432126045227051,-2.212956190109253,-2.080106496810913,2.0439741611480713,4.111473560333252,0.2670494019985199,-0.8430882692337036,-0.6880683898925781,0.8752448558807373
57,40266,40264,0.0006333888159133494,0.024212392047047615,0.9734355211257935,-1.05996835231781,-6.828915119171143,-2.318225622177124,2.045114278793335,4.113753795623779,0.2683735191822052,-0.8151931762695312,-0.7604232430458069,0.8510750532150269
58,40276,40274,0.004494949243962765,0.03732818365097046,0.9453734159469604,2.0827019214630127,-10.972114562988281,-1.9868322610855103,2.045179843902588,4.1139678955078125,0.2696472108364105,-0.7214372158050537,-0.7586154341697693,0.8333239555358887
59,40286,40284,-0.028697874397039413,0.0588277131319046,0.934442937374115,4.949305534362793,-13.86125373840332,-1.9021378755569458,2.0447754859924316,4.113250255584717,0.27156272530555725,-0.4809458255767822,-0.5641242265701294,0.8409162163734436
60,40296,40294,-0.030753767117857933,0.0953739732503891,0.9550685286521912,5.548012733459473,-13.823358535766602,-0.7603761553764343,2.0441179275512695,4.111703872680664,0.2728748917579651,-0.2480030655860901,-0.506960928440094,0.8215217590332031
61,40306,40304,0.021871626377105713,-0.07630545645952225,0.9851675033569336,4.657156467437744,-10.863781929016113,-1.4315460920333862,2.0429861545562744,4.111857891082764,0.27405527234077454,-0.12924718856811523,-0.3813762664794922,0.825840413570404
62,40316,40314,0.03011154755949974,-0.03486177697777748,0.9305059313774109,2.6296584606170654,-7.387488842010498,-1.6042108535766602,2.0429797172546387,4.111440658569336,0.27517834305763245,-0.033446889370679855,-0.3430537283420563,0.8116762042045593
63,40326,40324,0.040153276175260544,-0.08165490627288818,0.9128463864326477,-1.6951358318328857,-1.8907898664474487,-1.3171378374099731,2.042520523071289,4.11313533782959,0.2804053723812103,-0.01935000531375408,-0.4102204442024231,0.7872580289840698
64,40336,40334,0.02473238669335842,-0.11611577123403549,0.9460965394973755,-3.7186222076416016,0.38548052310943604,-1.819941759109497,2.0436582565307617,4.1128668785095215,0.2829849123954773,-0.01291489228606224,-0.636533260345459,0.7440734505653381
65,40346,40344,0.019759340211749077,-0.04055791720747948,0.9705910086631775,-5.132864475250244,1.8497358560562134,-1.4730186462402344,2.0435545444488525,4.114964008331299,0.28304821252822876,-0.038740236312150955,-0.49774494767189026,0.7495066523551941
66,40356,40354,0.02396017499268055,-0.1440010368824005,0.9856334328651428,-2.8080782890319824,2.1355483531951904,-1.9417636394500732,2.0437071323394775,4.113403797149658,0.2841911017894745,-0.058914005756378174,-0.5404646992683411,0.7321031093597412
67,40366,40364,0.025435887277126312,0.06357546895742416,0.9449570775032043,0.18926577270030975,-0.5191317796707153,-2.163022994995117,2.0501973628997803,4.110040664672852,0.28539660573005676,-0.6743119955062866,-0.22158731520175934,0.8045224547386169
68,40376,40374,-0.016897592693567276,-0.056968700140714645,0.9863649606704712,0.30656203627586365,-5.601828098297119,-2.964761734008789,2.0494446754455566,4.110847473144531,0.2867770195007324,-0.6167296767234802,-0.27620697021484375,0.7663793563842773
69,40386,40384,-0.012805597856640816,-0.03343256935477257,0.9797881245613098,-1.5402026176452637,-16.368942260742188,-3.0277316570281982,2.0492613315582275,4.112170219421387,0.2883288860321045,-0.6380264759063721,-0.27192866802215576,0.7491200566291809
70,40396,40394,-0.0873270332813263,-0.04723329469561577,0.9896957278251648,-3.843637228012085,-21.952035903930664,-2.7470672130584717,2.0508453845977783,4.111886501312256,0.28932511806488037,-0.4214727580547333,-0.3052332401275635,0.7210512161254883
71,40406,40404,-0.08112260699272156,0.03154894709587097,0.9228219985961914,-7.157324314117432,-26.465614318847656,-2.104780912399292,2.049570322036743,4.1117472648620605,0.290870726108551,0.14204785227775574,-0.4724007844924927,0.6610134243965149
72,40416,40414,-0.05343696475028992,0.0917973667383194,0.9161041975021362,-7.44635009765625,-28.523542404174805,-1.2317347526550293,2.0488879680633545,4.111689567565918,0.2920396029949188,0.24149608612060547,-0.4976028800010681,0.6688081622123718
73,40426,40424,0.0011248684022575617,-0.0337965153157711,0.9425981044769287,-7.24075174331665,-22.009593963623047,-1.0761370658874512,2.050877809524536,4.110201835632324,0.2941736578941345,0.6297162175178528,-0.5905835628509521,0.6464372277259827
74,40436,40434,-0.016891971230506897,0.053774118423461914,0.9482713937759399,-6.298882484436035,-9.792672157287598,-0.9580414891242981,2.0491724014282227,4.111068248748779,0.29521384835243225,0.6297162175178528,-0.5905835628509521,0.6464372277259827
75,40446,40444,-0.053710345178842545,0.0686597153544426,0.9501488208770752,-3.6901535987854004,4.0098347663879395,-0.8618393540382385,2.0496723651885986,4.111685276031494,0.2962096929550171,0.7602630257606506,-0.7740974426269531,0.6251463890075684
76,40456,40454,-0.01717638038098812,0.10190189629793167,0.9613112807273865,-0.8152875900268555,15.778459548950195,-0.19548700749874115,2.049656629562378,4.111091136932373,0.2988039553165436,0.5800026655197144,-0.831087052822113,0.6202287673950195
77,40466,40464,-0.012638450600206852,0.10998572409152985,0.9622860550880432,2.3246829509735107,23.896825790405273,-0.7754687070846558,2.0505337715148926,4.110511302947998,0.2997593879699707,0.5800026655197144,-0.831087052822113,0.6202287673950195
78,40476,40474,-0.01783084310591221,-0.0041686431504786015,0.9617781639099121,3.659214973449707,20.317394256591797,-0.14688952267169952,2.051370859146118,4.109734058380127,0.3006402850151062,0.10794812440872192,-0.7941836714744568,0.6048954129219055
79,40486,40484,0.019437192007899284,0.07615835219621658,0.9712073802947998,4.237471103668213,17.888166427612305,-0.6451906561851501,2.0512919425964355,4.110046863555908,0.29839688539505005,0.10794812440872192,-0.7941836714744568,0.6048954129219055
80,40496,40494,0.004937686491757631,0.03223156929016113,0.969545304775238,3.615920305252075,5.7720770835876465,0.1693153977394104,2.0503127574920654,4.1088409423828125,0.2991303503513336,-0.022555606439709663,-0.7097964882850647,0.5807379484176636
81,40506,40504,0.007629618514329195,-0.013318494893610477,0.9930693507194519,3.694387197494507,-1.138475775718689,0.18657797574996948,2.050213098526001,4.110893726348877,0.2998497784137726,-0.022555606439709663,-0.7097964882850647,0.5807379484176636
82,40516,40514,0.03839927911758423,-0.10981211811304092,0.9858198165893555,3.4370315074920654,-5.956929683685303,0.7034553289413452,2.0507359504699707,4.113119125366211,0.30054038763046265,0.008193272165954113,-0.8251556158065796,0.5697734355926514
83,40526,40524,0.05951797962188721,-0.162092387676239,0.9737495183944702,2.121415376663208,-6.4036102294921875,0.9462504386901855,2.0502891540527344,4.113096714019775,0.30203932523727417,0.12258663773536682,-0.7728990316390991,0.5658605098724365
84,40536,40534,0.055167004466056824,-0.17876611649990082,0.9702616333961487,2.742060661315918,0.18688620626926422,0.20520074665546417,2.051645040512085,4.113723278045654,0.3027305603027344,0.19157741963863373,-0.727688729763031,0.5713361501693726
85,40546,40544,0.00781081710010767,-0.02805655263364315,0.9827873110771179,3.1340079307556152,3.598794937133789,0.7539193034172058,2.0510666370391846,4.113650321960449,0.3034404218196869,0.21099220216274261,-0.7022246718406677,0.574604332447052
86,40556,40554,0.005746918264776468,-0.13958792388439178,1.0228170156478882,4.777431964874268,6.536459922790527,1.054722547531128,2.052366256713867,4.113765716552734,0.3044087290763855,0.09140623360872269,-0.6541650295257568,0.5867123603820801
87,40566,40564,-0.017122378572821617,-0.14095911383628845,1.0310734510421753,5.024833679199219,13.039841651916504,0.1050153449177742,2.052901029586792,4.113478660583496,0.30508142709732056,0.0016799659933894873,-0.5862574577331543,0.59810471534729
88,40576,40574,-0.005745036527514458,-0.04214068129658699,0.9992743134498596,4.839213848114014,15.847846984863281,0.5461458563804626,2.0529730319976807,4.11572790145874,0.3058535158634186,-0.031127391383051872,-0.5905671715736389,0.5889503359794617
89,40586,40584,0.02257453463971615,-0.030421540141105652,0.9593631029129028,4.225264549255371,15.016667366027832,0.03411368653178215,2.0536491870880127,4.117125034332275,0.3060798645019531,-0.27755630016326904,-0.6288228034973145,0.5971084833145142
90,40596,40594,0.026268448680639267,-0.04062972590327263,0.9535083174705505,5.0114922523498535,12.032058715820312,-0.04681513458490372,2.054661989212036,4.118373394012451,0.3067142367362976,-0.438309907913208,-0.5839155912399292,0.5975521802902222
91,40606,40604,0.019576476886868477,-0.009356961585581303,0.9705559015274048,5.52703332901001,8.559623718261719,0.08056964725255966,2.05460524559021,4.12022590637207,0.30742788314819336,-0.4691399037837982,-0.5629191398620605,0.5848652720451355
92,40616,40614,0.003507556626573205,0.011766158044338226,0.978820264339447,6.767578125,5.60745096206665,0.022508282214403152,2.0562477111816406,4.1218438148498535,0.30731698870658875,-0.6915172934532166,-0.5290112495422363,0.5913746356964111
93,40626,40624,-0.03968609869480133,-0.07430257648229599,1.0253653526306152,8.843582153320312,3.875044584274292,0.16619275510311127,2.0567634105682373,4.123903751373291,0.30783921480178833,-0.7468190789222717,-0.5562867522239685,0.5859150886535645
94,40636,40634,-0.03827238455414772,-0.03640507534146309,0.9879854917526245,11.19978141784668,0.15370295941829681,0.334939569234848,2.056349515914917,4.12394380569458,0.3083941340446472,-0.7276830077171326,-0.36252477765083313,0.593252420425415
95,40646,40644,0.024872267618775368,-0.048698339611291885,0.9443091154098511,12.321394920349121,-0.05597275123000145,0.2970429062843323,2.056168556213379,4.124401092529297,0.3090425431728363,-0.7434315085411072,-0.24664287269115448,0.5962074995040894
96,40656,40654,0.02426290325820446,-0.11158658564090729,0.9381657838821411,12.017547607421875,0.49737349152565,0.4315386712551117,2.0564486980438232,4.1266632080078125,0.3101021349430084,-0.6990137696266174,-0.24600373208522797,0.5866297483444214
97,40666,40664,0.025898518040776253,-0.09560271352529526,0.9407060742378235,11.579266548156738,2.9773521423339844,0.8281154632568359,2.05611515045166,4.12559700012207,0.31069400906562805,-0.6527829766273499,0.007761288899928331,0.6037366390228271
98,40676,40674,-0.04241179674863815,-0.04867248237133026,0.9842255115509033,9.37126350402832,5.562878131866455,0.4241926372051239,2.056835889816284,4.127166748046875,0.311307430267334,-0.6703720092773438,0.13953588902950287,0.6123819947242737
99,40686,40684,-0.030196521431207657,0.022242728620767593,1.022404432296753,5.754217624664307,6.316792964935303,-0.08076125383377075,2.05757999420166,4.129086971282959,0.30915650725364685,-0.7226094603538513,0.08917655795812607,0.6036510467529297
100,40696,40694,-0.021094562485814095,0.04777800664305687,1.0108591318130493,3.5651259422302246,5.822602272033691,-0.3782326281070709,2.057171583175659,4.130212783813477,0.3094772398471832,-0.7914305329322815,0.14590221643447876,0.6040909886360168
101,40706,40704,-0.026726946234703064,0.04164682701230049,0.9589033722877502,1.1303095817565918,4.921518325805664,0.29837989807128906,2.058908224105835,4.1309661865234375,0.30977505445480347,-0.9204159379005432,0.20160335302352905,0.6071074604988098
102,40716,40714,0.007475773338228464,-0.034184444695711136,0.9600769877433777,1.7384196519851685,3.387691020965576,0.3403516709804535,2.059196949005127,4.131729602813721,0.3061148226261139,-1.0277036428451538,0.26263517141342163,0.6150471568107605
103,40726,40724,-0.006059570703655481,-0.005051339976489544,0.9934738874435425,5.015937805175781,2.5121326446533203,0.22103530168533325,2.0603930950164795,4.131600379943848,0.30612635612487793,-1.0639641284942627,0.2812232971191406,0.6185458302497864
104,40736,40734,-0.03426721692085266,0.12184081226587296,0.9642087817192078,6.806038856506348,0.27793318033218384,0.21530196070671082,2.060516357421875,4.13281774520874,0.3061600625514984,-1.155650019645691,0.3151642680168152,0.621802568435669
105,40746,40744,-0.008349446579813957,0.052479349076747894,0.9711533784866333,7.275659084320068,-1.4367876052856445,1.049512505531311,2.0614075660705566,4.131785869598389,0.3060757517814636,-1.1578253507614136,0.37569284439086914,0.6263083815574646
106,40756,40754,0.007822505198419094,0.03906383365392685,0.9993294477462769,7.828779697418213,-1.3020005226135254,1.1893976926803589,2.0601789951324463,4.130861759185791,0.3066568076610565,-1.1544924974441528,0.438567191362381,0.6386772394180298
107,40766,40764,0.0010336022824048996,0.030941717326641083,1.0094066858291626,7.068427562713623,-2.141306161880493,1.4967492818832397,2.0610010623931885,4.131975173950195,0.3065895736217499,-1.1377187967300415,0.5150555372238159,0.6506034731864929
108,40776,40774,0.018210450187325478,-0.10521047562360764,0.9836551547050476,5.4138336181640625,-3.1455307006835938,1.6684118509292603,2.0626399517059326,4.134397983551025,0.306477814912796,-1.0822752714157104,0.6441682577133179,0.6750501990318298
109,40786,40784,-0.034187283366918564,-0.229669988155365,1.048182725906372,3.564281463623047,-6.775791645050049,1.9621574878692627,2.0626158714294434,4.134963035583496,0.3077855408191681,-1.0902847051620483,0.6679617762565613,0.689215362071991
110,40796,40794,-0.07083667069673538,-0.27526581287384033,1.071555495262146,1.9345974922180176,-3.955467700958252,1.5157806873321533,2.063011884689331,4.137335300445557,0.3078223466873169,-0.9377944469451904,0.7417250275611877,0.7179387211799622
111,40806,40804,-0.020151354372501373,-0.17620134353637695,0.9768140316009521,-0.07814005762338638,0.30443841218948364,1.5748567581176758,2.0624139308929443,4.13798713684082,0.3080246150493622,-0.9076291918754578,0.7653502225875854,0.7330560684204102
112,40816,40814,-0.012739276513457298,-0.03838338330388069,0.9593157172203064,-1.8685411214828491,-0.4115663766860962,1.476686954498291,2.0627148151397705,4.137594699859619,0.3080996572971344,-0.920660674571991,0.7821537852287292,0.7510397434234619
113,40826,40824,0.004077563993632793,0.018465446308255196,1.0304136276245117,-3.3362772464752197,-0.1108124852180481,2.683100938796997,2.0633068084716797,4.137975215911865,0.308230996131897,-0.9968729019165039,0.7549664378166199,0.7569485306739807
114,40836,40834,0.07428210228681564,-0.13143864274024963,1.0185571908950806,-3.257059097290039,-2.0537571907043457,2.3887228965759277,2.0648233890533447,4.138509750366211,0.30831506848335266,-0.9776046276092529,0.7923466563224792,0.791660487651825
115,40846,40844,0.021012188866734505,-0.11051476746797562,1.027999758720398,-3.350024461746216,-1.6072996854782104,2.38848614692688,2.0649969577789307,4.138643264770508,0.3085368871688843,-0.9653676748275757,0.761027991771698,0.8146296739578247
116,40856,40854,0.01670953817665577,-0.04024193435907364,1.012083649635315,-2.1389317512512207,-1.7501170635223389,2.446444034576416,2.0666487216949463,4.138847827911377,0.3053881525993347,-0.9805431962013245,0.6221538186073303,0.8177862763404846
117,40866,40864,-0.013161410577595234,0.06785352528095245,0.9824626445770264,-0.998529314994812,-1.578859806060791,2.561431407928467,2.067267656326294,4.139847755432129,0.30543363094329834,-0.8611922264099121,0.6804674863815308,0.8664653301239014
118,40876,40874,0.023828931152820587,0.1039513349533081,0.9126754403114319,-0.10965266078710556,-2.4583797454833984,3.094816207885742,2.0672616958618164,4.139092445373535,0.3055477440357208,-1.121303915977478,0.667346715927124,0.8626487851142883
119,40886,40884,0.03475559130311012,0.12349627166986465,0.9708396792411804,-0.1802878975868225,-2.831634521484375,3.744359254837036,2.070221185684204,4.13780403137207,0.30339494347572327,-0.9522132873535156,0.6621648073196411,0.9105777144432068
120,40896,40894,0.015302027575671673,0.08765672892332077,1.0254952907562256,1.0487315654754639,-6.19264030456543,4.074697494506836,2.0696208477020264,4.137646675109863,0.3033321797847748,-0.909209668636322,0.6598510146141052,0.9481129050254822
121,40906,40904,-0.014286285266280174,-0.05871637538075447,1.0363694429397583,0.8572114706039429,-6.986635684967041,4.339577674865723,2.0702757835388184,4.137092590332031,0.3032137453556061,-0.9385896325111389,0.6782614588737488,0.979499340057373
122,40916,40914,-0.003863458288833499,-0.008432798087596893,1.0317240953445435,-1.1802564859390259,-5.694916248321533,5.084380149841309,2.0730607509613037,4.13658332824707,0.30394095182418823,-0.7895082235336304,0.6766681671142578,1.0283583402633667
123,40926,40924,0.008625918067991734,-0.03456920385360718,1.019126534461975,-2.824626922607422,-6.4632649421691895,5.642942428588867,2.0737364292144775,4.136691093444824,0.30394914746284485,-0.6542389392852783,0.6476399898529053,1.0826663970947266
124,40936,40934,-0.02832668647170067,0.017772262915968895,1.0522582530975342,-4.928470611572266,-6.650509357452393,6.044040203094482,2.073996067047119,4.136946678161621,0.3039719760417938,-0.597128689289093,0.6204348206520081,1.1360746622085571
125,40946,40944,0.050709035247564316,-0.1028565838932991,1.0675076246261597,-4.711150169372559,-6.789319038391113,5.690197944641113,2.0766494274139404,4.1363372802734375,0.3038438558578491,-0.6104167699813843,0.5737893581390381,1.1843457221984863
126,40956,40954,0.008418099023401737,-0.05981825292110443,1.0625252723693848,-3.811426877975464,-4.2545671463012695,5.385497570037842,2.076805830001831,4.137020587921143,0.3022567331790924,-0.7227118611335754,0.5736780166625977,1.2258795499801636
127,40966,40964,0.03567381575703621,0.005885977763682604,0.9834249019622803,-2.285466194152832,-0.7244382500648499,5.198831081390381,2.079615592956543,4.136810779571533,0.3021377623081207,-0.555833637714386,0.5086715221405029,1.2897268533706665
128,40976,40974,0.055586978793144226,-0.013418630696833134,0.9359037280082703,-2.1052064895629883,-3.959155797958374,5.600528240203857,2.0799930095672607,4.13796854019165,0.3023838996887207,-0.5467521548271179,0.4827354848384857,1.3414009809494019
129,40986,40984,0.04717300459742546,-0.08702563494443893,1.0017240047454834,-0.6839315295219421,-10.162005424499512,6.093383312225342,2.081557035446167,4.138015270233154,0.3014904260635376,-0.6142966747283936,0.505411684513092,1.3872032165527344
130,40996,40994,-0.00928466022014618,-0.028093116357922554,1.03874671459198,-0.10898204147815704,-10.986042976379395,6.642392635345459,2.0829083919525146,4.137139797210693,0.30137962102890015,-0.5143083930015564,0.49918803572654724,1.445564866065979
131,41006,41004,-0.007967526093125343,-0.090780109167099,1.050962209701538,0.9606069922447205,-10.9942626953125,7.060332775115967,2.08428955078125,4.137190818786621,0.3012670576572418,-0.29357969760894775,0.47020530700683594,1.5255529880523682
132,41016,41014,-0.007147892378270626,0.04455484449863434,0.9503479599952698,-1.1891536712646484,-6.832181453704834,7.259724140167236,2.083153486251831,4.137130260467529,0.30373090505599976,-0.31408244371414185,0.5279362201690674,1.5774637460708618
133,41026,41024,0.00875862967222929,0.12254264205694199,1.0097485780715942,-5.047321796417236,-6.887078762054443,6.0321269035339355,2.0858726501464844,4.137416362762451,0.303747296333313,-0.12476467341184616,0.5388763546943665,1.6600712537765503
134,41036,41034,0.01410757191479206,0.03055700659751892,1.055816411972046,-6.248953342437744,-6.217247486114502,5.33467435836792,2.0861799716949463,4.137219429016113,0.3039626181125641,-0.03753044083714485,0.4259527325630188,1.7283047437667847
135,41046,41044,-0.06025407463312149,0.07198723405599594,1.0177947282791138,-5.786959171295166,-6.040886402130127,6.138674736022949,2.087568521499634,4.140564918518066,0.301082968711853,-0.11206861585378647,0.3795759975910187,1.7821557521820068
136,41056,41054,-0.014649934135377407,0.03531617671251297,1.0714197158813477,-6.483447074890137,-5.4711151123046875,6.867050647735596,2.0882253646850586,4.138842582702637,0.3009481132030487,0.12395276129245758,0.4044002592563629,1.8552820682525635
137,41066,41064,0.016251306980848312,0.042560555040836334,1.1229898929595947,-2.7982850074768066,-5.510112762451172,6.06899881362915,2.0869243144989014,4.138553142547607,0.30120840668678284,0.1807921826839447,0.29604455828666687,1.914121389389038
138,41076,41074,-0.03189392760396004,0.03161660209298134,1.0824414491653442,-1.993834376335144,0.5394853353500366,6.140666961669922,2.0883772373199463,4.1406073570251465,0.301423579454422,0.22358275949954987,0.261772096157074,1.9910162687301636
139,41086,41084,-0.04795664921402931,0.12226440012454987,0.9776164293289185,-1.582781434059143,2.0572257041931152,5.811933994293213,2.090808629989624,4.139964580535889,0.3042791485786438,0.07954905182123184,0.23552793264389038,2.038086175918579
140,41096,41094,-0.02425662986934185,0.07374520599842072,1.0203592777252197,-3.5215821266174316,2.856884479522705,5.893700122833252,2.0926594734191895,4.140138149261475,0.3047391474246979,0.0656244084239006,0.2211787849664688,2.093437433242798
141,41106,41104,0.00020677722932305187,-0.053918708115816116,1.064884901046753,-4.475259780883789,-2.5798065662384033,5.9021782875061035,2.092778205871582,4.137696743011475,0.3052808344364166,0.15666675567626953,0.2867707312107086,2.1604936122894287
142,41116,41114,-0.033854447305202484,-0.03669024258852005,1.064336895942688,-4.703583240509033,-4.900497913360596,5.5865960121154785,2.093510150909424,4.138728618621826,0.30738407373428345,0.24227821826934814,0.17763429880142212,2.2250280380249023
143,41126,41124,-0.08136411756277084,0.06265000998973846,0.9863718152046204,-7.056506633758545,-2.874727725982666,5.882150650024414,2.0940372943878174,4.138994216918945,0.3082045912742615,0.18213202059268951,0.19818907976150513,2.272609233856201
144,41136,41134,-0.026171252131462097,0.10673166066408157,0.9873616695404053,-8.944276809692383,-3.9349963665008545,5.3447699546813965,2.095315933227539,4.137786388397217,0.3088952600955963,0.20897185802459717,0.10439451783895493,2.330961227416992
145,41146,41144,-0.02654450573027134,0.03050166182219982,1.0240933895111084,-6.7470855712890625,-5.128322601318359,4.769923686981201,2.0967254638671875,4.138400554656982,0.30941301584243774,0.24835442006587982,0.012460651807487011,2.385733127593994
146,41157,41154,-0.08875977993011475,0.0736074298620224,0.9900277256965637,-4.327566623687744,-3.4232661724090576,4.98041296005249,2.0986387729644775,4.138575553894043,0.3101770281791687,0.21132014691829681,-0.04834460839629173,2.44651198387146
147,41166,41164,-0.04082057252526283,0.0844964012503624,0.9235110282897949,-2.689516067504883,-4.4137396812438965,5.478474140167236,2.1002326011657715,4.139204025268555,0.31082072854042053,0.3367054760456085,-0.07653134316205978,2.5007553100585938
148,41176,41174,-0.02139688841998577,0.014701706357300282,0.995612621307373,-2.271991014480591,-4.434514999389648,5.032510280609131,2.101365327835083,4.139904499053955,0.3116454780101776,0.3795517385005951,-0.08569220453500748,2.5656800270080566
149,41186,41184,-0.022098958492279053,-0.03127460181713104,1.060335636138916,-1.344093918800354,-3.870006799697876,5.0330047607421875,2.1026439666748047,4.1393585205078125,0.3103671371936798,0.416672021150589,-0.08182486146688461,2.6141247749328613
150,41196,41194,-0.01571289449930191,-0.07906384766101837,1.0117003917694092,-1.8689879179000854,0.6687770485877991,4.345999717712402,2.10416579246521,4.138484477996826,0.3109787106513977,0.48799264430999756,-0.15043379366397858,2.6673166751861572
151,41206,41204,-0.06890618801116943,-0.00115109677426517,0.9952553510665894,-1.6813287734985352,2.5367398262023926,3.9052865505218506,2.10496187210083,4.138647079467773,0.3116764426231384,0.5066619515419006,-0.1404992938041687,2.707974672317505
152,41216,41214,0.04943381994962692,-0.020999740809202194,0.8970814347267151,-3.8088862895965576,6.312227725982666,3.5352306365966797,2.105379104614258,4.137862682342529,0.31103456020355225,0.25301453471183777,-0.15501409769058228,2.740809202194214
153,41226,41224,0.08062297850847244,-0.13162772357463837,0.9403482675552368,-5.404071807861328,4.346316337585449,3.0161848068237305,2.1085591316223145,4.138833522796631,0.3113348186016083,0.30550602078437805,-0.1926489770412445,2.7933247089385986
154,41236,41234,0.037999458611011505,-0.1822904348373413,0.9664850234985352,-6.0051069259643555,2.273005723953247,2.3846330642700195,2.1082022190093994,4.137844562530518,0.3118996024131775,0.363751083612442,-0.3237358629703522,2.8193461894989014
155,41246,41244,-0.002682959660887718,-0.1080671176314354,0.9506022334098816,-5.264588356018066,1.691145420074463,2.4578263759613037,2.108100652694702,4.1393914222717285,0.31264230608940125,0.27222874760627747,-0.3049766421318054,2.8469467163085938
156,41256,41254,0.01408237311989069,0.0032919326331466436,0.9518356919288635,-4.584190845489502,-0.8015280365943909,1.5610191822052002,2.1089935302734375,4.137128829956055,0.31293848156929016,0.25195300579071045,-0.3593616485595703,2.8685107231140137
157,41266,41264,-0.06548026204109192,0.05225783959031105,1.0152682065963745,-2.864098310470581,-4.578005313873291,1.6040966510772705,2.1080987453460693,4.13655424118042,0.31338822841644287,0.4484677016735077,-0.46006301045417786,2.880082845687866
158,41276,41274,-0.06590637564659119,0.022549251094460487,1.0552411079406738,-1.5111714601516724,-5.18110466003418,1.3691524267196655,2.108445882797241,4.136962413787842,0.3155377209186554,0.3879716396331787,-0.4541500210762024,2.9024922847747803
159,41286,41284,-0.0615159273147583,0.07301322370767593,1.0535873174667358,0.3317558169364929,0.7664443850517273,1.0660442113876343,2.110414505004883,4.136447906494141,0.3159523606300354,0.52325040102005,-0.4995638430118561,2.915961265563965
160,41296,41294,-0.05758735537528992,0.1793966144323349,0.9767862558364868,-0.9808791875839233,5.06887149810791,1.477474570274353,2.110898733139038,4.136022090911865,0.3166063129901886,0.41552218794822693,-0.5374761819839478,2.931577682495117
161,41306,41304,-0.05149891972541809,-0.015289225615561008,0.9985300898551941,-1.8984298706054688,10.305769920349121,1.5217863321304321,2.112578868865967,4.13568639755249,0.3170790672302246,0.32734349370002747,-0.5088077783584595,2.9396655559539795
162,41316,41314,0.014837515540421009,-0.062279071658849716,1.0032117366790771,-2.4779739379882812,5.282718181610107,1.5941954851150513,2.1140904426574707,4.136148452758789,0.3178766071796417,0.24080023169517517,-0.4192460775375366,2.952627182006836
163,41326,41324,0.038363706320524216,-0.05852813646197319,0.9522584676742554,-3.347285270690918,4.764072895050049,1.691042423248291,2.115809917449951,4.1355438232421875,0.3184603452682495,0.17801707983016968,-0.4484521746635437,2.9876298904418945
164,41336,41334,0.0011786771938204765,-0.09016479551792145,0.9384178519248962,-5.006529808044434,2.1345579624176025,1.9039294719696045,2.1158530712127686,4.136420726776123,0.3189827501773834,0.22350972890853882,-0.45509788393974304,2.985802412033081
165,41346,41344,-0.013680767267942429,-0.03506862372159958,0.9566270709037781,-5.896967887878418,-0.8115986585617065,2.622805118560791,2.1162025928497314,4.135676860809326,0.318076491355896,0.15371327102184296,-0.5864519476890564,3.0058183670043945
166,41356,41354,0.032589565962553024,-0.1891944855451584,0.9900084733963013,-5.332805156707764,-5.330974578857422,3.1497726440429688,2.1169545650482178,4.135592937469482,0.3183915913105011,0.14786063134670258,-0.4779193699359894,3.0215904712677
167,41366,41364,-0.01945713721215725,-0.13980229198932648,1.0470285415649414,-4.322480201721191,-6.363218307495117,2.857964515686035,2.118065357208252,4.134343147277832,0.3186683654785156,0.10349932312965393,-0.5314024686813354,3.06463885307312
168,41376,41374,-0.034250661730766296,-0.06570201367139816,1.0098180770874023,-2.56636118888855,1.1020703315734863,2.9500136375427246,2.1196742057800293,4.134535789489746,0.3175666034221649,0.1680149883031845,-0.6400663256645203,3.1189334392547607
169,41386,41384,0.05407046526670456,-0.1299229860305786,0.9381576180458069,-2.420079231262207,2.2016584873199463,3.5109214782714844,2.1200435161590576,4.1360368728637695,0.3178664445877075,0.16688431799411774,-0.6482294201850891,3.154366970062256
170,41396,41394,-0.009162970818579197,0.062314700335264206,0.9323419332504272,-2.839294672012329,2.25136137008667,3.8505771160125732,2.120492458343506,4.136391639709473,0.3180859386920929,0.2400696873664856,-0.6572623252868652,3.1898629665374756
171,41406,41404,-0.002654776908457279,0.08502545207738876,0.9997997283935547,-3.960266351699829,1.121196985244751,3.3257524967193604,2.120361804962158,4.135510444641113,0.31836551427841187,0.24099957942962646,-0.6766607165336609,3.2264516353607178
172,41416,41414,-0.09120981395244598,0.1402328908443451,0.979107141494751,-3.0021770000457764,-0.36493542790412903,3.8078906536102295,2.1208672523498535,4.135558128356934,0.3165911138057709,0.020918238908052444,-0.6959719061851501,3.287982940673828
173,41426,41424,-0.06494549661874771,0.04605266824364662,0.9773854613304138,-3.168855905532837,2.058065176010132,3.6388237476348877,2.1241986751556396,4.135138511657715,0.3164903223514557,0.020677920430898666,-0.7251907587051392,3.3256888389587402
174,41436,41434,0.051491715013980865,-0.048716913908720016,0.9497384428977966,-3.905117988586426,0.22965079545974731,3.0854310989379883,2.123398542404175,4.135171890258789,0.31665700674057007,0.19535280764102936,-0.8887315988540649,3.350463628768921
175,41446,41444,0.07339632511138916,-0.17208921909332275,1.0291030406951904,-2.8311119079589844,-0.10290095210075378,2.689563274383545,2.1236016750335693,4.135103225708008,0.3133162260055542,0.13026989996433258,-0.8972969651222229,3.3809049129486084
176,41456,41454,0.029929783195257187,-0.09703141450881958,0.9858667254447937,-0.9886865615844727,-2.1267290115356445,2.6470954418182373,2.1249170303344727,4.134801387786865,0.31305164098739624,0.1372814029455185,-0.9231365323066711,3.4090709686279297
177,41466,41464,0.0061963824555277824,-0.05754399672150612,0.9451563358306885,0.4906509518623352,0.40540698170661926,2.103088140487671,2.1241190433502197,4.1342573165893555,0.3129488229751587,0.2747510075569153,-0.9561392664909363,3.4060869216918945
178,41476,41474,-0.029412399977445602,0.013138433918356895,1.0243726968765259,0.7734259366989136,-1.1574736833572388,1.9286245107650757,2.1262431144714355,4.133370876312256,0.3091816008090973,0.1338612139225006,-0.8898674845695496,3.4394476413726807
179,41486,41484,0.031284186989068985,-0.10839539021253586,0.9928684234619141,1.6169300079345703,-0.28280651569366455,2.284278154373169,2.1263160705566406,4.132330417633057,0.30875152349472046,0.15784487128257751,-0.8236377835273743,3.4548797607421875
180,41496,41494,0.01778690330684185,-0.18798474967479706,1.0123085975646973,1.7863576412200928,-0.8363133072853088,2.0283851623535156,2.127929210662842,4.1323561668396,0.3082645833492279,0.13178645074367523,-0.8301979303359985,3.4851090908050537
181,41506,41504,0.0007045534439384937,-0.03292391076683998,0.9752255082130432,-1.2284061908721924,3.6913628578186035,1.628156065940857,2.1287341117858887,4.13238525390625,0.30776533484458923,0.10174257308244705,-0.8312235474586487,3.5098979473114014
182,41516,41514,0.00041844972292892635,-0.047535404562950134,0.9896851181983948,-3.0058109760284424,2.679048776626587,1.311751365661621,2.1291422843933105,4.133219242095947,0.310651570558548,0.15270976722240448,-0.8814570307731628,3.5306715965270996
183,41526,41524,-0.001826341263949871,-0.006703704595565796,1.0287744998931885,-4.132822036743164,1.6411772966384888,1.3122138977050781,2.1294844150543213,4.133460998535156,0.31050899624824524,0.28988274931907654,-0.8501556515693665,3.5370066165924072
184,41536,41534,0.01762234978377819,-0.07639061659574509,1.0314319133758545,-3.653860330581665,0.3923831284046173,1.1569688320159912,2.1293752193450928,4.133212089538574,0.310301274061203,0.2017381340265274,-0.9404281973838806,3.561933994293213
185,41546,41544,-0.0619911253452301,0.06137219816446304,1.0624157190322876,-1.992794394493103,2.0394792556762695,0.4938001334667206,2.1311233043670654,4.133362293243408,0.3095799386501312,0.19031423330307007,-0.974593997001648,3.5792784690856934
186,41556,41554,0.023024696856737137,-0.04765872657299042,0.9757314920425415,0.4894963502883911,4.750380516052246,-0.28913211822509766,2.132549524307251,4.1313910484313965,0.3093187212944031,0.07664287090301514,-0.8626323938369751,3.564099073410034
187,41566,41564,-0.011177662760019302,0.03712482377886772,0.9762771725654602,2.5077221393585205,3.551490068435669,0.638988196849823,2.1324009895324707,4.132084846496582,0.309192955493927,0.0398462638258934,-0.8756392598152161,3.5605382919311523
188,41576,41574,-0.07903166860342026,0.15964791178703308,0.9866103529930115,3.052842855453491,4.295938491821289,0.49982160329818726,2.133676052093506,4.13225793838501,0.30688899755477905,0.0016601990209892392,-0.8433961272239685,3.5816848278045654
189,41586,41584,-0.04698661342263222,0.008905038237571716,1.0599898099899292,2.957850694656372,1.8938021659851074,0.22987785935401917,2.1335580348968506,4.132199764251709,0.30661794543266296,0.036637358367443085,-0.8208836317062378,3.5781466960906982
190,41596,41594,-0.00010726380423875526,-0.04429616779088974,1.0350717306137085,0.5946127772331238,0.9364027976989746,-0.1829390674829483,2.1352052688598633,4.133350372314453,0.30625036358833313,0.11428019404411316,-0.8854671716690063,3.579026937484741
191,41606,41604,0.018611229956150055,0.006959082093089819,1.038107991218567,-0.26836320757865906,0.1117563396692276,-0.5100091099739075,2.1343770027160645,4.13322639465332,0.30476510524749756,0.10984121263027191,-0.8798997402191162,3.575169801712036
192,41616,41614,0.01527008693665266,-0.16007578372955322,1.045941710472107,-0.3450903594493866,-0.5224634408950806,-0.7904524207115173,2.1356382369995117,4.13432502746582,0.3044765889644623,0.04604888707399368,-0.9082006812095642,3.5910208225250244
193,41626,41624,0.001501095131970942,-0.03819834440946579,1.0429142713546753,0.7078405022621155,-0.9351897239685059,-0.9505312442779541,2.137336015701294,4.134986400604248,0.30419105291366577,0.05076735466718674,-0.9098582863807678,3.5928492546081543
194,41636,41634,-0.043189339339733124,0.03335045650601387,1.0392605066299438,1.8459789752960205,1.8954999446868896,-0.826104462146759,2.1371982097625732,4.135509490966797,0.30399030447006226,0.15533806383609772,-0.885620653629303,3.5811383724212646
195,41646,41644,0.010032129473984241,0.04617569223046303,1.1033910512924194,3.476407289505005,3.5897574424743652,-0.841574490070343,2.137699842453003,4.137199878692627,0.30214062333106995,0.11792690306901932,-0.8428781628608704,3.6333513259887695
196,41656,41654,0.03387943282723427,0.039090346544981,1.108474850654602,4.702547073364258,6.314610004425049,-1.1051369905471802,2.138504981994629,4.13720178604126,0.3019394874572754,0.11632256954908371,-0.7760366797447205,3.6139817237854004
197,41666,41664,0.03996796905994415,-0.11213931441307068,1.0847663879394531,3.8842475414276123,8.05288314819336,-0.4272410273551941,2.139683246612549,4.1388092041015625,0.3019033372402191,0.04963972792029381,-0.729762613773346,3.6351468563079834
198,41676,41674,0.05573588237166405,-0.15929675102233887,1.0873584747314453,3.598813056945801,7.440253257751465,-2.0051894187927246,2.1410467624664307,4.1397705078125,0.3011853098869324,-0.2801643908023834,-0.7998315691947937,3.6497902870178223
199,41686,41684,-0.01114987675100565,-0.05472281202673912,1.0506693124771118,3.0853004455566406,6.377911567687988,-2.2074344158172607,2.143439292907715,4.138581275939941,0.3011341691017151,-0.21217717230319977,-0.7356849908828735,3.5967440605163574
200,41696,41694,0.0008924001595005393,-0.019307570531964302,1.0187325477600098,3.6913082599639893,5.255476474761963,-2.0029594898223877,2.143317937850952,4.138340950012207,0.30141833424568176,-0.29279932379722595,-0.7451151013374329,3.577507734298706
201,41706,41704,0.008215892128646374,-0.09182843565940857,1.0347118377685547,3.4114742279052734,0.35070690512657166,-1.4862971305847168,2.143979072570801,4.139598369598389,0.3023993670940399,-0.34282657504081726,-0.7115210294723511,3.5740861892700195
202,41716,41714,0.04107217490673065,-0.1779002994298935,1.0462286472320557,5.4470648765563965,-3.008498430252075,-1.6682167053222656,2.1438803672790527,4.140244960784912,0.30267754197120667,-0.1415477842092514,-0.6617506146430969,3.5395798683166504
203,41726,41724,-0.009510915726423264,-0.0346200093626976,1.043739914894104,7.033517837524414,-3.3567349910736084,-1.845088005065918,2.143589496612549,4.139328956604004,0.3030177354812622,-0.24457494914531708,-0.5412328243255615,3.5239553451538086
204,41736,41734,-0.019268041476607323,-0.01681937463581562,1.0280345678329468,6.4758758544921875,-1.3621448278427124,-2.0432207584381104,2.1453707218170166,4.138526439666748,0.30329132080078125,-0.2119572013616562,-0.4702058732509613,3.4966464042663574
205,41746,41744,0.0015130842803046107,-0.061966363340616226,1.0117980241775513,8.199326515197754,-0.0641656443476677,-2.2432990074157715,2.1464779376983643,4.138369083404541,0.3070552349090576,-0.19928251206874847,-0.34854158759117126,3.493299961090088
206,41756,41754,-0.017677318304777145,0.03318195417523384,1.0048247575759888,4.893098831176758,0.14448967576026917,-2.0485267639160156,2.1470954418182373,4.1381378173828125,0.307538777589798,-0.27735966444015503,-0.2092382311820984,3.4614310264587402
207,41766,41764,-0.04896564409136772,0.0625530257821083,1.0691266059875488,1.2349416017532349,1.2701798677444458,-2.327699899673462,2.1488239765167236,4.139586448669434,0.3080906271934509,-0.2333976924419403,-0.27047961950302124,3.4362802505493164
208,41776,41774,0.022922346368432045,-0.07393752783536911,1.0691989660263062,-0.30675074458122253,1.0980507135391235,-2.547577381134033,2.148451328277588,4.138973236083984,0.3097827434539795,-0.23657278716564178,-0.255633682012558,3.4016435146331787
209,41786,41784,0.0010824031196534634,0.03726053982973099,0.945061445236206,-1.2325609922409058,0.846686065196991,-2.0550620555877686,2.1488428115844727,4.139232635498047,0.31048303842544556,-0.3225003778934479,-0.2569864094257355,3.3860466480255127
210,41796,41794,-0.028760777786374092,0.020156003534793854,1.0061590671539307,0.34071213006973267,0.16639912128448486,-2.15511155128479,2.1504158973693848,4.1394171714782715,0.311111718416214,-0.3927958607673645,-0.32873499393463135,3.36444354057312
211,41806,41804,0.011267568916082382,-0.05888295918703079,0.9830130338668823,1.381559133529663,-0.17149335145950317,-2.238348960876465,2.152045726776123,4.140590667724609,0.3131944537162781,-0.22252589464187622,-0.29756784439086914,3.3445301055908203
212,41816,41814,0.005561897065490484,-0.04357251524925232,1.019280195236206,3.541614055633545,-2.4198529720306396,-1.7459545135498047,2.1510980129241943,4.140594959259033,0.3141421377658844,-0.2599339485168457,-0.314225971698761,3.3344082832336426
213,41826,41824,-0.012631796300411224,-0.017276285216212273,0.9921430349349976,5.106170177459717,-3.1598668098449707,-1.76405668258667,2.1520256996154785,4.140812397003174,0.31490612030029297,-0.19830460846424103,-0.2230709195137024,3.3002431392669678
214,41836,41834,0.013092312961816788,0.06877516955137253,0.9805271029472351,6.182441711425781,-4.599192142486572,-2.5418269634246826,2.1524577140808105,4.140124797821045,0.31573912501335144,-0.16619572043418884,-0.16798169910907745,3.2577459812164307
215,41846,41844,0.008174515329301357,-0.06132069602608681,0.9433303475379944,5.529637336730957,-3.9862124919891357,-2.826204299926758,2.1538639068603516,4.140291690826416,0.3165346086025238,-0.17180465161800385,-0.07040704041719437,3.24466872215271
216,41856,41854,0.06244548410177231,-0.09242810308933258,0.9019268155097961,3.2406139373779297,-2.439345598220825,-3.1590020656585693,2.154036283493042,4.139732360839844,0.3173004388809204,-0.1392233669757843,-0.019383756443858147,3.210235357284546
217,41866,41864,-0.00831834226846695,0.08427806943655014,1.0033875703811646,3.1051082611083984,-2.411942481994629,-3.072073459625244,2.1534626483917236,4.140535354614258,0.3180229067802429,-0.2157554179430008,-0.001236767740920186,3.1861636638641357
218,41876,41874,0.002744388999417424,-0.044689957052469254,1.0239601135253906,1.2584598064422607,-1.0847184658050537,-2.4093918800354004,2.1564695835113525,4.140514850616455,0.31853559613227844,-0.08829833567142487,-0.030466748401522636,3.1481552124023438
219,41886,41884,0.0674610286951065,-0.1813550442457199,1.0407884120941162,1.3042287826538086,0.8448799848556519,-2.515774965286255,2.1565229892730713,4.140937805175781,0.31927022337913513,-0.07205729931592941,-0.06791817396879196,3.125068426132202
220,41896,41894,-0.010771448723971844,-0.13575883209705353,1.025272250175476,1.6782984733581543,0.11034353077411652,-2.0170905590057373,2.157241106033325,4.141350269317627,0.3199198246002197,-0.06657323986291885,-0.05637761950492859,3.0940961837768555
221,41906,41904,0.05902452394366264,-0.08922354876995087,0.9004102945327759,3.7956807613372803,2.0787644386291504,-2.166337251663208,2.158207416534424,4.141524314880371,0.3171798586845398,-0.15516380965709686,0.043773967772722244,3.0708248615264893
222,41916,41914,-0.0809992253780365,0.15773682296276093,0.850721001625061,3.6710121631622314,1.462358832359314,-1.7403112649917603,2.1597886085510254,4.14072322845459,0.31752243638038635,-0.15891067683696747,0.08651193231344223,3.0429413318634033
223,41926,41924,-0.05275474861264229,0.16801027953624725,0.8940048813819885,1.1933010816574097,0.9304145574569702,-1.3706732988357544,2.160721778869629,4.140563011169434,0.31777459383010864,-0.15258005261421204,0.1003713458776474,3.015615463256836
224,41936,41934,-0.004016051068902016,-0.014043588191270828,0.9459651112556458,-0.13222351670265198,-0.029516873881220818,-0.8712999224662781,2.1611685752868652,4.140838146209717,0.3179246485233307,-0.06722813099622726,0.050752099603414536,3.0047144889831543
225,41946,41944,-0.05351278558373451,0.08157511800527573,1.039431095123291,-1.5285781621932983,-3.2690579891204834,-1.4799760580062866,2.160956859588623,4.141541481018066,0.31552764773368835,-0.027361245825886726,0.05525225028395653,2.994032144546509
226,41956,41954,-0.11622392386198044,0.15572141110897064,1.011860966682434,-0.6462858319282532,-4.250433444976807,-0.6997848749160767,2.1612305641174316,4.141643524169922,0.3155083954334259,0.01036715880036354,0.0437036007642746,2.979764461517334
227,41966,41964,0.007032809313386679,-0.061092641204595566,0.9480226039886475,-0.5539196133613586,-4.308038711547852,0.11508788168430328,2.162869453430176,4.141385555267334,0.3154374659061432,-0.08221783488988876,0.06857649981975555,2.9614994525909424
228,41976,41974,-0.01967763900756836,-0.016149526461958885,1.0389541387557983,0.984541118144989,-1.8908754587173462,-0.10057050734758377,2.16400408744812,4.141319751739502,0.3098204433917999,0.07498135417699814,0.08971647173166275,2.9692087173461914
229,41986,41984,-0.03959549590945244,0.07376419007778168,1.0327763557434082,1.9574509859085083,-0.6935660243034363,0.4159073531627655,2.1641712188720703,4.141289710998535,0.30955907702445984,0.03326937556266785,0.05254533514380455,2.9641382694244385
230,41996,41994,-0.021382233127951622,-0.01896609365940094,1.0243221521377563,1.5465686321258545,2.661093235015869,0.19454476237297058,2.165249824523926,4.141861438751221,0.3091992437839508,0.10785329341888428,0.10115110129117966,2.97074818611145
231,42006,42004,-0.0009342324919998646,-0.09694363176822662,0.9349963665008545,1.150993824005127,4.420344829559326,-0.43025219440460205,2.165518045425415,4.141757011413574,0.30956119298934937,0.13369955122470856,0.14320649206638336,2.973794460296631
232,42016,42014,0.021194610744714737,-0.04781479761004448,0.9777349829673767,0.1533464938402176,6.785287380218506,-0.614627480506897,2.1658809185028076,4.141530990600586,0.3092769980430603,0.046519871801137924,0.17008627951145172,2.96630597114563
233,42026,42024,0.0666496679186821,-0.0864565521478653,1.0048705339431763,-0.9232468008995056,5.288493633270264,-1.2635586261749268,2.1666548252105713,4.141102313995361,0.3089052736759186,-0.05520913749933243,0.17027641832828522,2.94294810295105
234,42036,42034,0.01126531045883894,-0.02275264449417591,0.9911015033721924,-1.9153196811676025,3.3360049724578857,-1.2077932357788086,2.167874813079834,4.14108419418335,0.30797550082206726,-0.044567693024873734,0.15632669627666473,2.9350898265838623
235,42046,42044,0.006652486976236105,-0.061314988881349564,1.0280706882476807,-0.7833892703056335,2.433208703994751,-1.8144372701644897,2.167996644973755,4.141114711761475,0.30766016244888306,-0.16065645217895508,0.14573761820793152,2.913429021835327
236,42056,42054,0.08697261661291122,-0.03785960003733635,0.9315560460090637,-0.31433817744255066,2.303072452545166,-2.0608460903167725,2.169983148574829,4.141256332397461,0.3071560561656952,-0.11975722014904022,0.14490467309951782,2.8645269870758057
237,42066,42064,0.056590963155031204,-0.10256974399089813,0.9962911009788513,0.4350089132785797,0.7975019812583923,-2.3438096046447754,2.17014217376709,4.140201091766357,0.3067820072174072,-0.2984251379966736,0.15408790111541748,2.8419454097747803
238,42076,42074,0.025392616167664528,-0.061863355338573456,0.9914464354515076,-0.06562264263629913,-0.24597769975662231,-2.623584032058716,2.171644687652588,4.1397576332092285,0.3063066601753235,-0.19930465519428253,0.16865286231040955,2.7997329235076904
239,42086,42084,0.007031620014458895,0.01776796020567417,1.0124094486236572,-0.6210349798202515,-0.45487192273139954,-2.099482774734497,2.171751022338867,4.139669418334961,0.30596208572387695,-0.19755184650421143,0.16907045245170593,2.776618719100952
240,42096,42094,0.0033088414929807186,-0.009329981170594692,1.0042668581008911,-0.9320675730705261,-0.4746769070625305,-2.667914390563965,2.170884132385254,4.138912677764893,0.3055649399757385,-0.09934370219707489,0.08678378909826279,2.735137939453125
241,42106,42104,0.017304521054029465,-0.0030847922898828983,1.0155986547470093,0.11941365152597427,1.4794881343841553,-2.9306483268737793,2.1704447269439697,4.139056205749512,0.30809175968170166,-0.18309040367603302,0.09592879563570023,2.666611671447754
242,42116,42114,-0.0002942341088782996,-0.021602464839816093,1.099826455116272,1.4594634771347046,5.341288089752197,-3.5580222606658936,2.172250747680664,4.138457775115967,0.30773094296455383,-0.2300366461277008,0.11937439441680908,2.630375862121582
243,42126,42124,-0.011075797490775585,0.03656432032585144,1.1081180572509766,2.441226005554199,4.848495960235596,-3.425652027130127,2.172590732574463,4.137415885925293,0.30746325850486755,-0.30953970551490784,0.16503161191940308,2.565122604370117
244,42136,42134,0.01324103306978941,-0.057410869747400284,1.0087412595748901,3.3779296875,3.5316221714019775,-3.779391050338745,2.173959732055664,4.13698673248291,0.307865709066391,-0.3128019869327545,0.1454411894083023,2.5195424556732178
245,42146,42144,-0.028765665367245674,0.1699700802564621,0.9784168004989624,3.006434917449951,1.3199163675308228,-4.28288459777832,2.1738078594207764,4.13730525970459,0.3078990578651428,-0.30938008427619934,0.19210506975650787,2.4673380851745605
246,42156,42154,-0.012025116011500359,0.07483270019292831,1.0262820720672607,0.37414073944091797,0.7674732804298401,-4.066314697265625,2.1737115383148193,4.136759281158447,0.30796486139297485,-0.4007129967212677,0.24611453711986542,2.4133503437042236
247,42166,42164,-0.016237109899520874,-0.09574330598115921,1.0756112337112427,0.11103242635726929,-2.061129331588745,-4.043675422668457,2.175797939300537,4.136930465698242,0.30782294273376465,-0.44143518805503845,0.25234296917915344,2.3695900440216064
248,42176,42174,0.0006027495255693793,-0.12583717703819275,1.0217865705490112,-0.5431309342384338,-1.517735242843628,-4.240329265594482,2.177478075027466,4.136899948120117,0.30433639883995056,-0.4143662750720978,0.2516286373138428,2.327389717102051
249,42186,42184,0.04065036028623581,-0.03031153790652752,1.0189064741134644,-0.7799340486526489,-1.7675025463104248,-4.587579250335693,2.177708387374878,4.13667106628418,0.3043060302734375,-0.4925262928009033,0.24739931523799896,2.2652158737182617
250,42196,42194,-0.04088110104203224,-0.0035552862100303173,1.0580103397369385,-1.0140409469604492,-0.6614902019500732,-4.923094749450684,2.180436611175537,4.136797904968262,0.3039920926094055,-0.4794398248195648,0.23595580458641052,2.218642473220825
251,42206,42204,0.01713591255247593,-0.01499660313129425,1.031147837638855,-0.8326981067657471,-0.3451485335826874,-5.207858562469482,2.1805002689361572,4.136874675750732,0.30507317185401917,-0.39955589175224304,0.21792936325073242,2.1747233867645264
252,42216,42214,0.01197497546672821,-0.023960476741194725,0.9551911354064941,-1.0439651012420654,-1.6620761156082153,-4.826684951782227,2.181734323501587,4.136502742767334,0.30504828691482544,-0.2849813401699066,0.20473933219909668,2.1064717769622803
253,42226,42224,-0.009575755335390568,-0.008887981064617634,1.069390058517456,-0.8844237923622131,-2.6801507472991943,-4.57322883605957,2.181605815887451,4.1363043785095215,0.3052010238170624,-0.12456395477056503,0.27217984199523926,2.0722739696502686
254,42236,42234,-0.00808861292898655,-0.01485954038798809,1.1013962030410767,0.7115155458450317,-2.4150474071502686,-4.859071731567383,2.1817140579223633,4.1355814933776855,0.30654433369636536,-0.2962511479854584,0.27255478501319885,2.0109739303588867
255,42246,42244,0.011135260574519634,-0.17686232924461365,1.0710636377334595,1.9808897972106934,-0.04601053148508072,-4.279629230499268,2.183415412902832,4.134839057922363,0.3066415786743164,-0.33349716663360596,0.28602996468544006,1.929779291152954
256,42256,42254,-0.003180756699293852,0.020061232149600983,1.0404592752456665,1.5618324279785156,-0.08921703696250916,-4.072302341461182,2.185004234313965,4.134463310241699,0.3068508803844452,-0.30598458647727966,0.3080478608608246,1.8808817863464355
257,42266,42264,-0.004249241668730974,-0.05385183170437813,1.0034308433532715,1.9881887435913086,-3.8728814125061035,-4.226278781890869,2.1858325004577637,4.134088516235352,0.30722400546073914,-0.3012288808822632,0.3331168591976166,1.8383933305740356
258,42276,42274,-0.01166751328855753,-0.035261861979961395,0.9878048300743103,1.1680885553359985,-5.847332954406738,-4.615472316741943,2.18715238571167,4.133996486663818,0.3080659508705139,-0.17371295392513275,0.2736821472644806,1.7936391830444336
259,42286,42284,-0.04491345211863518,-0.032687634229660034,0.9850617051124573,-0.940687358379364,-7.425675392150879,-3.8479115962982178,2.1875975131988525,4.134610176086426,0.3085331320762634,-0.03313972055912018,0.27113834023475647,1.7560274600982666
260,42296,42294,0.009460469707846642,-0.1217825785279274,1.064170479774475,-1.5222699642181396,-8.194878578186035,-4.250354290008545,2.188328504562378,4.134207725524902,0.3090028166770935,-0.10508222877979279,0.24590718746185303,1.6776983737945557
261,42306,42304,-0.0018856254173442721,-0.1553162783384323,1.070863962173462,-0.10674433410167694,-8.640026092529297,-3.753607988357544,2.190647840499878,4.134096145629883,0.3095335364341736,0.07688846439123154,0.23370584845542908,1.6433194875717163
262,42316,42314,-0.03763806074857712,-0.11051807552576065,1.0399632453918457,0.6525871157646179,-3.3060412406921387,-4.005084991455078,2.190903425216675,4.134122848510742,0.31006374955177307,0.0332435742020607,0.31698280572891235,1.5939326286315918
263,42326,42324,0.05205177888274193,-0.029339009895920753,0.9206671714782715,1.2516520023345947,-1.098943829536438,-4.01071310043335,2.192978858947754,4.133368968963623,0.3105458617210388,0.0468180775642395,0.3285394608974457,1.553830862045288
264,42336,42334,0.05513409897685051,-0.0680207833647728,0.9733503460884094,0.01818534918129444,0.3028546869754791,-3.809100389480591,2.193164587020874,4.133978366851807,0.3134741187095642,0.168406143784523,0.2597457766532898,1.5468684434890747
265,42346,42344,0.04759855568408966,-0.1436690241098404,0.9851498603820801,-0.34916090965270996,0.10307028889656067,-3.883436918258667,2.1932079792022705,4.1344475746154785,0.31412792205810547,0.030748028308153152,0.25285011529922485,1.498375654220581
266,42356,42354,0.00395604595541954,-0.1492491215467453,0.9654858708381653,-1.0936639308929443,-0.9848940968513489,-4.4106855392456055,2.1946933269500732,4.134854793548584,0.31463655829429626,-0.0021288017742335796,0.2366185486316681,1.468357801437378
267,42366,42364,0.0015624624211341143,-0.01959242857992649,0.9805517792701721,-2.4166510105133057,-2.3378303050994873,-4.507130146026611,2.1960606575012207,4.134681224822998,0.3137882351875305,0.01535751298069954,0.2196245789527893,1.400937557220459
268,42376,42374,0.0007239603437483311,0.005188049282878637,0.9853033423423767,-1.919677495956421,-4.802260398864746,-4.818465709686279,2.1974406242370605,4.13410758972168,0.31422656774520874,0.03622032701969147,0.25811806321144104,1.4050581455230713
269,42386,42384,0.0544603206217289,-0.1409563571214676,1.0252772569656372,-1.7081996202468872,-7.665696620941162,-4.474493980407715,2.197633981704712,4.135124206542969,0.3148551881313324,0.24854181706905365,0.19546817243099213,1.3741804361343384
270,42396,42394,-0.009140273556113243,-0.02863132953643799,0.9802207946777344,-0.2291211038827896,-8.683492660522461,-4.999483108520508,2.197871208190918,4.136496067047119,0.31535354256629944,0.1761687844991684,0.1796872913837433,1.3545912504196167
271,42406,42404,0.025502197444438934,-0.055836573243141174,0.9349371790885925,1.057122826576233,-6.495603084564209,-5.145364761352539,2.200277328491211,4.136547565460205,0.3171859085559845,0.25335291028022766,0.18473850190639496,1.3025782108306885
272,42416,42414,-0.028394650667905807,-0.02125825546681881,0.9916898012161255,2.017308473587036,-3.9077916145324707,-5.101290702819824,2.2014360427856445,4.136481761932373,0.3176648020744324,0.2998132109642029,0.2014199197292328,1.251400351524353
273,42426,42424,0.030364636331796646,-0.03072158433496952,0.9443129897117615,1.2630281448364258,-1.0550522804260254,-5.1712141036987305,2.202225685119629,4.136098384857178,0.3182014226913452,0.3449622392654419,0.23112283647060394,1.1916154623031616
274,42436,42434,0.05182838812470436,-0.1088271364569664,0.9474916458129883,1.5297240018844604,-1.5326279401779175,-4.58113431930542,2.2036118507385254,4.136092185974121,0.3163596987724304,0.3115358352661133,0.3306088447570801,1.1334234476089478
275,42446,42444,0.025106430053710938,-0.06008751317858696,1.006532073020935,2.5714149475097656,-4.360270977020264,-4.25778865814209,2.2050466537475586,4.135366439819336,0.3165627121925354,0.4918922185897827,0.2735579311847687,1.1011713743209839
276,42456,42454,-0.0052929227240383625,-0.0004583121626637876,1.001016616821289,2.6986379623413086,-6.830044269561768,-4.12378454208374,2.2049808502197266,4.135841369628906,0.31696295738220215,0.45759719610214233,0.3905324935913086,1.0480517148971558
277,42466,42464,0.007990970276296139,-0.03465360403060913,0.9747640490531921,3.5740280151367188,-7.836402893066406,-3.292062759399414,2.20622181892395,4.134907245635986,0.3157790005207062,0.6965441703796387,0.3501814901828766,1.0222973823547363
278,42476,42474,0.004954841919243336,-0.023683488368988037,0.9611826539039612,2.2986834049224854,-4.1963090896606445,-1.8162708282470703,2.205624580383301,4.135405540466309,0.3160053491592407,0.8109437227249146,0.389705091714859,1.004795789718628
279,42486,42484,0.046172335743904114,-0.04371918737888336,0.9554315209388733,0.01637670211493969,-3.6323580741882324,-0.956795334815979,2.205942392349243,4.135361194610596,0.3161516785621643,0.7307420372962952,0.39026325941085815,0.9839349985122681
280,42496,42494,-0.01881381683051586,-0.12315061688423157,1.011888027191162,-1.2828760147094727,0.26339149475097656,-0.6037849187850952,2.207292079925537,4.134644508361816,0.3162086308002472,0.6140310168266296,0.36430543661117554,0.9424213171005249
281,42506,42504,-0.0017391908913850784,-0.037715088576078415,0.9880738258361816,-2.487732172012329,8.087726593017578,-0.709843635559082,2.2100963592529297,4.1341729164123535,0.31857946515083313,0.6096347570419312,0.31745272874832153,0.9148423075675964
282,42516,42514,-0.027662640437483788,0.029978206381201744,1.0427583456039429,-3.789252519607544,11.47715950012207,-0.907804012298584,2.210254192352295,4.134365558624268,0.318790465593338,0.6015319228172302,0.32897597551345825,0.908469557762146
283,42526,42524,-0.06975217163562775,0.0697379857301712,1.0125257968902588,-2.636356830596924,11.835840225219727,-0.736053466796875,2.209547281265259,4.1344194412231445,0.31908369064331055,0.5048152208328247,0.26791003346443176,0.9338766932487488
284,42536,42534,0.044928692281246185,-0.11886409670114517,0.9683840274810791,-1.5019201040267944,9.441598892211914,-1.0902811288833618,2.210545778274536,4.134574890136719,0.3228849470615387,0.4206165373325348,0.2287653535604477,0.9226923584938049
285,42546,42544,0.01560567319393158,-0.09439373016357422,0.9614487290382385,0.5316143035888672,5.703909873962402,-0.339840829372406,2.210897445678711,4.135330677032471,0.3233748972415924,0.3753451406955719,0.29245510697364807,0.9456737637519836
286,42556,42554,-0.006817489862442017,-0.025077996775507927,0.9732974767684937,1.7036651372909546,2.638474941253662,-0.2746560275554657,2.2112488746643066,4.134329319000244,0.3237984776496887,0.3406965136528015,0.30803701281547546,0.9346840381622314
287,42566,42564,-0.03071409836411476,-0.06627752631902695,1.006152629852295,1.2861268520355225,2.2397592067718506,-0.02667710930109024,2.2114124298095703,4.1336846351623535,0.32609859108924866,0.39568179845809937,0.3945372402667999,0.93074631690979
288,42576,42574,-0.04104092717170715,-0.05967043340206146,0.979141354560852,0.7170377969741821,5.032898426055908,-0.3795422613620758,2.21266770362854,4.133183002471924,0.3265902101993561,0.3443087041378021,0.38910508155822754,0.9083446860313416
289,42586,42584,0.05920446291565895,0.05900946259498596,0.9178749322891235,-0.3673556447029114,12.177652359008789,-0.6153332591056824,2.212305784225464,4.132259845733643,0.32713428139686584,0.2762414515018463,0.4527294635772705,0.8962484002113342
290,42596,42594,0.13917267322540283,0.02242753468453884,0.9302833080291748,-2.038332462310791,10.776336669921875,-0.14680740237236023,2.212801218032837,4.132997989654541,0.3219148814678192,0.14857961237430573,0.4068622887134552,0.9295617938041687
291,42606,42604,0.07633854448795319,-0.14406992495059967,0.994736909866333,-3.6229584217071533,11.422171592712402,-0.2629414498806,2.2131569385528564,4.133762836456299,0.32195180654525757,0.022022532299160957,0.3295641541481018,0.9655462503433228
292,42616,42614,0.08153173327445984,-0.06579957157373428,0.877581000328064,-3.280278444290161,11.511629104614258,-0.9195269346237183,2.213419198989868,4.13391637802124,0.3219514787197113,0.011791708879172802,0.28073200583457947,0.9566069841384888
293,42626,42624,-0.05700739845633507,0.03712383657693863,0.9124855995178223,-3.577831983566284,6.265892505645752,-1.0939699411392212,2.213871479034424,4.133882522583008,0.32185235619544983,-0.25621315836906433,0.2012338787317276,0.9232984185218811
294,42636,42634,0.005300631746649742,-0.06993573904037476,0.9632756114006042,-4.868886470794678,9.607056617736816,-1.473311424255371,2.214329719543457,4.133334636688232,0.32141369581222534,-0.24784433841705322,0.15374818444252014,0.9351071715354919
295,42646,42644,0.025891290977597237,-0.07470585405826569,0.960945188999176,-5.441827297210693,8.42641830444336,-1.528874397277832,2.2142817974090576,4.133208751678467,0.3211216926574707,-0.36429283022880554,0.10129100829362869,0.9180949926376343
296,42656,42654,0.052064448595047,-0.10843437165021896,0.9171788096427917,-5.792786121368408,7.751404762268066,-0.8006696105003357,2.2146010398864746,4.13280725479126,0.3208092153072357,-0.4310528039932251,0.07432352006435394,0.8931117653846741
297,42666,42664,-0.025852985680103302,0.03617732971906662,0.9404608011245728,-2.2882235050201416,-0.4712423086166382,0.0685737133026123,2.213688373565674,4.132418155670166,0.32313233613967896,-0.39610040187835693,0.1590110808610916,0.8951444625854492
298,42676,42674,-0.01064193993806839,0.01486680842936039,0.9778740406036377,0.40388262271881104,-4.759038925170898,1.0471419095993042,2.2133541107177734,4.13186502456665,0.3228234350681305,-0.30802294611930847,0.10263418406248093,0.9321737885475159
299,42686,42684,0.0033751465380191803,-0.008937149308621883,1.0111234188079834,0.9749512076377869,-4.752498149871826,2.03952693939209,2.21299147605896,4.131686687469482,0.3225654661655426,-0.2652648985385895,0.07610489428043365,0.9342689514160156
300,42696,42694,0.03698704391717911,-0.05248694121837616,1.0594220161437988,-0.016336947679519653,-1.9477570056915283,1.847759485244751,2.212618589401245,4.132015228271484,0.3238682448863983,-0.2253441959619522,0.06254704296588898,0.9843201637268066
301,42706,42704,0.009229831397533417,-0.07075317203998566,1.001868486404419,-1.8134369850158691,3.602461814880371,2.3813631534576416,2.2132670879364014,4.1319427490234375,0.32367390394210815,-0.24477975070476532,0.10423585027456284,0.997850239276886
302,42716,42714,-0.006151517853140831,-0.051094088703393936,0.9811564087867737,-3.9333958625793457,10.760144233703613,3.070849895477295,2.214371681213379,4.131397724151611,0.32351285219192505,-0.26130229234695435,0.08917606621980667,1.0204839706420898
303,42726,42724,0.044003840535879135,-0.06209194287657738,0.9525381326675415,-7.134603023529053,17.300067901611328,3.4772462844848633,2.2161574363708496,4.130693435668945,0.32328835129737854,-0.48809975385665894,0.06885889917612076,1.0482447147369385
304,42736,42734,-0.041330549865961075,-0.011588016524910927,0.9976211786270142,-9.543242454528809,20.16185760498047,4.156315326690674,2.2174313068389893,4.12972354888916,0.3229157328605652,-0.6488932371139526,0.0034504819195717573,1.055336594581604
305,42746,42744,-0.01569526642560959,0.019165191799402237,0.9424890279769897,-9.326056480407715,19.044328689575195,4.520166873931885,2.218740463256836,4.130910396575928,0.3226223587989807,-0.9153399467468262,-0.17855945229530334,1.1598191261291504
306,42756,42754,-0.03188519924879074,0.03735388442873955,1.0509822368621826,-5.800178050994873,11.353353500366211,4.4347405433654785,2.217905044555664,4.131073474884033,0.32264065742492676,-0.9462624788284302,-0.27236372232437134,1.207226037979126
307,42766,42764,0.006588419433683157,0.012018515728414059,1.001471996307373,-1.5829169750213623,8.326155662536621,4.961904048919678,2.218651533126831,4.13150691986084,0.3193923830986023,-1.0710529088974,-0.33691129088401794,1.2448339462280273
308,42776,42774,-0.04023319110274315,0.1126294657588005,0.9584758281707764,3.8915493488311768,1.2865819931030273,6.326366424560547,2.2193374633789062,4.130616188049316,0.31899648904800415,-1.1304585933685303,-0.29691752791404724,1.2970398664474487
309,42786,42784,0.0018790471367537975,3.8749550412831013e-07,0.9555140137672424,3.7045319080352783,-3.1030924320220947,7.126270294189453,2.2208101749420166,4.130074501037598,0.3184385597705841,-1.233132243156433,-0.26076963543891907,1.3442871570587158
310,42796,42794,-0.02797495760023594,-0.04579496756196022,1.034191370010376,-0.71649569272995,-8.192949295043945,6.953353404998779,2.2191834449768066,4.131171226501465,0.31769078969955444,-1.0792644023895264,-0.2164311707019806,1.4958080053329468
311,42806,42804,0.017170296981930733,-0.1766812652349472,1.042425274848938,-4.9329633712768555,-14.059019088745117,6.365437030792236,2.220506429672241,4.131002902984619,0.3171946406364441,-1.0146476030349731,-0.25477996468544006,1.506125807762146
312,42816,42814,-0.0019119923235848546,-0.019074564799666405,1.0456286668777466,-7.759736061096191,-15.321414947509766,6.46188497543335,2.221245050430298,4.130649089813232,0.3167817294597626,-0.8709796667098999,-0.37179097533226013,1.5612316131591797
313,42826,42824,-0.05932294577360153,0.09818343073129654,0.983318567276001,-8.527565956115723,-15.240236282348633,7.307455062866211,2.2203102111816406,4.13035774230957,0.3165411651134491,-0.5342628359794617,-0.43616655468940735,1.618798017501831
314,42836,42834,-0.046727146953344345,0.10067003220319748,1.0167222023010254,-6.88963508605957,-10.242583274841309,7.472465991973877,2.221599817276001,4.129962921142578,0.31663423776626587,-0.4710730016231537,-0.516349732875824,1.681807518005371
315,42846,42844,-0.005726811476051807,0.01201564073562622,1.1009416580200195,-4.628635406494141,-3.005540132522583,7.2047810554504395,2.2227139472961426,4.128983020782471,0.3162910044193268,-0.39841821789741516,-0.5010789036750793,1.7522364854812622
316,42856,42854,-0.02202373929321766,-0.08934292942285538,1.0812774896621704,-3.2253456115722656,2.36238956451416,7.69162654876709,2.2231523990631104,4.129220485687256,0.3159811198711395,-0.354902446269989,-0.5973055958747864,1.8397250175476074
317,42866,42864,0.023958195000886917,-0.22911907732486725,1.0703821182250977,-1.776976466178894,5.735780715942383,7.314429759979248,2.2228941917419434,4.128532409667969,0.3130178451538086,-0.32252392172813416,-0.5839592814445496,1.9041740894317627
318,42876,42874,0.005260223988443613,-0.14595279097557068,1.0339457988739014,-3.152557373046875,8.095647811889648,7.791567325592041,2.2241644859313965,4.129094123840332,0.3126493990421295,-0.5943618416786194,-0.610624372959137,2.038114070892334
319,42886,42884,-0.05076472833752632,0.197715163230896,0.9868143200874329,-4.150147438049316,5.251585006713867,6.580683708190918,2.2249581813812256,4.129326343536377,0.3123815059661865,-0.6747564673423767,-0.6358596682548523,2.113445281982422
320,42896,42894,-0.01727033592760563,0.13065631687641144,1.0139398574829102,-2.953519105911255,0.5786373019218445,6.119447708129883,2.2255187034606934,4.129329204559326,0.31103643774986267,-0.6707444190979004,-0.7128300666809082,2.2019338607788086
321,42906,42904,-0.005037326831370592,0.03246413171291351,1.0783956050872803,-1.3109761476516724,-11.731062889099121,5.370595932006836,2.226780414581299,4.128903865814209,0.3107491731643677,-0.6529752016067505,-0.6553057432174683,2.2703115940093994
322,42916,42914,-0.05582663416862488,0.1182449460029602,1.0803734064102173,-0.9509360790252686,-16.73804473876953,4.336346626281738,2.2266042232513428,4.128721714019775,0.3105888366699219,-0.4250280261039734,-0.6969372034072876,2.295726776123047
323,42926,42924,0.020258374512195587,-0.00425404729321599,1.0127573013305664,-1.565189242362976,-18.082918167114258,3.9329140186309814,2.2264089584350586,4.12842321395874,0.3089772164821625,-0.36979198455810547,-0.7344034910202026,2.3326292037963867
324,42936,42934,-0.024014635011553764,-0.0006458230782300234,1.0253905057907104,-2.119361639022827,-12.941184997558594,3.562516450881958,2.228192090988159,4.128715991973877,0.3086944818496704,-0.19412168860435486,-0.749592125415802,2.3728396892547607
325,42946,42944,0.029414774850010872,-0.1276889443397522,1.0076929330825806,-4.536461353302002,-5.457520484924316,3.0739309787750244,2.2292020320892334,4.128214359283447,0.30845728516578674,-0.11510656774044037,-0.7926425337791443,2.3855249881744385
326,42956,42954,0.013231931254267693,-0.05576714873313904,0.9230573773384094,-7.763956546783447,-0.14172929525375366,2.039196014404297,2.2303175926208496,4.127640247344971,0.3082064986228943,-0.10078396648168564,-0.7916339039802551,2.4121968746185303
327,42966,42964,-0.015808695927262306,-0.06254164129495621,1.0825152397155762,-11.165742874145508,2.693207025527954,0.5951367020606995,2.2311644554138184,4.128698348999023,0.3089096248149872,-0.1722187101840973,-0.9472604990005493,2.4581167697906494
328,42976,42974,-0.006964471191167831,-0.020693711936473846,1.0710010528564453,-7.025867938995361,3.9686954021453857,-1.034562587738037,2.231462001800537,4.12920618057251,0.30877602100372314,-0.11071419715881348,-1.1310161352157593,2.4454972743988037
329,42986,42984,0.003948349040001631,-0.006422362755984068,1.0176546573638916,0.35074225068092346,6.468531608581543,-1.5939357280731201,2.2324886322021484,4.129546165466309,0.30861160159111023,-0.1666041910648346,-1.2318443059921265,2.4150543212890625
330,42996,42994,-0.046124108135700226,0.04429176449775696,0.9741617441177368,8.349481582641602,4.016428470611572,-1.4608306884765625,2.233369827270508,4.12825870513916,0.3062536418437958,-0.2668937146663666,-1.118306279182434,2.388108253479004
331,43006,43004,-0.05359639599919319,0.0032022115774452686,1.1315644979476929,10.71448802947998,3.408252477645874,-0.15075354278087616,2.233513116836548,4.127963066101074,0.30611154437065125,-0.2241634875535965,-0.9733599424362183,2.3796958923339844
332,43016,43014,0.0009949272498488426,-0.01930508390069008,1.0853466987609863,9.617161750793457,-2.0197224617004395,0.21689386665821075,2.235637664794922,4.130373954772949,0.30586957931518555,-0.4003376066684723,-1.018001675605774,2.427686929702759
333,43026,43024,0.015338490717113018,-0.09472925215959549,1.0070854425430298,1.3424221277236938,-4.127014636993408,0.457256019115448,2.2355899810791016,4.129677772521973,0.30461204051971436,-0.25665727257728577,-0.843786895275116,2.416743278503418
334,43036,43034,0.024408817291259766,-0.08599984645843506,0.9827646017074585,-7.272232532501221,-7.053513526916504,0.2686145305633545,2.235135078430176,4.129021644592285,0.3045855462551117,-0.0726964920759201,-0.8323291540145874,2.377535820007324
335,43046,43044,-0.03418051078915596,-0.004285914357751608,1.0412440299987793,-11.217748641967773,-3.0664799213409424,-1.1895008087158203,2.2364120483398438,4.129624843597412,0.3044729232788086,-0.024100380018353462,-0.9546803832054138,2.380873203277588
336,43056,43054,-0.01657211035490036,0.00849964376538992,1.0259065628051758,-9.775228500366211,-0.4931083917617798,-2.6735594272613525,2.2383337020874023,4.130720615386963,0.30428755283355713,-0.08927809447050095,-1.1195094585418701,2.4161288738250732
337,43066,43064,0.02254442125558853,-0.13282613456249237,1.0331895351409912,-5.618556022644043,1.964897632598877,-3.4042060375213623,2.2376506328582764,4.132501602172852,0.30524054169654846,-0.0006541297771036625,-1.2526397705078125,2.411630630493164
338,43076,43074,0.028432317078113556,-0.11267682909965515,0.9918283820152283,1.7678455114364624,2.8346288204193115,-3.7994017601013184,2.240638256072998,4.133547782897949,0.30523890256881714,-0.19442656636238098,-1.2270112037658691,2.4569027423858643
339,43086,43084,-0.017278650775551796,-0.16122163832187653,1.0753250122070312,9.686874389648438,-0.37472835183143616,-3.688755989074707,2.240813970565796,4.133559226989746,0.3053993284702301,-0.10839962959289551,-1.0713316202163696,2.395620822906494
340,43096,43094,0.000900068087503314,-0.20874138176441193,1.0583072900772095,15.993651390075684,3.096107244491577,-3.9426491260528564,2.241727113723755,4.132594585418701,0.30538901686668396,-0.02800247073173523,-0.9858295321464539,2.3228375911712646
341,43106,43104,0.046192362904548645,-0.08620379120111465,0.9497843980789185,14.90271282196045,2.467712879180908,-4.386929035186768,2.241201162338257,4.132033348083496,0.3055856227874756,-0.06476777046918869,-0.8217353224754333,2.297335147857666
342,43116,43114,-0.07387746125459671,0.11140010505914688,0.9854748845100403,8.52475643157959,5.100369453430176,-5.276163101196289,2.242962598800659,4.13413667678833,0.30557870864868164,-0.20342326164245605,-0.7716697454452515,2.2741706371307373
343,43126,43124,-0.016166506335139275,-0.11458049714565277,0.9902988076210022,-1.3453809022903442,2.0509567260742188,-6.900425910949707,2.243300199508667,4.134167194366455,0.301994651556015,-0.17003871500492096,-0.6756148338317871,2.224423408508301
344,43136,43134,-0.00046241647214628756,-0.14408208429813385,1.0055062770843506,-9.758794784545898,-3.4426608085632324,-8.835494995117188,2.2426199913024902,4.133906841278076,0.30195656418800354,-0.227370023727417,-0.734176754951477,2.1304025650024414
345,43146,43144,-0.012449521571397781,-0.15860596299171448,0.9948554039001465,-13.39030647277832,-6.403138160705566,-11.099784851074219,2.243746280670166,4.135219573974609,0.30179643630981445,-0.1894749104976654,-0.834640622138977,2.040424108505249
346,43156,43154,-0.0036631720140576363,0.007962439209222794,1.0332298278808594,-11.303927421569824,-5.055657386779785,-13.215777397155762,2.243511915206909,4.135809898376465,0.3017350435256958,-0.06879086047410965,-1.0160201787948608,1.938879132270813
347,43166,43164,-0.02812841534614563,0.004086144734174013,1.025408387184143,-5.446106433868408,-2.0813558101654053,-15.000044822692871,2.2440853118896484,4.136314868927002,0.30029699206352234,0.025549152866005898,-1.152021884918213,1.8058583736419678
348,43176,43174,-0.02026149071753025,-0.008260003291070461,1.007175326347351,3.3654801845550537,1.7537312507629395,-14.824382781982422,2.244805097579956,4.137095928192139,0.3002035617828369,0.06630528718233109,-1.172438144683838,1.6659841537475586
349,43186,43184,-0.010786069557070732,-0.038973618298769,1.0126184225082397,12.861810684204102,7.231184005737305,-14.582301139831543,2.247244358062744,4.137112617492676,0.3000534474849701,-0.12901464104652405,-1.0427271127700806,1.549365758895874
350,43196,43194,0.004849802237004042,-0.014042514376342297,0.9290499687194824,20.92746925354004,12.181879043579102,-14.688620567321777,2.247180461883545,4.136113166809082,0.3004143238067627,-0.07747650891542435,-0.7651909589767456,1.3825691938400269
351,43206,43204,-0.00570604158565402,0.0815250426530838,0.9500569105148315,25.328550338745117,15.268301010131836,-14.207204818725586,2.247586727142334,4.13482666015625,0.300287663936615,-0.23034189641475677,-0.4445170760154724,1.204799771308899
352,43216,43214,0.036678120493888855,-0.004735552705824375,0.9445750713348389,25.92333221435547,15.911012649536133,-14.008152961730957,2.248375415802002,4.137099742889404,0.3001389503479004,-0.4273330569267273,-0.4575401544570923,1.0196024179458618
353,43226,43224,-0.012021368369460106,-0.055396176874637604,1.0797054767608643,21.002105712890625,13.380228996276855,-14.489800453186035,2.2492635250091553,4.136043071746826,0.2977880835533142,-0.5960932970046997,-0.13108988106250763,0.8655268549919128
354,43236,43234,-0.02692766860127449,-0.17184700071811676,1.0572158098220825,13.542524337768555,10.429906845092773,-14.925371170043945,2.249427556991577,4.137051105499268,0.29744455218315125,-0.7038676738739014,-0.055254608392715454,0.6939200758934021
355,43246,43244,-0.040741704404354095,-0.07274700701236725,0.9586098790168762,8.61209774017334,9.292194366455078,-15.132070541381836,2.2499120235443115,4.136567115783691,0.29718440771102905,-0.782073438167572,0.1578640341758728,0.525444507598877
356,43256,43254,-0.031010525301098824,-0.007422338239848614,1.016029715538025,7.075745105743408,10.019963264465332,-14.144598960876465,2.2501752376556396,4.136385440826416,0.2993186414241791,-0.8529890179634094,0.2743816077709198,0.3546225130558014
357,43266,43264,0.0053811813704669476,-0.07536063343286514,1.0692657232284546,10.537474632263184,11.275420188903809,-11.98341178894043,2.2513389587402344,4.136637210845947,0.2991209030151367,-0.9822878837585449,0.3628501892089844,0.22024862468242645
358,43276,43274,-0.016639316454529762,-0.07539917528629303,1.0313345193862915,16.272838592529297,17.568758010864258,-9.692949295043945,2.2513718605041504,4.136592388153076,0.29909518361091614,-1.0538612604141235,0.507009744644165,0.08766026794910431
359,43286,43284,-0.018297862261533737,0.05595746636390686,0.9539990425109863,19.495363235473633,20.345129013061523,-6.474404335021973,2.2535669803619385,4.135974884033203,0.298932820558548,-1.3388434648513794,0.7576842308044434,0.0032417073380202055
360,43296,43294,-0.0077878800220787525,-0.037433329969644547,1.0898492336273193,15.235422134399414,13.04686164855957,-3.5829017162323,2.254467725753784,4.13761043548584,0.29934853315353394,-1.487542748451233,0.7999562621116638,-0.06908468902111053
361,43306,43304,0.02113259769976139,-0.10443446040153503,1.048741340637207,7.12738037109375,6.411541938781738,-2.0671424865722656,2.254354238510132,4.137877464294434,0.2994402050971985,-1.5689153671264648,0.9346254467964172,-0.10220355540513992
362,43316,43314,0.010174852795898914,-0.05008694902062416,0.9841032028198242,-1.4035378694534302,-1.5518602132797241,-0.7591384053230286,2.255253791809082,4.13676118850708,0.29942968487739563,-1.635912537574768,1.1668864488601685,-0.1038442999124527
363,43326,43324,-0.0027446828316897154,-0.02286858856678009,0.9934773445129395,-6.756865501403809,-10.515986442565918,1.24787175655365,2.2571866512298584,4.138845443725586,0.2974846661090851,-1.7034796476364136,0.9348891377449036,-0.14521217346191406
364,43336,43334,0.0029092507902532816,-0.08056783676147461,0.9857093095779419,-7.624998092651367,-17.530826568603516,2.6914703845977783,2.255740165710449,4.138421535491943,0.2977595627307892,-1.3732171058654785,0.8679103255271912,-0.1541791558265686
365,43346,43344,0.014950424432754517,0.013027223758399487,0.9545396566390991,-8.124489784240723,-21.322463989257812,3.4694664478302,2.255642890930176,4.138548851013184,0.297902375459671,-1.0407254695892334,0.7811228036880493,-0.13842804729938507
366,43356,43354,0.03809818997979164,0.029497386887669563,0.97525954246521,-7.019902229309082,-18.988479614257812,4.710583686828613,2.2585978507995605,4.137473106384277,0.29735448956489563,-1.141323208808899,0.7748342156410217,-0.16144700348377228
367,43366,43364,0.0522024929523468,0.04643769934773445,1.034258484840393,1.4302054643630981,-18.87786865234375,5.204747200012207,2.258484363555908,4.137319564819336,0.2974262237548828,-0.7759543061256409,0.7747761607170105,-0.10099436342716217
368,43376,43374,0.03328191116452217,0.0042908755131065845,1.0370479822158813,7.338952541351318,-17.771072387695312,4.349277496337891,2.2595481872558594,4.136045455932617,0.2973186671733856,-0.5872184038162231,0.9096608757972717,-0.044132109731435776
369,43386,43384,0.0017050940077751875,-0.04779450222849846,1.0917798280715942,13.919777870178223,-16.468408584594727,4.406689643859863,2.2625129222869873,4.136038780212402,0.2971513271331787,-0.6528162360191345,0.9176504015922546,-0.06988414376974106
370,43396,43394,0.025970840826630592,-0.012291986495256424,1.1046093702316284,11.40419864654541,-14.584163665771484,5.709085941314697,2.263916254043579,4.136225700378418,0.2985146641731262,-0.46723607182502747,1.0947775840759277,-0.013385425321757793
371,43406,43404,-0.0040243701077997684,-0.03175758942961693,1.0243303775787354,6.21453857421875,-11.1893892288208,4.692000389099121,2.264371395111084,4.13512659072876,0.2987354099750519,-0.23087868094444275,1.2939002513885498,0.041889552026987076
372,43416,43414,0.0025433050468564034,-0.024089530110359192,1.0118250846862793,1.5863914489746094,-9.75685977935791,5.450509548187256,2.2656939029693604,4.136052131652832,0.2988867461681366,-0.21818611025810242,1.239603877067566,0.04734881594777107
373,43426,43424,0.02061518095433712,-0.055472128093242645,1.0068162679672241,0.4108274281024933,-10.300155639648438,6.209417343139648,2.2670021057128906,4.136054039001465,0.29912564158439636,-0.14727027714252472,1.278298020362854,0.11577076464891434
374,43436,43434,0.02223561517894268,-0.06930875778198242,0.9779532551765442,-1.2646242380142212,-8.588815689086914,7.438968658447266,2.2701382637023926,4.136190414428711,0.29925474524497986,-0.22382472455501556,1.2850029468536377,0.16446492075920105
375,43446,43444,-0.00681944889947772,-0.033300865441560745,0.9946953654289246,-5.245534420013428,-9.284723281860352,7.565449237823486,2.270554542541504,4.137084007263184,0.29972222447395325,0.010634529404342175,1.180919885635376,0.25938916206359863
376,43456,43454,0.01691986247897148,-0.02525414526462555,1.0023179054260254,-5.3012237548828125,-6.133601188659668,7.36593770980835,2.271641969680786,4.13676643371582,0.29856064915657043,0.07591230422258377,1.0999860763549805,0.28986218571662903
377,43466,43464,0.011327230371534824,-0.037015363574028015,0.9690713286399841,-3.1337363719940186,-6.060855388641357,7.218070030212402,2.2743353843688965,4.136157035827637,0.298605352640152,0.027343621477484703,1.1080564260482788,0.33913320302963257
378,43476,43474,-0.016310516744852066,-0.022787325084209442,0.9545755982398987,-0.7738445997238159,-6.242522716522217,7.690927028656006,2.273715019226074,4.135708332061768,0.2989729642868042,0.31780916452407837,1.1457996368408203,0.45799440145492554
379,43486,43484,0.027638021856546402,-0.07344450801610947,1.003073811531067,0.12454459071159363,-5.857827663421631,7.174139499664307,2.2756519317626953,4.13571310043335,0.29903867840766907,0.32463154196739197,1.1232010126113892,0.5298423767089844
380,43496,43494,0.03873591125011444,-0.145399272441864,0.9428178071975708,1.0712960958480835,-6.207198143005371,6.914044380187988,2.2782537937164307,4.135493278503418,0.29828912019729614,0.25265800952911377,1.1178703308105469,0.5551282167434692
381,43506,43504,0.05635909363627434,-0.10626468062400818,0.8894848227500916,2.34793758392334,-6.821357250213623,7.130012035369873,2.2793874740600586,4.134703636169434,0.29828882217407227,0.3404175639152527,1.21015465259552,0.6302652955055237
382,43516,43514,-0.0020119096152484417,-0.02349381521344185,0.9771706461906433,-4.016591548919678,-6.171081066131592,7.05184268951416,2.280141830444336,4.133951187133789,0.2982657849788666,0.4534841477870941,1.219596028327942,0.6770299077033997
383,43526,43524,-0.009605971165001392,-0.01786274090409279,0.983133852481842,-16.96310043334961,-3.046225070953369,6.451756000518799,2.283348321914673,4.133474826812744,0.2985186278820038,0.3123323321342468,1.1956285238265991,0.6988227963447571
384,43536,43534,0.005098226014524698,7.910588465165347e-05,0.9850979447364807,-29.903194427490234,1.9467672109603882,5.848113536834717,2.2832388877868652,4.134631633758545,0.2986866533756256,0.518243134021759,0.861358106136322,0.7851594090461731
385,43546,43544,0.022944623604416847,-0.12056640535593033,0.9330573081970215,-33.45313262939453,5.779177188873291,5.860837459564209,2.2848098278045654,4.134903430938721,0.2985230088233948,0.48212680220603943,0.4905444383621216,0.8442946672439575
386,43556,43554,0.03806941956281662,-0.054232023656368256,0.9000172019004822,-26.789703369140625,11.141204833984375,6.668433666229248,2.2881598472595215,4.1340813636779785,0.2977314591407776,0.20199398696422577,0.2406662404537201,0.8494334816932678
387,43566,43564,0.007481756620109081,0.1050485372543335,0.9306327700614929,-15.09044075012207,13.86944580078125,5.956789493560791,2.2888500690460205,4.134028911590576,0.29754218459129333,0.18742386996746063,0.011336924508213997,0.9602746963500977
388,43576,43574,0.005212907679378986,0.1110873892903328,0.9599471092224121,-4.923224925994873,12.102688789367676,5.26872444152832,2.2896828651428223,4.134042263031006,0.29728269577026367,0.1288461685180664,-0.09386589378118515,1.056786298751831
389,43586,43584,0.013959156349301338,-0.01715891622006893,0.9967420101165771,1.9678258895874023,7.5734782218933105,3.781419038772583,2.29007625579834,4.132309913635254,0.29584792256355286,-0.009227845817804337,-0.04022684320807457,1.1097102165222168
390,43596,43594,0.0051470254547894,-0.030251869931817055,1.026178002357483,3.6665689945220947,1.9585883617401123,3.7095603942871094,2.290248394012451,4.13101053237915,0.2953498363494873,-0.051534783095121384,0.04303254559636116,1.1170740127563477
391,43606,43604,0.02874303236603737,-0.06495056301355362,0.9975430369377136,0.06816615909337997,-4.1289238929748535,3.6921868324279785,2.29172420501709,4.131626129150391,0.2948879301548004,-0.07778991013765335,0.054683901369571686,1.199812889099121
392,43616,43614,0.010435164906084538,-0.1603243350982666,1.1180461645126343,-3.3697617053985596,-9.51714038848877,2.4101686477661133,2.291313648223877,4.131781101226807,0.29457372426986694,0.08727052807807922,-0.009712206199765205,1.2636770009994507
393,43626,43624,0.025901522487401962,-0.10877986997365952,1.0142450332641602,-6.424480438232422,-11.129844665527344,2.3044376373291016,2.2920382022857666,4.131688594818115,0.29610365629196167,0.17475740611553192,-0.09945100545883179,1.2830653190612793
394,43636,43634,0.01464127842336893,-0.07449142634868622,1.059863805770874,-10.415075302124023,-8.750718116760254,1.741763949394226,2.2923977375030518,4.130120754241943,0.2958463728427887,0.2584537863731384,-0.09909845888614655,1.2742635011672974
395,43646,43644,0.017303861677646637,0.16705435514450073,0.8829950094223022,-9.784502983093262,-5.3619489669799805,0.14951179921627045,2.2955453395843506,4.130797863006592,0.2954285442829132,0.1387532502412796,-0.29358384013175964,1.3315030336380005
396,43656,43654,0.006876674015074968,0.13027018308639526,0.9367929697036743,-10.218716621398926,-2.241888999938965,-0.06527705490589142,2.2945823669433594,4.131019115447998,0.2965068817138672,0.2918179929256439,-0.4088771343231201,1.3297193050384521
397,43666,43664,0.009836961515247822,-0.0136075709015131,1.1135884523391724,-7.308419227600098,-9.441493034362793,-1.1506431102752686,2.2970385551452637,4.131033420562744,0.29603248834609985,0.15750062465667725,-0.454746276140213,1.3694448471069336
398,43676,43674,-0.014810185879468918,-0.05048785358667374,1.107209324836731,-0.4356258809566498,-13.027419090270996,-1.7894257307052612,2.295888662338257,4.129180431365967,0.296268105506897,0.4693036675453186,-0.4394438862800598,1.301401138305664
399,43686,43684,0.02891548164188862,-0.10988140106201172,1.0437486171722412,2.927731990814209,-15.030856132507324,-3.1619036197662354,2.2973151206970215,4.129141807556152,0.2971371114253998,0.5286687612533569,-0.4821014106273651,1.2851274013519287
400,43696,43694,0.005389274563640356,-0.0424528531730175,1.0411406755447388,3.0135395526885986,-15.07447624206543,-4.104590892791748,2.2999041080474854,4.128714084625244,0.29707464575767517,0.5488346219062805,-0.46187230944633484,1.2388697862625122
401,43706,43704,-0.015510744415223598,0.012184920720756054,1.1146190166473389,-1.2031337022781372,-16.488527297973633,-5.429836750030518,2.3009917736053467,4.127429485321045,0.29712173342704773,0.6479364037513733,-0.45071160793304443,1.1431068181991577
402,43716,43714,0.021062282845377922,0.010338314808905125,1.1194119453430176,-4.793618679046631,-16.498859405517578,-7.125060081481934,2.302121877670288,4.128275394439697,0.29743123054504395,0.8886545896530151,-0.5846524834632874,1.096137523651123
403,43726,43724,0.011148425750434399,0.05912189558148384,0.9953424334526062,-6.197790145874023,-15.688446044921875,-9.882469177246094,2.3047540187835693,4.127253532409668,0.29528549313545227,0.8848437070846558,-0.5904456377029419,0.9882344007492065
404,43736,43734,0.04425240308046341,-0.0900292694568634,1.0751912593841553,-6.9396281242370605,-14.552594184875488,-11.078219413757324,2.304537296295166,4.126004695892334,0.29578009247779846,1.2489627599716187,-0.5663266777992249,0.8488573431968689
405,43746,43744,0.012018678709864616,-0.23634254932403564,1.1044495105743408,-6.030472278594971,-11.387630462646484,-11.00301742553711,2.305774688720703,4.126385688781738,0.29608044028282166,1.419490098953247,-0.7152112722396851,0.7319976687431335
406,43756,43754,-0.022079775109887123,-0.019315611571073532,1.1075849533081055,-5.107990264892578,-8.2969388961792,-11.137557029724121,2.308180093765259,4.12558126449585,0.29706811904907227,1.374346375465393,-0.746488094329834,0.629432201385498
407,43766,43764,0.033771805465221405,0.07105079293251038,0.9644913673400879,-4.2123260498046875,-5.215707778930664,-11.328721046447754,2.309976100921631,4.125770092010498,0.29754817485809326,1.4311615228652954,-0.8342004418373108,0.510647714138031
408,43776,43774,-0.014004703611135483,0.07192765921354294,1.0620753765106201,-3.5905120372772217,-6.059830188751221,-11.30566120147705,2.3099822998046875,4.12575626373291,0.2982006072998047,1.6005264520645142,-0.8337053060531616,0.4109809994697571
409,43786,43784,-0.010420016013085842,-0.1341092735528946,1.1166352033615112,-3.4511637687683105,-0.26117265224456787,-12.049386024475098,2.3122901916503906,4.126847267150879,0.30153340101242065,1.5414981842041016,-0.980072557926178,0.3043850362300873
410,43796,43794,0.012372122146189213,0.06700024008750916,1.0287269353866577,-1.58926260471344,4.48650598526001,-12.100419044494629,2.3125417232513428,4.125485897064209,0.3025244176387787,1.617870807647705,-0.9552817344665527,0.1345314383506775
411,43806,43804,0.00527822645381093,-0.09280072152614594,1.0266802310943604,0.4619830846786499,5.861942291259766,-11.46289348602295,2.3150320053100586,4.126126766204834,0.3033152222633362,1.4907288551330566,-1.0541199445724487,0.029210012406110764
412,43816,43814,-0.022906433790922165,-0.04223531112074852,1.0929099321365356,0.9377910494804382,7.410913467407227,-12.237298011779785,2.3155152797698975,4.125489711761475,0.30442288517951965,1.5352343320846558,-0.9541933536529541,-0.1100708469748497
413,43826,43824,0.025154562667012215,0.07497217506170273,0.9151654243469238,4.054286003112793,13.48910903930664,-13.415742874145508,2.318025827407837,4.125411510467529,0.3021284341812134,1.2914410829544067,-0.9968868494033813,-0.2602682113647461
414,43836,43834,0.08285418897867203,0.1726187914609909,0.8452875018119812,7.035745143890381,10.91441822052002,-12.734244346618652,2.318899631500244,4.124920845031738,0.3029364049434662,1.2016545534133911,-0.8977439999580383,-0.41703420877456665
415,43846,43844,-0.0056624636054039,0.04124259203672409,0.9820183515548706,9.178335189819336,9.948199272155762,-11.289750099182129,2.320533037185669,4.124325275421143,0.30348673462867737,1.0077623128890991,-0.7632513046264648,-0.5452777147293091
416,43856,43854,-0.014728955924510956,-0.025322867557406425,0.969748854637146,11.076271057128906,6.556251049041748,-10.60560131072998,2.3212382793426514,4.124434471130371,0.3060496151447296,0.9893421530723572,-0.6748175024986267,-0.6659706830978394
417,43866,43864,-0.031124763190746307,-0.014273441396653652,0.9649932980537415,10.669907569885254,3.4337246417999268,-9.617117881774902,2.322342872619629,4.124903678894043,0.3066959083080292,0.9459933042526245,-0.6355014443397522,-0.7713403105735779
418,43876,43874,0.03288411349058151,-0.01722900941967964,0.9519272446632385,9.963634490966797,-2.2630388736724854,-7.7795538902282715,2.321942090988159,4.123739242553711,0.3074987232685089,1.0480973720550537,-0.44170942902565,-0.9597288370132446
419,43886,43884,0.028680900111794472,-0.10440149158239365,1.004417896270752,6.65753698348999,-4.18282413482666,-4.548231601715088,2.3233015537261963,4.12380838394165,0.3074500262737274,0.9947033524513245,-0.42970749735832214,-0.9937782883644104
420,43896,43894,-0.0012681380612775683,-0.01850823312997818,0.9953064918518066,4.170291423797607,1.7798982858657837,-3.3673834800720215,2.32393217086792,4.1230974197387695,0.30800092220306396,1.0029925107955933,-0.3880317509174347,-1.0866756439208984
421,43906,43904,0.01496610976755619,0.1267540007829666,0.903326690196991,6.117845058441162,7.4651103019714355,-1.591911792755127,2.3244755268096924,4.122753143310547,0.308472216129303,0.9162370562553406,-0.3663337230682373,-1.1453689336776733
422,43916,43914,0.052436474710702896,0.11266506463289261,0.8823798298835754,7.384554386138916,10.11357593536377,-0.1282452642917633,2.325106620788574,4.122647762298584,0.3100452125072479,0.8949037194252014,-0.3059638738632202,-1.1870794296264648
423,43926,43924,0.0909169390797615,0.020542796701192856,0.9252007603645325,7.0904340744018555,7.979721546173096,1.108343243598938,2.326118230819702,4.123608589172363,0.3103860914707184,0.6834535598754883,-0.31005632877349854,-1.1417834758758545
424,43936,43934,0.04224416986107826,-0.014417167752981186,0.9495562314987183,2.716810464859009,-0.008868295699357986,2.011463165283203,2.3249945640563965,4.123956680297852,0.3106931149959564,0.702677309513092,-0.25084608793258667,-1.1129248142242432
425,43946,43944,0.04916685074567795,0.015187198296189308,0.9091107249259949,-0.4763420820236206,-4.977697849273682,1.0635987520217896,2.325033664703369,4.123739719390869,0.3111558258533478,0.824317991733551,-0.18380729854106903,-1.125182867050171
426,43956,43954,0.00011719001486198977,0.08244287222623825,0.9114758372306824,-5.777827739715576,-10.353570938110352,1.5901689529418945,2.3262526988983154,4.124320030212402,0.3098592162132263,0.9012888669967651,-0.2674529254436493,-1.1197266578674316
427,43966,43964,-0.004069357644766569,0.016453474760055542,0.9825901985168457,-4.87894344329834,-9.598304748535156,0.2702036201953888,2.3271756172180176,4.126383304595947,0.30990028381347656,1.0269912481307983,-0.4850846529006958,-1.0789622068405151
428,43976,43974,0.032437440007925034,0.057813610881567,0.9445798397064209,1.666768193244934,-3.064265727996826,0.15491323173046112,2.329901933670044,4.124293327331543,0.3098866939544678,0.9488477110862732,-0.4094584882259369,-1.18197500705719
429,43986,43984,0.05644052103161812,-0.0003525808278936893,0.9607672095298767,9.720747947692871,3.263129949569702,1.3452116250991821,2.3309850692749023,4.124793529510498,0.3099134862422943,0.9178934097290039,-0.3044518828392029,-1.1321760416030884
430,43996,43994,0.024962132796645164,-0.03002874366939068,0.9783436059951782,14.352063179016113,8.467151641845703,1.9465559720993042,2.332064390182495,4.124949932098389,0.30985090136528015,0.8746854066848755,-0.15726913511753082,-1.1140908002853394
431,44006,44004,-0.0014285726938396692,-0.12542884051799774,1.0286285877227783,15.565641403198242,14.020682334899902,1.5026700496673584,2.332151174545288,4.1264567375183105,0.3097963333129883,0.8126589059829712,-0.03516128659248352,-1.0294041633605957
432,44016,44014,-0.049140337854623795,-0.12185141444206238,1.0501368045806885,13.787848472595215,16.08887481689453,0.10569384694099426,2.3339428901672363,4.126594543457031,0.3119156062602997,0.5878215432167053,0.18134991824626923,-0.9979150295257568
433,44026,44024,-0.08009728789329529,-0.01985936425626278,1.002063274383545,8.26008415222168,14.75305461883545,0.21736672520637512,2.334426164627075,4.127930164337158,0.31212177872657776,0.4976605176925659,0.28620997071266174,-0.9554970860481262
434,44036,44034,-0.03555580601096153,0.0048935809172689915,1.0095056295394897,3.5649240016937256,9.765191078186035,1.1162739992141724,2.3354814052581787,4.128940105438232,0.3123055398464203,0.3814089894294739,0.274543434381485,-0.946287989616394
435,44046,44044,0.014612624421715736,-0.11563043296337128,1.053680419921875,-1.2611074447631836,3.7835285663604736,2.2383835315704346,2.3356683254241943,4.128940105438232,0.312526136636734,0.359054297208786,0.25503411889076233,-0.9565574526786804
436,44056,44054,0.001702020992524922,-0.19266489148139954,1.0483919382095337,-1.1081657409667969,-2.655362844467163,3.870612621307373,2.3347952365875244,4.128793239593506,0.3120633661746979,0.44143611192703247,0.2774256765842438,-0.9182146191596985
437,44066,44064,-0.02476993389427662,0.01585032045841217,1.0236575603485107,5.67799711227417,0.6745370030403137,5.710704803466797,2.3360114097595215,4.128900051116943,0.3121812045574188,0.395627498626709,0.2728992998600006,-0.8815537095069885
438,44076,44074,0.0002893383498303592,0.08469239622354507,0.9953168630599976,13.539104461669922,-0.7009785771369934,6.564987659454346,2.33595871925354,4.129536151885986,0.31236475706100464,0.40817880630493164,0.28480905294418335,-0.8598948121070862
439,44086,44084,0.023271653801202774,0.040257878601551056,1.0177843570709229,22.603641510009766,-3.175579071044922,8.030893325805664,2.3372464179992676,4.129996299743652,0.31129223108291626,0.35165509581565857,0.3098645806312561,-0.8289412260055542
440,44096,44094,0.026417503133416176,-4.465672645892482e-06,0.9577544331550598,27.369361877441406,-4.915792465209961,9.397490501403809,2.336956262588501,4.1283698081970215,0.3114840090274811,0.42397016286849976,0.569631040096283,-0.8381227850914001
441,44106,44104,0.013734896667301655,0.014158318750560284,0.9017830491065979,28.74974822998047,-7.725841045379639,11.481372833251953,2.3364992141723633,4.127834320068359,0.3116048276424408,0.4642236530780792,0.8269150853157043,-0.7881287336349487
442,44116,44114,0.06317512691020966,-0.011118525639176369,0.9160922765731812,25.65203285217285,-6.353290557861328,12.19424057006836,2.3361144065856934,4.128237724304199,0.31248366832733154,0.624221920967102,1.1210176944732666,-0.6656801104545593
443,44126,44124,0.053869761526584625,-0.09264673292636871,0.999418318271637,15.116634368896484,-0.07853901386260986,13.091866493225098,2.3364992141723633,4.127538204193115,0.31250298023223877,0.6637007594108582,1.4343053102493286,-0.5828441977500916
444,44136,44134,0.06266181170940399,-0.032329052686691284,0.9078101515769958,4.7445902824401855,3.3558449745178223,12.929924011230469,2.3371875286102295,4.128085136413574,0.31252771615982056,0.7036106586456299,1.5762819051742554,-0.4554930627346039
445,44146,44144,0.03294220566749573,0.06294091790914536,0.9365772008895874,-6.706299781799316,8.441303253173828,12.365330696105957,2.338347911834717,4.128032207489014,0.31244683265686035,0.6593672633171082,1.7041338682174683,-0.33322209119796753
446,44156,44154,0.029274985194206238,0.0058862012811005116,0.9685227274894714,-13.292810440063477,4.735204696655273,11.886347770690918,2.339203357696533,4.130332946777344,0.3149806559085846,0.5406119227409363,1.4794741868972778,-0.17284506559371948
447,44166,44164,-0.005383066367357969,-0.05042390525341034,1.0040267705917358,-14.246904373168945,-1.1575497388839722,11.473546028137207,2.3394463062286377,4.130386829376221,0.3150300681591034,0.5467808842658997,1.3848105669021606,-0.09141868352890015
448,44176,44174,0.010099314153194427,-0.13956791162490845,0.9998559951782227,-12.822033882141113,-5.347048282623291,11.846614837646484,2.339792013168335,4.130669116973877,0.31504201889038086,0.5554978847503662,1.254328966140747,0.07078962028026581
449,44186,44184,-0.013019210658967495,-0.1147289127111435,1.0781487226486206,-7.3554863929748535,-6.0486979484558105,10.368287086486816,2.3415684700012207,4.131477355957031,0.31744280457496643,0.48320692777633667,1.0590667724609375,0.17663505673408508
450,44196,44194,-0.018441885709762573,-0.060743413865566254,1.029771089553833,-1.7311941385269165,-1.9174326658248901,9.244294166564941,2.3411316871643066,4.131276607513428,0.31774577498435974,0.7066348195075989,1.030633568763733,0.30817610025405884
451,44206,44204,-0.012138605117797852,0.09494957327842712,0.9723743200302124,3.2395262718200684,5.020439624786377,9.577417373657227,2.3425943851470947,4.131746292114258,0.3179175853729248,0.6213937401771545,1.0218809843063354,0.42071983218193054
452,44216,44214,-0.012311155907809734,0.0680931881070137,1.0049493312835693,5.564670562744141,8.644689559936523,9.992303848266602,2.3430917263031006,4.132312297821045,0.3170887529850006,0.6445159316062927,1.014048457145691,0.5253289341926575
453,44226,44224,-0.0701214149594307,0.025568192824721336,1.0144044160842896,7.124228477478027,6.392909049987793,10.577272415161133,2.3429114818573,4.133059978485107,0.31731516122817993,0.5908056497573853,1.120450735092163,0.7009676694869995
454,44236,44234,-0.010895664803683758,-0.1026974469423294,1.0406855344772339,6.893298625946045,4.162265777587891,12.273404121398926,2.342991352081299,4.132725238800049,0.31749576330184937,0.5659570097923279,1.2531030178070068,0.853218674659729
455,44246,44244,0.004057076293975115,-0.05532779172062874,1.0861870050430298,2.1175220012664795,0.4211711287498474,12.547186851501465,2.343750238418579,4.132232189178467,0.3176310956478119,0.48545578122138977,1.3739631175994873,0.9286066293716431
456,44256,44254,0.005463734269142151,-0.07606366276741028,1.061889410018921,-9.962502479553223,-6.579820156097412,12.736467361450195,2.343392848968506,4.132498741149902,0.31834980845451355,0.5477564334869385,1.406111240386963,1.0829596519470215
457,44266,44264,0.06298793107271194,-0.0865183100104332,0.904443621635437,-19.528072357177734,-10.310811042785645,11.376800537109375,2.343956232070923,4.133378505706787,0.3187306225299835,0.5532642602920532,1.2602686882019043,1.2186884880065918
458,44276,44274,-0.012576327659189701,0.025509320199489594,0.9675769209861755,-23.25597381591797,-8.75339412689209,10.904339790344238,2.3437912464141846,4.1340861320495605,0.3190733790397644,0.7053976058959961,1.0318735837936401,1.3523826599121094
459,44286,44284,-0.01938915066421032,-0.170188307762146,0.9714130759239197,-19.013973236083984,-2.2676703929901123,10.87861156463623,2.3451244831085205,4.133822441101074,0.31845954060554504,0.684219241142273,0.8078975081443787,1.4234750270843506
460,44296,44294,-0.05371139943599701,-0.009452001191675663,0.9836971759796143,-13.405348777770996,1.698639988899231,10.354496955871582,2.3444952964782715,4.133419513702393,0.3187316656112671,0.8317593932151794,0.6440387964248657,1.558488130569458
461,44306,44304,-0.023240305483341217,0.023464402183890343,0.9821211099624634,-7.009037971496582,7.550487041473389,9.877328872680664,2.345924139022827,4.132871627807617,0.31888502836227417,0.728583574295044,0.561302125453949,1.6371876001358032
462,44316,44314,0.00935500767081976,0.01769190840423107,0.9741051197052002,2.1440203189849854,15.030838966369629,9.999720573425293,2.346174955368042,4.133443355560303,0.31670325994491577,0.6834700703620911,0.49917811155319214,1.8009768724441528
463,44326,44324,0.008575757034122944,-0.041506145149469376,0.9773145914077759,5.115067481994629,22.303951263427734,9.754463195800781,2.3473079204559326,4.133450984954834,0.3166651129722595,0.505115807056427,0.49525186419487,1.9041990041732788
464,44336,44334,0.01656462997198105,0.01521430816501379,0.967654824256897,6.6110358238220215,26.40487289428711,9.701053619384766,2.3482542037963867,4.13301944732666,0.3166544437408447,0.29179924726486206,0.5611103773117065,1.9919323921203613
465,44346,44344,0.0352015420794487,-0.021498486399650574,0.939062237739563,6.179531097412109,23.31517791748047,9.991436004638672,2.348818778991699,4.131907939910889,0.31801700592041016,0.012177246622741222,0.6544111967086792,2.0574183464050293
466,44356,44354,0.018244681879878044,-0.04217268526554108,0.9690756797790527,-0.17360684275627136,22.362457275390625,8.238201141357422,2.3491809368133545,4.1315388679504395,0.3179916739463806,-0.2163689285516739,0.7406964898109436,2.160966396331787
467,44366,44364,-0.03409167379140854,0.03135333210229874,0.9725505113601685,-7.13397741317749,17.592100143432617,8.130104064941406,2.3486087322235107,4.131453037261963,0.31808578968048096,-0.3486257493495941,0.7317088842391968,2.263838052749634
468,44376,44374,-0.0558808408677578,0.010514214634895325,0.9655190110206604,-11.901779174804688,8.511239051818848,8.65056324005127,2.3480889797210693,4.131269931793213,0.31814202666282654,-0.4334593713283539,0.680238664150238,2.353252649307251
469,44386,44384,-0.08111346513032913,0.05006151646375656,0.9761460423469543,-10.828186988830566,0.44245463609695435,9.82005500793457,2.3493664264678955,4.132142543792725,0.3172798454761505,-0.6185265183448792,0.46362078189849854,2.4254062175750732
470,44396,44394,-0.07055484503507614,0.10495930910110474,1.0590527057647705,-8.036558151245117,-5.726333141326904,11.368119239807129,2.349006414413452,4.129940509796143,0.31719690561294556,-0.5882411599159241,0.5023220181465149,2.500993490219116
471,44406,44404,-0.005291287787258625,-0.002996264025568962,0.9887874722480774,-8.689529418945312,-7.03549337387085,12.268438339233398,2.3499677181243896,4.130021572113037,0.31699323654174805,-0.5276525616645813,0.31825774908065796,2.765631914138794
472,44416,44414,0.05373505875468254,-0.13334113359451294,0.9732639193534851,-9.811888694763184,-6.886391639709473,11.834367752075195,2.349851131439209,4.130483150482178,0.31562212109565735,-0.4800112545490265,0.2304268181324005,2.740196466445923
473,44426,44424,0.02730480208992958,-0.033318012952804565,0.9813384413719177,-13.114445686340332,-5.788843631744385,12.430380821228027,2.3501298427581787,4.129167556762695,0.315430611371994,-0.37872397899627686,0.27999067306518555,2.8683414459228516
474,44436,44434,-0.11008080840110779,0.13933567702770233,0.961359977722168,-14.69406795501709,1.0800793170928955,12.756909370422363,2.3516347408294678,4.127523422241211,0.31509876251220703,-0.45216473937034607,0.19469282031059265,2.9398984909057617
475,44446,44444,-0.048931609839200974,0.07037144154310226,1.0268553495407104,-14.607803344726562,5.033760070800781,13.009263038635254,2.350918769836426,4.1280059814453125,0.3149515390396118,-0.38473260402679443,-0.007855359464883804,3.091953992843628
476,44456,44454,0.005140482913702726,0.013729609549045563,1.0856060981750488,-14.817472457885742,9.499109268188477,11.908622741699219,2.351834774017334,4.127959728240967,0.3146413564682007,-0.46809908747673035,-0.14547371864318848,3.2641942501068115
477,44466,44464,0.07079020887613297,-0.061405032873153687,0.9121281504631042,-11.61521053314209,13.197327613830566,9.686927795410156,2.353471517562866,4.128115653991699,0.31433922052383423,-0.6339421272277832,-0.27764904499053955,3.3999838829040527
478,44476,44474,0.031915921717882156,-0.002910807030275464,0.9535800814628601,-13.746106147766113,13.273711204528809,9.32766342163086,2.3542189598083496,4.1280059814453125,0.3140738308429718,-0.7696450352668762,-0.4475911557674408,3.4872727394104004
479,44486,44484,0.0746118426322937,-0.10427965968847275,0.9600215554237366,-13.301719665527344,14.01804256439209,10.692039489746094,2.354886054992676,4.126102924346924,0.31344035267829895,-0.8941230177879333,-0.48005208373069763,3.5525567531585693
480,44496,44494,0.11237142980098724,-0.11113303154706955,0.9393343329429626,-19.80790138244629,4.815975666046143,9.823249816894531,2.3553037643432617,4.1276164054870605,0.31309252977371216,-0.9985052943229675,-0.6670064330101013,3.738452672958374
481,44506,44504,0.004340422805398703,-0.08480335772037506,0.9866353869438171,-24.195894241333008,-5.751021862030029,8.269335746765137,2.3554818630218506,4.127797603607178,0.3127674162387848,-0.9926245212554932,-0.9400267004966736,3.8058972358703613
