,timestamp_start,timestamp_end,acc.x,acc.y,acc.z,gyro.x,gyro.y,gyro.z,stateEstimate.x,stateEstimate.y,stateEstimate.z,stabilizer.pitch,stabilizer.roll,stabilizer.yaw
0,48633,48630,-0.04326929897069931,0.11097726970911026,0.9297561049461365,12.407313346862793,5.251626968383789,0.5119352340698242,1.874527096748352,3.863189697265625,0.16880857944488525,0.9066702127456665,-0.844124436378479,1.4660470485687256
1,48643,48640,-0.00991860032081604,-0.032541461288928986,1.093867540359497,8.708759307861328,6.880163192749023,-0.5447657108306885,1.8689736127853394,3.8634192943573,0.16977457702159882,2.0102243423461914,-0.7199202179908752,1.3947256803512573
2,48653,48650,-0.03237367793917656,0.005419968161731958,1.0144429206848145,5.642331600189209,10.950218200683594,0.7127588987350464,1.8693501949310303,3.863680362701416,0.17154461145401,1.7632297277450562,-0.5105584859848022,1.3856227397918701
3,48663,48660,0.01004392933100462,0.03689838945865631,0.978482723236084,2.977308988571167,20.322519302368164,1.3865830898284912,1.870070219039917,3.8647053241729736,0.1738821417093277,1.4584927558898926,-0.3708950877189636,1.3842941522598267
4,48673,48670,0.0021391978953033686,0.052349355071783066,1.070727825164795,1.502310872077942,27.399511337280273,1.9431579113006592,1.8701356649398804,3.8647665977478027,0.17577534914016724,1.1302906274795532,-0.2822116017341614,1.3952912092208862
5,48683,48680,-0.004548980388790369,-0.0012723770923912525,1.1170430183410645,3.5028014183044434,30.559282302856445,1.3563835620880127,1.8707311153411865,3.8660290241241455,0.17627361416816711,0.7840368747711182,-0.29065048694610596,1.4218602180480957
6,48693,48690,0.052841007709503174,-0.16036535799503326,1.170644998550415,4.404709815979004,29.244369506835938,1.5054211616516113,1.87160062789917,3.8666536808013916,0.17808659374713898,0.22245004773139954,-0.061305854469537735,1.4167343378067017
7,48703,48700,0.09262903779745102,-0.2185165137052536,1.1875685453414917,7.622941493988037,21.389612197875977,1.0508421659469604,1.8681676387786865,3.8668320178985596,0.1802741289138794,0.4440793991088867,-0.14844653010368347,1.4320907592773438
8,48713,48710,0.04269273951649666,-0.0974385142326355,1.1238080263137817,6.980248928070068,13.536194801330566,1.9200459718704224,1.8687318563461304,3.8669776916503906,0.1825900375843048,0.007740148808807135,-0.09143353253602982,1.4530807733535767
9,48723,48720,0.028423462063074112,-0.07628472149372101,1.1351468563079834,8.122133255004883,6.961906433105469,1.5930930376052856,1.8687924146652222,3.867467164993286,0.1841154545545578,-0.25663435459136963,0.0622931644320488,1.467119812965393
10,48733,48730,0.015991726890206337,-0.03503848984837532,1.057502031326294,6.684087753295898,1.8725922107696533,1.4850648641586304,1.8690098524093628,3.8678996562957764,0.18625110387802124,-0.3967788815498352,0.13865214586257935,1.4837825298309326
11,48743,48740,0.0070367553271353245,-0.016667524352669716,1.0226311683654785,3.4752233028411865,-0.7540134787559509,1.678632140159607,1.86797297000885,3.868342638015747,0.18840646743774414,-0.5248871445655823,0.18567845225334167,1.4994622468948364
12,48753,48750,0.005588502157479525,-0.21480707824230194,1.136304497718811,0.6209614276885986,-3.601595640182495,1.5385488271713257,1.8685885667800903,3.870360851287842,0.1883401721715927,-0.5818310976028442,0.10419144481420517,1.5133126974105835
13,48763,48760,0.005963269621133804,-0.16096246242523193,1.1019768714904785,1.1410168409347534,-3.8296310901641846,1.6847401857376099,1.8695827722549438,3.869222640991211,0.19061972200870514,-0.5877161026000977,0.30035629868507385,1.5341688394546509
14,48773,48770,0.004461074713617563,0.1070527583360672,0.9524610042572021,-0.12226328998804092,-3.3971433639526367,1.1643630266189575,1.8701398372650146,3.8692126274108887,0.19299283623695374,-0.5853523015975952,0.25103798508644104,1.5468653440475464
15,48783,48780,0.008170660585165024,0.12616367638111115,0.9933090209960938,-2.609002113342285,-5.717755317687988,1.0684177875518799,1.871121883392334,3.8701837062835693,0.19479738175868988,-0.791049599647522,0.19197435677051544,1.546978235244751
16,48793,48790,0.004712902009487152,-0.10262439399957657,1.0175029039382935,-0.827750027179718,-5.024458408355713,1.0933609008789062,1.870819091796875,3.8698790073394775,0.19730477035045624,-0.6491953134536743,0.550728976726532,1.598122000694275
17,48803,48800,0.020180456340312958,-0.04875825718045235,1.029909610748291,0.8178724646568298,-3.593207836151123,1.0531487464904785,1.8697298765182495,3.870698928833008,0.19980771839618683,-0.4434717297554016,0.5099648833274841,1.6135284900665283
18,48813,48810,-0.000597914622630924,-0.021910522133111954,0.9862075448036194,-1.6757395267486572,-4.367166519165039,0.9773880243301392,1.8712732791900635,3.8704843521118164,0.20129838585853577,-0.41015592217445374,1.13447105884552,1.690088152885437
19,48823,48820,0.0013566548004746437,-0.0015486052725464106,0.9738506078720093,-4.557593822479248,-3.375453233718872,0.15915246307849884,1.8705158233642578,3.8828752040863037,0.2087247669696808,-0.3708234429359436,-0.8313875794410706,1.4774541854858398
20,48833,48830,-0.002763067139312625,-0.023622440174221992,0.9837669730186462,-10.424705505371094,-0.8668043613433838,1.4716333150863647,1.8715031147003174,3.8843092918395996,0.21201437711715698,-0.4934653043746948,-0.7581163644790649,1.4863338470458984
21,48843,48840,-0.011318576522171497,0.05533142760396004,1.021896481513977,-6.12158727645874,1.5675828456878662,0.6320396661758423,1.8716628551483154,3.8865902423858643,0.21505919098854065,-0.4935658872127533,-0.7659239768981934,1.5071805715560913
22,48853,48850,0.007778513245284557,0.020765405148267746,0.9502949714660645,4.4195237159729,2.4387247562408447,0.7931498289108276,1.8718146085739136,3.885798931121826,0.21550777554512024,-0.5283848643302917,-0.5752128958702087,1.546305775642395
23,48863,48860,-0.008727164939045906,0.03245878592133522,1.019317388534546,16.451311111450195,1.2847051620483398,0.7366148829460144,1.8738181591033936,3.888667583465576,0.21833249926567078,-0.6437561511993408,-0.3935791552066803,1.5747947692871094
24,48873,48870,0.015632059425115585,-0.03862724080681801,0.9550049901008606,26.405550003051758,-0.7611464262008667,-0.0076109422370791435,1.8755496740341187,3.8892290592193604,0.22092488408088684,-0.8713074922561646,-0.03826885670423508,1.6100274324417114
25,48883,48880,-0.011580663733184338,0.01091740932315588,1.008698582649231,29.215009689331055,-4.666042804718018,-1.5502277612686157,1.8759182691574097,3.890578269958496,0.2226913422346115,-0.8107225298881531,0.21358966827392578,1.6140450239181519
26,48893,48890,0.008352955803275108,0.029273636639118195,0.9663853049278259,23.531309127807617,-10.588053703308105,-1.8376519680023193,1.8764023780822754,3.8946237564086914,0.22528472542762756,-0.6846177577972412,0.43296438455581665,1.5950288772583008
27,48903,48900,0.0020100579131394625,-0.13073961436748505,1.0040628910064697,15.704800605773926,-15.034711837768555,-2.53979229927063,1.876352310180664,3.895303726196289,0.22777198255062103,-0.47460728883743286,0.7938068509101868,1.5948973894119263
28,48913,48910,0.03810855373740196,-0.05980890616774559,0.9427371621131897,3.682488441467285,-15.436352729797363,-3.3134870529174805,1.8717440366744995,3.8978450298309326,0.23015910387039185,0.4245551824569702,0.9990134835243225,1.6031314134597778
29,48923,48920,0.015800880268216133,0.017466630786657333,0.9246920347213745,-6.237117767333984,-11.96800422668457,-3.891291379928589,1.8789772987365723,3.89797043800354,0.23436449468135834,-0.4319893717765808,1.0898934602737427,1.5169355869293213
30,48933,48930,-0.016569077968597412,0.025438975542783737,0.9729450345039368,-12.082342147827148,-4.9390339851379395,-4.0365400314331055,1.871652364730835,3.899980068206787,0.23798568546772003,0.6408514380455017,0.8019089102745056,1.5199785232543945
31,48943,48940,-0.026159588247537613,-0.05684488266706467,0.9631597399711609,-14.008805274963379,3.7292187213897705,-4.641952991485596,1.8696407079696655,3.90065336227417,0.24001064896583557,0.867560088634491,0.8073102235794067,1.5030921697616577
32,48953,48950,0.10151766240596771,-0.024075837805867195,0.8920050263404846,-10.031060218811035,13.478625297546387,-5.028548717498779,1.8787459135055542,3.9010910987854004,0.24399414658546448,-0.37320995330810547,0.7000578045845032,1.3433036804199219
33,48963,48960,0.07870572060346603,-0.03762221708893776,0.8978599905967712,-2.5422611236572266,14.719715118408203,-3.8957645893096924,1.8828551769256592,3.9057981967926025,0.24579556286334991,-0.8270587921142578,0.36385244131088257,1.2442940473556519
34,48973,48970,0.01171920821070671,-0.03485114499926567,0.9282607436180115,4.749209880828857,18.676408767700195,-3.7809624671936035,1.8835951089859009,3.9051618576049805,0.24822482466697693,-0.9982514977455139,0.46362829208374023,1.2153986692428589
35,48983,48980,0.07124495506286621,0.008271753787994385,0.9354725480079651,12.866451263427734,3.3860464096069336,-4.075101375579834,1.883161187171936,3.9058425426483154,0.24511276185512543,-1.1430643796920776,0.5991243720054626,1.1927943229675293
36,48993,48990,0.018278108909726143,0.006866875570267439,0.9663119316101074,17.550981521606445,-14.26740550994873,-4.461348056793213,1.8816990852355957,3.9059901237487793,0.24748896062374115,-1.0054606199264526,0.908678412437439,1.2021740674972534
37,49003,49000,0.0022688275203108788,-0.04277893155813217,0.9252113699913025,17.470861434936523,-28.621477127075195,-4.627383232116699,1.8806300163269043,3.9039835929870605,0.24943549931049347,-0.6848863959312439,1.34019136428833,1.2134606838226318
38,49013,49010,-0.031022047623991966,-0.03438549116253853,0.8850193619728088,9.989465713500977,-36.64569854736328,-4.932551860809326,1.8778477907180786,3.903822422027588,0.2509632110595703,-0.15331104397773743,1.65675950050354,1.2125948667526245
39,49023,49020,-0.008206226862967014,0.0025044186040759087,0.892425000667572,-4.029172897338867,-34.926910400390625,-4.713624000549316,1.879775047302246,3.905391216278076,0.2528254985809326,0.016250789165496826,1.7528821229934692,1.1257100105285645
40,49033,49030,-0.017775999382138252,0.06399249285459518,0.9223740100860596,-18.904842376708984,-25.542098999023438,-4.980000019073486,1.8785502910614014,3.9072394371032715,0.2546824812889099,0.47077497839927673,1.6220462322235107,1.0708980560302734
41,49043,49040,-0.01624758541584015,0.10400877147912979,0.9223582148551941,-29.835289001464844,-13.720568656921387,-5.515347003936768,1.8792192935943604,3.908785104751587,0.256517231464386,0.7557084560394287,1.2604573965072632,0.9987713694572449
42,49053,49050,0.0018379102693870664,0.13598845899105072,0.9299845695495605,-32.854835510253906,1.210604190826416,-6.030179023742676,1.8809564113616943,3.9066522121429443,0.25442957878112793,0.6041262149810791,1.4948426485061646,0.9158063530921936
43,49063,49060,-0.014657563529908657,0.17880523204803467,0.8913383483886719,-28.603246688842773,11.395589828491211,-5.691909313201904,1.881588101387024,3.907283306121826,0.25589483976364136,0.7065630555152893,1.0208725929260254,0.8663572072982788
44,49073,49070,-0.003194746794179082,0.16174940764904022,0.8902761936187744,-20.867116928100586,14.856083869934082,-5.650321960449219,1.8825719356536865,3.905350685119629,0.2567242980003357,0.5681545734405518,1.0090726613998413,0.8089048862457275
45,49083,49080,0.035165030509233475,0.11879400163888931,0.9160628914833069,-13.345590591430664,13.986101150512695,-5.071417808532715,1.884200930595398,3.9063549041748047,0.2561269700527191,0.3813524842262268,0.7200698256492615,0.7480691075325012
46,49093,49090,0.06270421296358109,0.026604829356074333,0.9300400614738464,-6.891397476196289,7.250277519226074,-4.6616387367248535,1.884179711341858,3.906435012817383,0.2570251226425171,0.2944079339504242,0.5516329407691956,0.7055059671401978
47,49103,49100,0.03967655450105667,-0.06621211022138596,0.9597440361976624,-2.443671703338623,-2.3323612213134766,-4.270074844360352,1.8832322359085083,3.9047279357910156,0.25770506262779236,0.3176356554031372,0.5734299421310425,0.676250696182251
48,49113,49110,0.005830916576087475,-0.017119068652391434,0.9973030686378479,-2.349710702896118,-12.769408226013184,-3.037768840789795,1.8842397928237915,3.905463933944702,0.2588401138782501,0.39385098218917847,0.6436787247657776,0.6422524452209473
49,49123,49120,0.019786644726991653,0.059164952486753464,0.9895870089530945,-4.819584369659424,-11.118131637573242,-3.143854856491089,1.883593201637268,3.9059786796569824,0.2597430944442749,0.5154455304145813,0.46859490871429443,0.6136465668678284
50,49133,49130,0.0012951756361871958,-0.006785592995584011,0.9952639937400818,-11.065937995910645,-13.007143020629883,-2.4233040809631348,1.8857533931732178,3.908395528793335,0.2604668438434601,0.5976882576942444,0.40578946471214294,0.5801107287406921
51,49143,49140,0.0261301901191473,-0.011877699755132198,0.9475758075714111,-17.816417694091797,-10.607051849365234,-1.4685996770858765,1.8867663145065308,3.9094038009643555,0.2610521912574768,0.7573214173316956,0.40045082569122314,0.56147301197052
52,49153,49150,0.002119790529832244,0.008003012277185917,1.0120875835418701,-20.19979476928711,-3.664217948913574,-2.6050422191619873,1.8866840600967407,3.910590887069702,0.2624416947364807,0.8492799997329712,0.1317404955625534,0.546582818031311
53,49163,49160,-0.015568646602332592,0.10293503850698471,0.9839213490486145,-20.87712860107422,1.7573915719985962,-2.6323835849761963,1.8855867385864258,3.9109647274017334,0.2629753351211548,0.9944688677787781,0.05856888368725777,0.5250920057296753
54,49173,49170,0.03284837678074837,0.006768850609660149,0.9870769381523132,-19.03240966796875,6.079219818115234,-2.777082681655884,1.8855046033859253,3.9110536575317383,0.263743132352829,0.9622189402580261,-0.2599923014640808,0.5045193433761597
55,49183,49180,-0.008338632993400097,-0.0778086856007576,1.0579679012298584,-14.581090927124023,8.862314224243164,-2.5482540130615234,1.88657546043396,3.9156367778778076,0.26788172125816345,0.8581552505493164,-0.6690037846565247,0.4891898036003113
56,49193,49190,0.02500966750085354,-0.11257535219192505,1.067651391029358,-8.28031063079834,9.414657592773438,-3.541727066040039,1.8867942094802856,3.914656162261963,0.2688722014427185,0.8722221255302429,-0.52669757604599,0.44338640570640564
57,49203,49200,0.001055327826179564,-0.0238796453922987,1.0274183750152588,-3.157074451446533,8.37253475189209,-2.415039539337158,1.886752724647522,3.9149134159088135,0.26985061168670654,0.7182744741439819,-0.6095542907714844,0.4071083068847656
58,49213,49210,0.05026154965162277,-0.11569049954414368,1.033230185508728,-0.37721455097198486,5.3186163902282715,-2.1097238063812256,1.8859730958938599,3.9164934158325195,0.27325230836868286,0.7549196481704712,-0.597194492816925,0.37542983889579773
59,49223,49220,0.016901541501283646,-0.18855364620685577,1.0384777784347534,0.356083482503891,1.0192071199417114,-1.7325156927108765,1.885399580001831,3.9164891242980957,0.2745559811592102,0.6789656281471252,-0.7063109874725342,0.3631402254104614
60,49233,49230,0.000625407847110182,-0.0319492407143116,1.0326889753341675,-2.246472120285034,-1.7517879009246826,-0.6808289289474487,1.8854807615280151,3.915837049484253,0.27581071853637695,0.6670414209365845,-0.731842577457428,0.34848499298095703
61,49243,49240,0.04492940008640289,0.06520042568445206,1.0298627614974976,-6.244478702545166,-2.4890284538269043,-0.5071799159049988,1.8846361637115479,3.914849042892456,0.27703073620796204,0.7653226256370544,-0.7258429527282715,0.33549168705940247
62,49253,49250,0.07363782078027725,-0.09521250426769257,1.024907112121582,-7.92639684677124,-2.3988139629364014,-0.577995240688324,1.8845305442810059,3.9151387214660645,0.27593761682510376,0.7933282256126404,-0.7883129715919495,0.3304980993270874
63,49263,49260,0.060268428176641464,-0.11874347180128098,1.0019901990890503,-8.327451705932617,1.9843924045562744,-1.4067846536636353,1.8847662210464478,3.918675661087036,0.27733469009399414,0.7968467473983765,-0.9533059000968933,0.33911776542663574
64,49273,49270,-0.030512569472193718,0.04511554166674614,0.9866988658905029,-8.988765716552734,3.9764723777770996,-1.1292122602462769,1.8845572471618652,3.917663335800171,0.27856189012527466,0.7477808594703674,-0.9561249613761902,0.3267190456390381
65,49283,49280,-0.009960916824638844,0.015060056932270527,0.9920450448989868,-6.890289306640625,6.33234977722168,0.3372918963432312,1.8855326175689697,3.9189236164093018,0.2841656804084778,0.6736978888511658,-1.1200278997421265,0.33201566338539124
66,49293,49290,0.022429313510656357,0.02778354473412037,0.9433956146240234,-4.124956130981445,11.90174674987793,-0.2559940814971924,1.8861433267593384,3.918245792388916,0.28560054302215576,0.6095646023750305,-1.0836762189865112,0.32993414998054504
67,49303,49300,0.02117343246936798,0.18489594757556915,0.900757372379303,-1.5501086711883545,4.986103057861328,1.0248256921768188,1.8857821226119995,3.9183461666107178,0.28688865900039673,0.5801865458488464,-1.005355715751648,0.3110356032848358
68,49313,49310,0.008560492657124996,0.024810701608657837,0.9581152200698853,0.9677989482879639,7.2044997215271,0.14920896291732788,1.885455846786499,3.9194977283477783,0.2899322807788849,0.5175842642784119,-1.1159274578094482,0.3257443606853485
69,49323,49320,0.04057605564594269,0.01581263355910778,0.9092115759849548,-0.23927854001522064,3.1469802856445312,0.41841551661491394,1.8855276107788086,3.919280529022217,0.2912551164627075,0.4680054485797882,-1.047405481338501,0.32667961716651917
70,49333,49330,0.028050586581230164,-0.0034801517613232136,0.9428613781929016,-2.520489454269409,3.5556421279907227,0.29979270696640015,1.8859986066818237,3.920842409133911,0.2925918996334076,0.45306867361068726,-1.087059497833252,0.3302777409553528
71,49343,49340,0.029190335422754288,0.07227740436792374,0.9481329321861267,-4.381223201751709,1.3928722143173218,0.9157072901725769,1.8870093822479248,3.9229865074157715,0.29400086402893066,0.37005019187927246,-1.232485055923462,0.354333758354187
72,49353,49350,0.01838952861726284,0.0289293359965086,0.954906165599823,-6.014838218688965,0.26978662610054016,1.0684837102890015,1.8865864276885986,3.9225053787231445,0.2948648929595947,0.32454198598861694,-1.2334669828414917,0.35940951108932495
73,49363,49360,0.014025934971868992,-0.02674015797674656,0.9334231615066528,-5.997652053833008,0.09023699909448624,1.4313784837722778,1.8867597579956055,3.9228200912475586,0.2960829734802246,0.288268506526947,-1.4057167768478394,0.38014644384384155
74,49373,49370,0.007143890485167503,-0.031025173142552376,0.9487943053245544,-4.513521194458008,-0.01628866046667099,1.4388407468795776,1.8869601488113403,3.9217395782470703,0.2972172200679779,0.26397818326950073,-1.410570502281189,0.39474767446517944
75,49383,49380,-0.0003571057750377804,-0.029875261709094048,0.9482806921005249,-1.0689376592636108,0.7234407663345337,1.6561198234558105,1.8862996101379395,3.921175241470337,0.29854050278663635,0.3144403100013733,-1.3781132698059082,0.3979344964027405
76,49393,49390,0.003353043692186475,-0.025302516296505928,0.945671558380127,2.594862222671509,1.138121247291565,1.8320860862731934,1.887332558631897,3.9222867488861084,0.2996492385864258,0.27503517270088196,-1.4450966119766235,0.4281114935874939
77,49403,49400,0.0005234777345322073,-0.01910080946981907,0.9448873400688171,5.392910957336426,1.589113712310791,1.930155873298645,1.886830449104309,3.9223673343658447,0.30068066716194153,0.31075215339660645,-1.3702470064163208,0.4371403753757477
78,49413,49410,0.0020261139143258333,-0.031173985451459885,0.9362372756004333,6.89696741104126,2.348952293395996,2.4463906288146973,1.8877158164978027,3.923915147781372,0.3024615943431854,0.2559683322906494,-1.3355213403701782,0.4729095697402954
79,49423,49420,-0.002839047694578767,-0.0105011947453022,0.9418213963508606,7.1437273025512695,0.9571212530136108,2.1440205574035645,1.8863784074783325,3.923377275466919,0.30339527130126953,0.35624128580093384,-1.196285367012024,0.4728129804134369
80,49433,49430,-0.015972595661878586,-0.020524779334664345,0.9552104473114014,3.8628318309783936,1.8326539993286133,2.3303263187408447,1.8886855840682983,3.924975872039795,0.3044309616088867,0.13003306090831757,-1.158645749092102,0.5314082503318787
81,49443,49440,-0.022939303889870644,0.10868144035339355,0.9537602663040161,1.3092714548110962,1.516497015953064,2.2697553634643555,1.886399507522583,3.9258205890655518,0.30520451068878174,0.31486183404922485,-1.2376257181167603,0.5293362736701965
82,49453,49450,-0.005387400276958942,0.17938360571861267,0.9362446665763855,-1.531435489654541,1.8726505041122437,2.2483627796173096,1.8863886594772339,3.926861524581909,0.30594903230667114,0.39935076236724854,-1.1183781623840332,0.5336201190948486
83,49463,49460,0.010307063348591328,0.1728661209344864,0.9307301640510559,-2.2076592445373535,2.8520636558532715,2.146528482437134,1.8867987394332886,3.9259512424468994,0.3067147433757782,0.31089460849761963,-1.1228446960449219,0.5679011940956116
84,49473,49470,0.012254779227077961,0.12133569270372391,0.947468638420105,-1.177034854888916,4.211768627166748,1.2663724422454834,1.8870599269866943,3.926142930984497,0.3074176609516144,0.20665723085403442,-1.2018400430679321,0.5994167327880859
85,49483,49480,-0.0010975019540637732,-0.07421071827411652,0.9657130241394043,0.1091519221663475,4.834429740905762,1.0161728858947754,1.8866474628448486,3.9273314476013184,0.3074873983860016,0.16653983294963837,-1.2579354047775269,0.6106902360916138
86,49493,49490,-0.01577635295689106,-0.07067909091711044,0.9711092114448547,2.660649299621582,5.378073692321777,1.1296720504760742,1.8863147497177124,3.9280638694763184,0.3080304265022278,0.11311798542737961,-1.2763279676437378,0.6203622221946716
87,49503,49500,-0.00021113957336638123,0.04854224622249603,0.9909063577651978,4.876514434814453,5.097224712371826,1.0348719358444214,1.884520173072815,3.928921937942505,0.30846884846687317,0.2129506766796112,-1.2490296363830566,0.6054316163063049
88,49513,49510,0.006277890410274267,0.007819619961082935,0.9720266461372375,6.354619026184082,4.855350017547607,1.4732589721679688,1.8859084844589233,3.9308149814605713,0.3070850968360901,0.0654481053352356,-1.1930686235427856,0.6387110948562622
89,49523,49520,-0.012662089429795742,0.055904727429151535,0.9725068211555481,7.951119422912598,5.552351951599121,0.8617907762527466,1.8861677646636963,3.9312071800231934,0.30743762850761414,0.011363244615495205,-1.1060163974761963,0.6528111100196838
90,49533,49530,0.005908138118684292,-0.013589517213404179,0.9628114700317383,7.750527381896973,6.1784539222717285,0.3949706554412842,1.8859835863113403,3.9303970336914062,0.30774804949760437,-0.051948778331279755,-1.0063416957855225,0.6652781367301941
91,49543,49540,0.0026001990772783756,0.05948175862431526,0.9598400592803955,7.093092918395996,6.428018093109131,0.6852890849113464,1.8849385976791382,3.9305503368377686,0.3048288822174072,-0.0435076542198658,-0.9083906412124634,0.6598454117774963
92,49553,49550,-0.01362674217671156,0.024896573275327682,0.9665709137916565,5.817480087280273,5.743020057678223,0.9743987321853638,1.8854727745056152,3.9311180114746094,0.30486851930618286,-0.20464666187763214,-0.8174236416816711,0.6807767748832703
93,49563,49560,-0.002891345415264368,-0.0561613105237484,0.9670179486274719,4.461703777313232,5.258770942687988,0.7044048309326172,1.8858298063278198,3.9313695430755615,0.3048401474952698,-0.3443402349948883,-0.7533814907073975,0.700437605381012
94,49573,49570,0.002235888270661235,-0.04271557927131653,0.9698821902275085,2.681136131286621,5.789120197296143,0.4265708327293396,1.8847004175186157,3.932410955429077,0.3048582971096039,-0.3072817921638489,-0.7914155125617981,0.6920123100280762
95,49583,49580,0.04984983056783676,0.04861128702759743,0.9983512163162231,1.0102131366729736,3.7779767513275146,0.20384234189987183,1.88510000705719,3.9335224628448486,0.3077404201030731,-0.35969558358192444,-0.6919735670089722,0.7070075273513794
96,49593,49590,0.015061723999679089,-0.00659960275515914,0.9872764348983765,-0.2920776903629303,2.868805170059204,0.5389746427536011,1.8844997882843018,3.933297634124756,0.307843953371048,-0.3816518187522888,-0.7093372344970703,0.7058519721031189
97,49603,49600,-0.0350508950650692,0.045293428003787994,0.9382769465446472,2.3336479663848877,1.0870927572250366,0.48351502418518066,1.88181471824646,3.934051275253296,0.307873010635376,-0.29634392261505127,-0.7942598462104797,0.6808974146842957
98,49613,49610,-0.07285363972187042,0.20013955235481262,0.9192328453063965,3.9077157974243164,0.3938715159893036,0.489926278591156,1.881890058517456,3.9338011741638184,0.3096987009048462,-0.3697620630264282,-0.7644018530845642,0.6924756765365601
99,49623,49620,-0.01985178515315056,0.12894406914710999,0.9596416354179382,4.323330402374268,0.6116778254508972,0.4865034520626068,1.8820219039916992,3.934152364730835,0.3097726106643677,-0.43119996786117554,-0.7079231142997742,0.7037115097045898
100,49633,49630,-0.027237175032496452,0.057799797505140305,1.0227785110473633,6.356611728668213,0.28777435421943665,0.429867148399353,1.8810311555862427,3.9336376190185547,0.30980366468429565,-0.33706632256507874,-0.6230862140655518,0.6987673044204712
101,49643,49640,-0.011256820522248745,-0.10520841181278229,1.0147138833999634,9.08708667755127,-0.9066507816314697,0.6034215092658997,1.8803164958953857,3.934447765350342,0.30814939737319946,-0.33711105585098267,-0.6610903739929199,0.6904417276382446
102,49653,49650,-0.08416091650724411,-0.09083666652441025,1.0696325302124023,8.105365753173828,-0.009357803501188755,0.5201394557952881,1.8799937963485718,3.9341068267822266,0.30815449357032776,-0.33235034346580505,-0.5122067332267761,0.7034041881561279
103,49663,49660,-0.057375095784664154,-0.033500730991363525,1.000466227531433,7.405107021331787,1.9114599227905273,0.00966496579349041,1.878322958946228,3.9340343475341797,0.30817779898643494,-0.2604764401912689,-0.3877132833003998,0.7007013559341431
104,49673,49670,-0.031099161133170128,0.0014355836901813745,0.9702368378639221,4.467049598693848,3.4875972270965576,-0.19612309336662292,1.8782761096954346,3.934277296066284,0.30829954147338867,-0.37448006868362427,-0.28552934527397156,0.7066655158996582
105,49683,49680,-0.014845584519207478,0.018546201288700104,1.03132963180542,1.5237913131713867,7.61189603805542,-1.3975731134414673,1.8779288530349731,3.9349067211151123,0.3085595667362213,-0.4278908669948578,-0.23418903350830078,0.7034605145454407
106,49693,49690,0.05525333061814308,-0.07582981139421463,0.9546540379524231,-0.7489979863166809,5.116614818572998,-1.2622184753417969,1.8766499757766724,3.935239315032959,0.30857959389686584,-0.42646685242652893,-0.3279079496860504,0.6892391443252563
107,49703,49700,0.008773714303970337,-0.010788208805024624,0.9911933541297913,-0.47684550285339355,3.269071578979492,-1.1243371963500977,1.8781808614730835,3.937734365463257,0.3086743950843811,-0.5473662614822388,-0.3450269401073456,0.6788901686668396
108,49713,49710,-0.005353568121790886,-0.039569657295942307,0.9956892132759094,0.9682720303535461,1.3429436683654785,-1.4592093229293823,1.8786548376083374,3.9398999214172363,0.3095369040966034,-0.5519744753837585,-0.35305044054985046,0.6746386885643005
109,49723,49720,0.043282557278871536,0.026052137836813927,0.8857069611549377,3.4816367626190186,3.2090086936950684,-1.7594788074493408,1.8769257068634033,3.942155122756958,0.30962473154067993,-0.5363659858703613,-0.3139927089214325,0.6441086530685425
110,49733,49730,0.08723806589841843,-0.017977610230445862,0.9352530837059021,4.2997212409973145,3.441873788833618,-1.2392653226852417,1.8770601749420166,3.943141222000122,0.30957743525505066,-0.6074080467224121,-0.24484458565711975,0.6239311099052429
111,49743,49740,0.08567503094673157,-0.07752303034067154,1.0140154361724854,3.8878750801086426,3.9923746585845947,-0.9570329785346985,1.8767223358154297,3.943559408187866,0.30820077657699585,-0.6943544745445251,-0.1730162501335144,0.6238579154014587
112,49753,49750,0.01822112500667572,-0.1404860019683838,0.99090975522995,5.050162315368652,4.2238006591796875,-0.9549486637115479,1.877594232559204,3.9466583728790283,0.3080095052719116,-0.7876521348953247,-0.1776067465543747,0.6048790216445923
113,49763,49760,0.0023776618763804436,-0.04211411625146866,0.9620718955993652,2.7027950286865234,3.5720577239990234,0.1973849982023239,1.8768253326416016,3.9461519718170166,0.3080357611179352,-0.8019301295280457,-0.10866707563400269,0.6015499234199524
114,49773,49770,-0.004155370872467756,-0.02554256282746792,0.9880905747413635,0.36780837178230286,5.439990043640137,0.4216105341911316,1.8774968385696411,3.946073055267334,0.3065560460090637,-0.8971518874168396,-0.09137566387653351,0.6058072447776794
115,49783,49780,0.008013254031538963,0.04911588132381439,1.0174942016601562,-1.029605746269226,-0.792293131351471,0.7617793083190918,1.8751782178878784,3.9467387199401855,0.3062797784805298,-0.6600638628005981,-0.1003764271736145,0.6140125393867493
116,49793,49790,0.018147122114896774,-0.03252793103456497,1.035077452659607,-3.400524854660034,-2.8653435707092285,0.4972461462020874,1.8752410411834717,3.9470415115356445,0.3059457242488861,-0.6799817681312561,-0.13918998837471008,0.6159722805023193
117,49803,49800,-0.01816309429705143,-0.009413033723831177,1.0403540134429932,-3.3607072830200195,-4.009179592132568,1.123178243637085,1.874491810798645,3.9484410285949707,0.3056419789791107,-0.6648445129394531,-0.19861143827438354,0.6146214604377747
118,49813,49810,0.0054949186742305756,-0.03962349146604538,1.0228123664855957,-2.258206605911255,-5.218776702880859,1.0488673448562622,1.8738213777542114,3.9487907886505127,0.30739521980285645,-0.6415907740592957,-0.24450255930423737,0.630242645740509
119,49823,49820,-0.01952914521098137,0.04710933938622475,1.011833667755127,-3.617363214492798,-1.7889732122421265,1.5085759162902832,1.873915195465088,3.9507126808166504,0.3073524832725525,-0.5995654463768005,-0.20042546093463898,0.6473392844200134
120,49833,49830,0.02786880172789097,-0.05197521299123764,1.0310356616973877,0.05803889036178589,0.5002734065055847,0.49759864807128906,1.8741556406021118,3.9532792568206787,0.30731359124183655,-0.5538347959518433,-0.2290095090866089,0.6600160598754883
121,49843,49840,-0.021176254376769066,-0.008434188552200794,1.0615290403366089,2.044732093811035,4.051722049713135,0.09933096915483475,1.8742873668670654,3.953766345977783,0.3075311779975891,-0.6166335940361023,-0.21575753390789032,0.6644980311393738
122,49853,49850,0.02559000998735428,0.03544144704937935,0.9725273251533508,3.345094919204712,3.0694894790649414,0.5220027565956116,1.875290870666504,3.9555203914642334,0.30756694078445435,-0.7078292369842529,-0.1808617115020752,0.6666949987411499
123,49863,49860,-0.02887880429625511,0.06131194904446602,1.0383729934692383,4.4031171798706055,5.192728519439697,0.11287855356931686,1.8759989738464355,3.9555609226226807,0.3075818121433258,-0.7946448922157288,-0.11341798305511475,0.670964241027832
124,49873,49870,0.025509389117360115,0.024474572390317917,0.9833749532699585,4.816847801208496,0.37986698746681213,0.3342045545578003,1.8767225742340088,3.9568066596984863,0.3067478537559509,-0.8482522368431091,-0.03908737748861313,0.6768528819084167
125,49883,49880,-0.019984764978289604,-0.053564321249723434,1.0923963785171509,2.186253070831299,-5.412596225738525,0.5758150815963745,1.87680184841156,3.9593498706817627,0.3067869544029236,-0.721113383769989,-0.059440936893224716,0.6824123859405518
126,49893,49890,-0.042522672563791275,-0.06744301319122314,1.1264665126800537,0.7430134415626526,-5.58544397354126,0.09235283732414246,1.8765257596969604,3.959651231765747,0.306805282831192,-0.6662251353263855,-0.030945993959903717,0.6871368288993835
127,49903,49900,-0.04799044504761696,-0.05409359559416771,1.0579386949539185,-2.042795419692993,-9.965730667114258,-0.04760097339749336,1.8760528564453125,3.9605462551116943,0.3069019019603729,-0.5579667091369629,-0.0561864860355854,0.6868091821670532
128,49913,49910,-0.012385756708681583,-0.01504844706505537,1.01960027217865,-5.8767547607421875,-4.096921443939209,-0.44869938492774963,1.8766183853149414,3.960782289505005,0.3091951012611389,-0.5859628319740295,-0.14018280804157257,0.6775091290473938
129,49923,49920,-0.022107716649770737,-0.06530660390853882,1.0126632452011108,-7.493494510650635,-3.7397823333740234,-0.34224268794059753,1.8776272535324097,3.961244583129883,0.30963826179504395,-0.541317343711853,-0.017096349969506264,0.6962113380432129
130,49933,49930,0.06233280897140503,-0.05867776274681091,1.0453470945358276,-7.307486534118652,-2.2661712169647217,-1.1579371690750122,1.8783540725708008,3.9616801738739014,0.3100895583629608,-0.5789067149162292,-0.16064201295375824,0.6840429306030273
131,49943,49940,0.019996747374534607,-0.10838346928358078,1.029606580734253,-4.954825401306152,0.4019053280353546,-1.2967456579208374,1.877107858657837,3.9615414142608643,0.31000518798828125,-0.4664425551891327,-0.2689557671546936,0.6723852753639221
132,49953,49950,0.03170214220881462,-0.09515845775604248,0.961717426776886,-2.568079710006714,5.223466873168945,-0.0014067700831219554,1.8763132095336914,3.9611339569091797,0.31040462851524353,-0.516706645488739,-0.25854766368865967,0.6582788228988647
133,49963,49960,-0.021394390612840652,-0.023191077634692192,1.004602074623108,-0.14873887598514557,13.543301582336426,0.11763688921928406,1.8776757717132568,3.962021827697754,0.3108671307563782,-0.6808008551597595,-0.2882550358772278,0.6523864269256592
134,49973,49970,-0.01076573971658945,0.022263644263148308,0.9586090445518494,1.0857548713684082,17.957012176513672,0.5963981747627258,1.8778154850006104,3.962521553039551,0.3105239272117615,-0.8702412843704224,-0.285229355096817,0.6518378257751465
135,49983,49980,0.02036544494330883,0.012167414650321007,0.9658791422843933,1.5313282012939453,20.69713592529297,1.1991959810256958,1.8784185647964478,3.9624521732330322,0.31085994839668274,-1.12553071975708,-0.2741049826145172,0.6613021492958069
136,49993,49990,0.012896347790956497,0.07343792915344238,1.0416451692581177,2.545593500137329,17.949920654296875,1.322823166847229,1.8796192407608032,3.9620769023895264,0.3112303912639618,-1.3747344017028809,-0.23785683512687683,0.674487829208374
137,50003,50000,0.011640997603535652,-0.027990782633423805,0.9909153580665588,3.8940844535827637,11.506640434265137,2.504995346069336,1.8798271417617798,3.96260404586792,0.310687780380249,-1.5449918508529663,-0.17952020466327667,0.6945123076438904
138,50013,50010,-0.028089452534914017,-0.017935825511813164,1.0032256841659546,1.7403281927108765,10.554705619812012,2.0932469367980957,1.8792178630828857,3.962221384048462,0.3110913932323456,-1.5489356517791748,-0.1406645029783249,0.7247248888015747
139,50023,50020,0.039636652916669846,-0.030006542801856995,0.9264031052589417,0.22280600666999817,1.1582216024398804,2.755833148956299,1.880587100982666,3.9634437561035156,0.311332643032074,-1.6878749132156372,-0.13045474886894226,0.7452086806297302
140,50033,50030,-0.0070547000505030155,-0.0295027457177639,1.018537998199463,-0.0227827001363039,-3.3465919494628906,3.262587547302246,1.8811393976211548,3.965070962905884,0.3117019534111023,-1.614411473274231,-0.19958476722240448,0.7647882699966431
141,50043,50040,0.025554049760103226,0.006578547414392233,0.9556527137756348,-2.139493942260742,-3.4462594985961914,3.966966152191162,1.8808321952819824,3.965632200241089,0.3136937916278839,-1.511962652206421,-0.21587087213993073,0.7992444038391113
142,50053,50050,0.06662706285715103,-0.07173401117324829,0.9802471995353699,-0.9743511080741882,-4.2938642501831055,4.2023138999938965,1.8805497884750366,3.9661691188812256,0.3140414357185364,-1.409829020500183,-0.2334594875574112,0.8420928716659546
143,50063,50060,0.0697140321135521,-0.10723033547401428,1.0120832920074463,0.47024497389793396,-2.404433012008667,4.515646934509277,1.881374478340149,3.966571092605591,0.31433385610580444,-1.4684854745864868,-0.2342156022787094,0.8846335411071777
144,50073,50070,0.028974158689379692,-0.1334271878004074,0.965907096862793,2.3514983654022217,0.5558534860610962,4.622596263885498,1.8806519508361816,3.968095541000366,0.3143870234489441,-1.4033002853393555,-0.19731426239013672,0.927391529083252
145,50083,50080,0.02577618509531021,-0.0985659807920456,0.9447495341300964,2.622647762298584,2.906278371810913,5.620084762573242,1.8805094957351685,3.967010021209717,0.3146706223487854,-1.4054861068725586,-0.07649931311607361,0.9995875358581543
146,50093,50090,-0.005139044485986233,0.006236952729523182,0.9989590048789978,2.660536289215088,5.600018501281738,5.002590656280518,1.8808786869049072,3.967689275741577,0.31488531827926636,-1.4483140707015991,-0.03304529935121536,1.0554486513137817
147,50103,50100,0.023384608328342438,-0.06752493977546692,1.0023332834243774,-0.7130159735679626,7.417845726013184,5.702512741088867,1.881322979927063,3.9680094718933105,0.31765061616897583,-1.5336781740188599,-0.03148151561617851,1.1035244464874268
148,50113,50110,0.023999150842428207,-0.12558862566947937,1.0397207736968994,-2.523686170578003,4.669857501983643,4.7366533279418945,1.8832449913024902,3.9684345722198486,0.31792256236076355,-1.7536250352859497,-0.05725565925240517,1.1508514881134033
149,50123,50120,-0.006826888769865036,-0.09732944518327713,1.033429741859436,-4.944448471069336,4.0053277015686035,4.296538352966309,1.884721040725708,3.9701175689697266,0.31834283471107483,-1.7835693359375,-0.12654879689216614,1.1915701627731323
150,50133,50130,0.0007809888338670135,0.1015591099858284,0.9301041960716248,-2.833240032196045,-0.02534601092338562,4.033311367034912,1.883597493171692,3.9701008796691895,0.3189195394515991,-1.6927276849746704,-0.18921558558940887,1.231899619102478
151,50143,50140,-0.03625452145934105,0.14659136533737183,0.9779667258262634,-3.9843502044677734,-3.733877420425415,3.8467276096343994,1.8834725618362427,3.971179485321045,0.32026422023773193,-1.6123560667037964,-0.2666516900062561,1.2681748867034912
152,50153,50150,0.028387224301695824,0.0807153508067131,0.9307985305786133,-1.0551344156265259,-3.14218807220459,4.194055080413818,1.8838967084884644,3.972256898880005,0.3206982910633087,-1.5840262174606323,-0.29886865615844727,1.304722785949707
153,50163,50160,0.046766769140958786,0.08996448665857315,0.9738038182258606,1.981787085533142,-5.370498180389404,4.149675369262695,1.8852037191390991,3.9726529121398926,0.3210526406764984,-1.5970139503479004,-0.2763599753379822,1.349376916885376
154,50173,50170,0.02189234271645546,0.021856289356946945,1.014689564704895,2.7951934337615967,-6.141500949859619,4.260105609893799,1.8847036361694336,3.972460985183716,0.31855395436286926,-1.4372164011001587,-0.15121623873710632,1.4186455011367798
155,50183,50180,-0.009295024909079075,-0.027260877192020416,0.9817312359809875,2.7310521602630615,-4.088756084442139,4.489203929901123,1.8859412670135498,3.972362756729126,0.31866368651390076,-1.4551489353179932,-0.10846805572509766,1.4654372930526733
156,50193,50190,-0.004938661120831966,-0.027882345020771027,0.9625428318977356,1.5896122455596924,1.8019732236862183,4.071178913116455,1.8866323232650757,3.9737348556518555,0.31880101561546326,-1.4520995616912842,-0.14934973418712616,1.494506597518921
157,50203,50200,0.03218575567007065,0.0538502112030983,0.9034530520439148,-0.9782552123069763,0.23384186625480652,4.879195690155029,1.8874329328536987,3.974423885345459,0.3163599371910095,-1.3936904668807983,-0.06168669834733009,1.5631070137023926
158,50213,50210,0.011922002770006657,0.0649409219622612,0.9760468006134033,-1.9275327920913696,-0.35824286937713623,4.995969295501709,1.8888057470321655,3.9753222465515137,0.3162274956703186,-1.4938056468963623,-0.16600409150123596,1.5925976037979126
159,50223,50220,-0.002274777740240097,-0.005251340102404356,1.0365246534347534,-0.2600579261779785,-2.5471482276916504,4.082499027252197,1.8892825841903687,3.9751856327056885,0.31614449620246887,-1.4117146730422974,-0.18789042532444,1.6396945714950562
160,50233,50230,-0.028074173256754875,0.09944234043359756,0.9492239356040955,-1.0432066917419434,-2.869774580001831,4.763882637023926,1.8906257152557373,3.974740982055664,0.31594377756118774,-1.4724124670028687,-0.20628826320171356,1.6808854341506958
161,50243,50240,-0.039983946830034256,0.11057126522064209,0.9974297285079956,-0.332463800907135,-0.3779005706310272,4.023586273193359,1.8914347887039185,3.974809169769287,0.3168255090713501,-1.4494396448135376,-0.14549794793128967,1.7425700426101685
162,50253,50250,-0.005559184122830629,0.1482333242893219,0.9492085576057434,0.8378413319587708,-0.1726294606924057,3.651825189590454,1.8923683166503906,3.9760262966156006,0.3167549669742584,-1.4230287075042725,-0.22286438941955566,1.7692433595657349
163,50263,50260,0.028217164799571037,0.11302138864994049,0.9730584621429443,0.7126556634902954,-3.693840980529785,2.9368155002593994,1.8935911655426025,3.9752206802368164,0.3165431320667267,-1.4458867311477661,-0.12824255228042603,1.817832350730896
164,50273,50270,0.014304968528449535,0.03771267458796501,1.0288429260253906,1.175053596496582,-6.910223007202148,1.8251550197601318,1.8935409784317017,3.9757938385009766,0.31628701090812683,-1.2625114917755127,-0.1167711466550827,1.8493931293487549
165,50283,50280,-0.09258680790662766,0.10538369417190552,1.0054028034210205,1.9587432146072388,-7.8537821769714355,1.92250394821167,1.894368290901184,3.97570538520813,0.3160651922225952,-1.2100244760513306,-0.0919942632317543,1.8696764707565308
166,50293,50290,-0.07542978972196579,0.15416556596755981,0.9490219950675964,0.5606659650802612,-5.561048984527588,2.5882229804992676,1.8959143161773682,3.975654125213623,0.3158779740333557,-1.167812466621399,-0.07829093188047409,1.8924472332000732
167,50303,50300,-0.021162105724215508,0.1007896214723587,1.0395832061767578,-0.15380963683128357,-7.031675815582275,2.465653419494629,1.896677851676941,3.9763100147247314,0.3126453757286072,-1.1379327774047852,-0.08419514447450638,1.9151242971420288
168,50313,50310,0.017525210976600647,0.030709290876984596,1.069427728652954,-0.6128009557723999,-4.936456680297852,1.7411924600601196,1.8958816528320312,3.9769396781921387,0.31236061453819275,-0.9576675891876221,-0.171149343252182,1.9226895570755005
169,50323,50320,-0.01856125332415104,0.03787146881222725,1.066972255706787,-0.5613930821418762,-1.71971595287323,1.0899524688720703,1.898852825164795,3.9790337085723877,0.3119390308856964,-1.0411970615386963,-0.1799083799123764,1.9397484064102173
170,50333,50330,-0.045215804129838943,0.10920362919569016,0.968669056892395,-0.681418240070343,1.6413087844848633,0.7469503283500671,1.8990646600723267,3.979001522064209,0.31171083450317383,-1.0175189971923828,-0.1866619884967804,1.9516681432724
171,50343,50340,-0.03821020573377609,0.14756274223327637,1.003087043762207,-0.9661776423454285,0.5989777445793152,0.7441736459732056,1.8989804983139038,3.9797542095184326,0.31303656101226807,-0.913613498210907,-0.17650571465492249,1.9561964273452759
172,50353,50350,0.02512635476887226,-0.038078825920820236,1.002097249031067,1.0208827257156372,-6.60959529876709,0.35781723260879517,1.9003002643585205,3.9797489643096924,0.3128146529197693,-0.9646064043045044,-0.08963142335414886,1.972863793373108
173,50363,50360,-0.010322902351617813,-0.017993289977312088,0.9884493947029114,1.0205687284469604,-8.55216121673584,-0.17391690611839294,1.9007965326309204,3.9796571731567383,0.3126579523086548,-0.8771807551383972,-0.085584357380867,1.9773565530776978
174,50373,50370,-0.03802340850234032,-0.012255973182618618,0.9940572381019592,-2.697753667831421,-1.241782307624817,-0.9663983583450317,1.9034135341644287,3.981304407119751,0.3158910572528839,-0.9053272008895874,-0.09797649085521698,1.976070761680603
175,50383,50380,0.04241219535470009,-0.10027941316366196,1.0185004472732544,-3.9363832473754883,-5.208727836608887,-0.4888562858104706,1.9048972129821777,3.9820213317871094,0.31588736176490784,-0.9359155893325806,-0.11884452402591705,1.9818291664123535
176,50393,50390,0.011240764521062374,-0.0453035794198513,1.0834861993789673,-3.7543134689331055,-5.019883632659912,-1.303754448890686,1.9069048166275024,3.9839444160461426,0.3159157335758209,-0.9182422757148743,-0.17872433364391327,1.971204400062561
177,50403,50400,0.02078976482152939,0.0016481063794344664,1.0325886011123657,-2.1304280757904053,-5.986504077911377,-2.207962989807129,1.9065638780593872,3.983631134033203,0.3161245286464691,-0.7069307565689087,-0.15504540503025055,1.9709954261779785
178,50413,50410,-0.011560069397091866,-0.02987830340862274,0.9851897358894348,-1.4176691770553589,-6.00441837310791,-1.3779075145721436,1.9091452360153198,3.983816385269165,0.3161745071411133,-0.7997889518737793,-0.191607266664505,1.9494502544403076
179,50423,50420,0.03668985888361931,-0.08295045793056488,0.9980080723762512,-0.492703914642334,-10.022195816040039,-1.2236894369125366,1.9084454774856567,3.9846413135528564,0.3165002465248108,-0.5438522696495056,-0.20219537615776062,1.9390290975570679
180,50433,50430,0.05369275435805321,-0.17195209860801697,1.0501279830932617,1.2849968671798706,-11.734672546386719,-1.5789927244186401,1.9107979536056519,3.985107898712158,0.31771427392959595,-0.6004014611244202,-0.2002788633108139,1.930906057357788
181,50443,50440,0.021889006718993187,-0.12734022736549377,1.0123591423034668,0.5644031167030334,-6.898196220397949,-2.3722434043884277,1.9118746519088745,3.986776351928711,0.31805911660194397,-0.4057433009147644,-0.19057244062423706,1.9154083728790283
182,50453,50450,-0.004826678428798914,-0.10165609419345856,1.0836615562438965,3.2871546745300293,-4.389930725097656,-2.8633596897125244,1.9122215509414673,3.986769914627075,0.31840360164642334,-0.2542072534561157,-0.16613203287124634,1.895689845085144
183,50463,50460,0.024418378248810768,-0.028835637494921684,1.0063384771347046,2.662757158279419,3.2828047275543213,-3.7755584716796875,1.914824366569519,3.9871277809143066,0.31866884231567383,-0.3946664035320282,-0.11774160712957382,1.8656076192855835
184,50473,50470,0.0334353968501091,0.03202567994594574,1.0002785921096802,2.458740234375,-6.049221038818359,-3.64033842086792,1.9144917726516724,3.9873037338256836,0.3188449442386627,-0.3545140326023102,-0.07424311339855194,1.8281673192977905
185,50483,50480,-0.06416453421115875,-0.040737539529800415,1.0274158716201782,2.9802494049072266,-5.466516971588135,-3.53845477104187,1.9152376651763916,3.98683762550354,0.3192182779312134,-0.3322831690311432,-0.03710273280739784,1.8036936521530151
186,50493,50490,-0.02153780125081539,-0.03288639336824417,1.013041377067566,2.3939976692199707,-7.164095878601074,-3.4580776691436768,1.9169965982437134,3.9878547191619873,0.31965482234954834,-0.2728534936904907,0.0018888219492509961,1.7701791524887085
187,50503,50500,-0.020072923973202705,0.07180312275886536,0.9733842611312866,1.624453067779541,-8.889519691467285,-2.97385311126709,1.9169384241104126,3.9883363246917725,0.31872594356536865,-0.10776574909687042,-0.042832549661397934,1.7385624647140503
188,50513,50510,0.004364378750324249,-0.07180658727884293,0.9400922060012817,0.91398686170578,-9.874679565429688,-2.705106019973755,1.9185389280319214,3.988823413848877,0.31908154487609863,-0.003610420972108841,-0.017890702933073044,1.7101083993911743
189,50523,50520,-0.02436908707022667,-0.06497632712125778,0.9650755524635315,0.1564752459526062,-9.618452072143555,-2.7817211151123047,1.919994831085205,3.9894356727600098,0.3193483054637909,0.03914973884820938,-0.0023065991699695587,1.6817257404327393
190,50533,50530,-0.010504954494535923,-0.05258209630846977,0.9674850106239319,0.05475897714495659,-8.260385513305664,-2.298743486404419,1.9212008714675903,3.9894649982452393,0.31703314185142517,0.07741251587867737,0.003685567993670702,1.6513973474502563
191,50543,50540,-0.01652965135872364,-0.0953669548034668,0.9870333075523376,-1.3215755224227905,-3.8565502166748047,-2.0641567707061768,1.9219417572021484,3.989223003387451,0.3171674311161041,0.24732057750225067,-0.0034797375556081533,1.630685567855835
192,50553,50550,0.019551297649741173,-0.05172194167971611,0.9708319306373596,-1.6111758947372437,-2.5932862758636475,-1.6421866416931152,1.924459457397461,3.9898054599761963,0.3171304166316986,0.11689222604036331,-0.02278069220483303,1.6068795919418335
193,50563,50560,0.04144978150725365,-0.07459373772144318,0.9698960781097412,0.7432753443717957,0.17217449843883514,-1.8434278964996338,1.9240729808807373,3.991525411605835,0.31727054715156555,0.27698418498039246,-0.03262657672166824,1.5933303833007812
194,50573,50570,-0.04341791942715645,-0.03888111189007759,1.04470956325531,1.686000943183899,-1.0119588375091553,-1.971799373626709,1.924692988395691,3.993551731109619,0.3179906904697418,0.4208819568157196,-0.10139168798923492,1.6021831035614014
195,50583,50580,0.046632807701826096,-0.04164992645382881,0.9415801167488098,2.639308452606201,6.331901550292969,-2.156907558441162,1.9268414974212646,3.994044065475464,0.31796732544898987,0.26760929822921753,-0.055379629135131836,1.5755044221878052
196,50593,50590,0.07466895878314972,-0.06218275427818298,0.959661066532135,3.3496665954589844,0.04818851500749588,-2.211796760559082,1.928143858909607,3.9940311908721924,0.3180326521396637,0.24317966401576996,0.0013542355736717582,1.551753282546997
197,50603,50600,-0.022396711632609367,0.024356670677661896,1.0031949281692505,3.966215133666992,2.576136589050293,-1.3833417892456055,1.9281630516052246,3.993769407272339,0.3177139461040497,0.3289271593093872,0.06138094514608383,1.5292383432388306
198,50613,50610,0.009374660439789295,0.08569199591875076,0.992340624332428,4.013681411743164,1.103317379951477,-1.3668642044067383,1.929732322692871,3.994455337524414,0.3176102638244629,0.2339298576116562,0.049264419823884964,1.5145883560180664
199,50623,50620,0.030602963641285896,-0.03905105218291283,0.9629346132278442,4.022895336151123,0.13366283476352692,-1.2414041757583618,1.9300742149353027,3.995166063308716,0.31764695048332214,0.3262835741043091,0.043694403022527695,1.5174585580825806
200,50633,50630,0.02009585127234459,-0.0429372563958168,0.9436321258544922,1.650413990020752,-0.9248887300491333,-1.4438203573226929,1.9313464164733887,3.995692253112793,0.31416216492652893,0.2710232734680176,0.11131899803876877,1.4984071254730225
201,50643,50640,0.014184482395648956,-0.028767632320523262,0.9747639894485474,-0.27830860018730164,-0.7590025663375854,-2.7818238735198975,1.9314898252487183,3.9955766201019287,0.31389284133911133,0.3916640281677246,0.1406731754541397,1.4872616529464722
202,50653,50650,-0.03584771603345871,0.057731468230485916,0.9765864014625549,-1.7801626920700073,0.5974182486534119,-1.7116367816925049,1.9329689741134644,3.9955854415893555,0.3135201632976532,0.3317455053329468,0.13520000874996185,1.4615780115127563
203,50663,50660,0.003842374309897423,-0.052359260618686676,1.0015349388122559,-3.8647360801696777,3.089458703994751,-2.3820559978485107,1.9353463649749756,3.9964747428894043,0.3129770755767822,0.16635452210903168,0.09927360713481903,1.4457757472991943
204,50673,50670,0.015630530193448067,-0.07025108486413956,0.9856358170509338,-4.651677131652832,8.299501419067383,-2.9735288619995117,1.9356650114059448,3.9965713024139404,0.3133447468280792,0.21872353553771973,0.047756824642419815,1.4335540533065796
205,50683,50680,0.028628753498196602,-0.023974526673555374,1.008776307106018,-4.360220432281494,5.213021755218506,-3.8385000228881836,1.936123251914978,3.9978268146514893,0.31302696466445923,0.21736830472946167,-0.017738042399287224,1.4141687154769897
206,50693,50690,-0.02282315492630005,-0.01305612176656723,1.0095349550247192,-3.5422163009643555,5.075283527374268,-3.5147645473480225,1.9368294477462769,3.9979989528656006,0.31272974610328674,0.21736997365951538,-0.08245158940553665,1.3831125497817993
207,50703,50700,0.021344954147934914,-0.030807508155703545,1.0035667419433594,-2.81976318359375,2.5491907596588135,-4.015413284301758,1.9367055892944336,3.9974663257598877,0.3108047544956207,0.22519932687282562,-0.04978533461689949,1.3402252197265625
208,50713,50710,-0.002589649520814419,-0.027645578607916832,1.0441923141479492,0.16902796924114227,3.2267649173736572,-3.3811142444610596,1.9385722875595093,3.99918794631958,0.31029999256134033,0.09215238690376282,-0.16073668003082275,1.315777063369751
209,50723,50720,-0.02290809527039528,-0.06799334287643433,1.0262172222137451,1.8599413633346558,2.8712213039398193,-3.681973457336426,1.9373753070831299,3.998316764831543,0.30997487902641296,0.1355191469192505,-0.13482019305229187,1.2702547311782837
210,50733,50730,0.020091649144887924,-0.035259999334812164,1.0307199954986572,2.8167800903320312,2.6644527912139893,-2.0156948566436768,1.936916470527649,3.9989612102508545,0.3076869249343872,0.17694644629955292,-0.07988489419221878,1.2263152599334717
211,50743,50740,0.06410403549671173,-0.036411963403224945,1.0787842273712158,5.789487361907959,4.19437837600708,-2.9420971870422363,1.9385855197906494,4.000856876373291,0.30728262662887573,0.11951670050621033,6.85824707034044e-05,1.2381601333618164
212,50753,50750,-0.006217714864760637,-0.00615577632561326,1.0326956510543823,6.772999286651611,7.934925079345703,-3.424243927001953,1.9391531944274902,4.001680850982666,0.306935578584671,0.12337839603424072,0.02648242563009262,1.2253191471099854
213,50763,50760,0.003603938966989517,0.011924788355827332,1.0165454149246216,6.199275493621826,10.515161514282227,-3.956188440322876,1.9407206773757935,4.002679347991943,0.30942395329475403,0.007253214251250029,0.1442490965127945,1.183785319328308
214,50773,50770,0.023335188627243042,-0.042278073728084564,0.9649847745895386,6.00362491607666,2.6816751956939697,-3.1239113807678223,1.941017508506775,4.002877235412598,0.309354305267334,0.03339742124080658,0.17480964958667755,1.1792519092559814
215,50783,50780,-0.009585087187588215,-0.020548177883028984,1.0571407079696655,4.005688190460205,5.046411514282227,-3.877225875854492,1.9428128004074097,4.00417947769165,0.30915090441703796,-0.13923749327659607,0.27422642707824707,1.150273084640503
216,50793,50790,0.0011856143828481436,-0.005085702985525131,1.047559142112732,-0.05597225949168205,5.539239406585693,-3.8937621116638184,1.9440019130706787,4.0048699378967285,0.3091123104095459,-0.1408638060092926,0.33249741792678833,1.1302002668380737
217,50803,50800,0.03344287723302841,-0.1468452364206314,1.0443415641784668,-2.347512722015381,2.8892195224761963,-3.7699105739593506,1.9445035457611084,4.005762100219727,0.3103660047054291,-0.22086669504642487,0.3238794207572937,1.1117967367172241
218,50813,50810,-0.013630490750074387,-0.06156565248966217,1.0254515409469604,-5.059113025665283,1.222894310951233,-4.153916358947754,1.94547700881958,4.00833797454834,0.3105029761791229,-0.1891293227672577,0.2724961042404175,1.0957040786743164
219,50823,50820,0.014905435964465141,-0.07547376304864883,1.0116655826568604,-6.09930944442749,1.0579521656036377,-4.173329830169678,1.9477018117904663,4.009603977203369,0.31055018305778503,-0.2970098555088043,0.18689829111099243,1.0815476179122925
220,50833,50830,-0.0036469970364123583,-0.06581906974315643,1.034727692604065,-4.4272966384887695,1.7652205228805542,-4.971311569213867,1.9474024772644043,4.01078987121582,0.31017303466796875,-0.20738282799720764,0.1762206256389618,1.047358751296997
221,50843,50840,0.0008856523782014847,-0.03900732845067978,0.976530134677887,-3.8683218955993652,6.851799964904785,-5.065690994262695,1.948163628578186,4.010923385620117,0.31030988693237305,-0.22035963833332062,0.10193737596273422,1.0046231746673584
222,50853,50850,0.03006247989833355,-0.048230722546577454,0.9597261548042297,-2.4968698024749756,-3.5407209396362305,-4.807280540466309,1.9483575820922852,4.0113348960876465,0.31042513251304626,-0.18668730556964874,0.04647800698876381,0.9669726490974426
223,50863,50860,-0.021472809836268425,-0.027332575991749763,1.0367698669433594,-2.198537588119507,0.06911004334688187,-5.282057285308838,1.9490329027175903,4.012505054473877,0.30995288491249084,-0.17373056709766388,0.008326765149831772,0.9306522607803345
224,50873,50870,-0.01840111054480076,-0.06830622255802155,1.0772473812103271,-0.31409314274787903,-1.8511369228363037,-4.682601451873779,1.9493420124053955,4.012626647949219,0.31001216173171997,-0.10210483521223068,-0.020051000639796257,0.8837351202964783
225,50883,50880,-0.029174981638789177,-0.024173235520720482,1.032996416091919,-2.1287789344787598,6.454836845397949,-4.0762834548950195,1.9522130489349365,4.013017177581787,0.31004929542541504,-0.2878984212875366,-0.03487003967165947,0.8348809480667114
226,50893,50890,0.042253270745277405,-0.1484794318675995,1.017804741859436,1.1699402332305908,3.895725965499878,-3.043633460998535,1.9527751207351685,4.013028621673584,0.310258686542511,-0.2992986738681793,-0.04309514909982681,0.8093137145042419
227,50903,50900,0.010817471891641617,0.040544454008340836,1.0126307010650635,2.1647322177886963,6.529094696044922,-3.55902361869812,1.9535413980484009,4.014208793640137,0.313462495803833,-0.3949493169784546,-0.08996468782424927,0.7753869295120239
228,50913,50910,0.01146475039422512,-0.03809443488717079,0.9735075831413269,1.846513032913208,3.3301024436950684,-3.632643699645996,1.9537065029144287,4.014636993408203,0.3138759434223175,-0.41486674547195435,0.038169942796230316,0.7544926404953003
229,50923,50920,0.015048439614474773,-0.08486413955688477,1.0521068572998047,2.9089791774749756,2.156529188156128,-4.628268241882324,1.9538719654083252,4.015179634094238,0.3142966032028198,-0.3975895345211029,0.0065940129570662975,0.7375030517578125
230,50933,50930,0.03603210300207138,-0.1066523864865303,0.9899337887763977,1.3509966135025024,-0.08095605671405792,-4.680540561676025,1.9561824798583984,4.017297267913818,0.3155856728553772,-0.5076644420623779,-0.025117211043834686,0.6964489221572876
231,50943,50940,0.0001421816850779578,-0.01086142286658287,0.9972009062767029,0.49043887853622437,0.043923646211624146,-5.112158298492432,1.95819890499115,4.018571853637695,0.3160184323787689,-0.5730860829353333,0.008572198450565338,0.6681036949157715
232,50953,50950,0.009296060539782047,-0.012172171846032143,0.9800881147384644,-0.7069571018218994,2.05157208442688,-5.870619773864746,1.9575955867767334,4.018628120422363,0.31657424569129944,-0.4560967981815338,0.019671494141221046,0.6144577860832214
233,50963,50960,0.04863326624035835,0.053094081580638885,0.9412641525268555,0.1406019777059555,0.2218533307313919,-5.083247184753418,1.9579830169677734,4.017844200134277,0.3176221549510956,-0.49710044264793396,0.09543196111917496,0.5585843920707703
234,50973,50970,0.028933007270097733,0.09741012752056122,0.9883314371109009,-0.8033537268638611,-3.723525047302246,-4.689154624938965,1.9577088356018066,4.017693042755127,0.3181387782096863,-0.3678034842014313,0.085855633020401,0.5156256556510925
235,50983,50980,0.01581030711531639,-0.0015188048128038645,0.9738146066665649,-0.8787489533424377,0.08850882947444916,-3.944010019302368,1.9586141109466553,4.018621444702148,0.3184949457645416,-0.3823340833187103,0.07388343662023544,0.46754488348960876
236,50993,50990,0.046663668006658554,0.06320250034332275,0.9736089110374451,-1.273884654045105,-2.81079363822937,-3.835512161254883,1.9597446918487549,4.019594669342041,0.3189030587673187,-0.3537054657936096,0.06553474068641663,0.456987589597702
237,51003,51000,-0.013898398727178574,-0.023007720708847046,0.9728586673736572,-1.639172911643982,-0.6623268127441406,-4.096864223480225,1.9601829051971436,4.020954608917236,0.3160911202430725,-0.33511513471603394,0.055692221969366074,0.44007423520088196
238,51013,51010,-0.03312084451317787,-0.0726107805967331,0.9317299723625183,-2.0309247970581055,1.7914934158325195,-3.4727139472961426,1.9617663621902466,4.0219316482543945,0.31624069809913635,-0.3419543206691742,0.031002631410956383,0.42936548590660095
239,51023,51020,-0.014171529561281204,-0.03623608127236366,0.9596856236457825,-2.5490071773529053,1.6397267580032349,-3.180384635925293,1.962796926498413,4.022209167480469,0.3163067102432251,-0.36744925379753113,-0.0020834666211158037,0.4013839662075043
240,51033,51030,0.008262495510280132,-0.006395760923624039,0.9779617786407471,-3.5087387561798096,4.247782230377197,-2.9681100845336914,1.9649630784988403,4.023029804229736,0.3165592849254608,-0.4656335413455963,-0.038003332912921906,0.3755779266357422
241,51043,51040,0.05236557498574257,-0.07221170514822006,0.948897659778595,-2.9278054237365723,3.2058284282684326,-2.6327452659606934,1.9657975435256958,4.023445129394531,0.3165874481201172,-0.4765135645866394,-0.0741824209690094,0.3454200029373169
242,51053,51050,0.03398920223116875,-0.1084899976849556,0.9544480443000793,-0.6159886121749878,-4.595545768737793,-2.328373670578003,1.9665549993515015,4.023282527923584,0.31660333275794983,-0.4641679525375366,-0.10556066781282425,0.3101122975349426
243,51063,51060,0.0006017068517394364,0.04472319036722183,0.9398013949394226,0.8123799562454224,-6.549135208129883,-1.6120457649230957,1.9671010971069336,4.024648666381836,0.315570592880249,-0.4858979284763336,-0.10710663348436356,0.32131049036979675
244,51073,51070,-0.03142178803682327,0.03984234854578972,0.9886302351951599,1.2185202836990356,-4.318966388702393,-1.8375868797302246,1.9678362607955933,4.024840831756592,0.3154181241989136,-0.39963167905807495,-0.0891168937087059,0.3242926001548767
245,51083,51080,-0.05499879643321037,-0.024185586720705032,1.0363843441009521,1.4240407943725586,-0.6709493398666382,-2.29215669631958,1.9695184230804443,4.02550745010376,0.31531822681427,-0.3440280258655548,0.01574067957699299,0.32271212339401245
246,51093,51090,-0.013213131576776505,-0.03878436237573624,0.9821345806121826,1.6831891536712646,-0.6629418134689331,-1.8890681266784668,1.9696074724197388,4.025249481201172,0.3133815824985504,-0.22654516994953156,0.04635225236415863,0.3146059811115265
247,51103,51100,0.08222470432519913,-0.008729677647352219,0.9465102553367615,-0.037497829645872116,-0.4343705177307129,-2.0095667839050293,1.9708694219589233,4.025960922241211,0.31301379203796387,-0.2899307608604431,0.06784038245677948,0.2953644096851349
248,51113,51110,0.016877958551049232,-0.005735650658607483,0.9746320843696594,-2.226595640182495,-0.567261278629303,-1.4035404920578003,1.9733786582946777,4.026892185211182,0.3125988245010376,-0.4347909986972809,-0.03216492757201195,0.2811572551727295
249,51123,51120,0.021026572212576866,-0.011257599107921124,0.9890547394752502,-5.063658237457275,0.993064820766449,-1.6022758483886719,1.9737554788589478,4.0273051261901855,0.31231093406677246,-0.4173347055912018,-0.08561893552541733,0.26308515667915344
250,51133,51130,0.07970669120550156,-0.09255648404359818,0.9999781847000122,-5.783636093139648,0.2886110842227936,-1.9842267036437988,1.9735909700393677,4.028888702392578,0.31299418210983276,-0.32759755849838257,-0.1686137616634369,0.2722924053668976
251,51143,51140,-0.02787274867296219,0.040183406323194504,0.987034022808075,-3.900507926940918,-2.008145570755005,-2.1432137489318848,1.9760321378707886,4.028536319732666,0.3125862181186676,-0.4724966585636139,-0.1594037413597107,0.2658340334892273
252,51153,51150,0.02572270669043064,-0.033975567668676376,0.9448897242546082,-2.5268125534057617,-3.9119908809661865,-2.043745994567871,1.9759907722473145,4.029446125030518,0.3123299479484558,-0.3936055600643158,-0.20687253773212433,0.24489454925060272
253,51163,51160,-0.044189851731061935,0.09324605762958527,0.9912368655204773,0.42620187997817993,-1.6722193956375122,-2.4847681522369385,1.9767833948135376,4.030957221984863,0.31226351857185364,-0.31959497928619385,-0.2160373479127884,0.256271630525589
254,51173,51170,0.01329762302339077,0.08937006443738937,0.9319257140159607,2.304649829864502,-4.113985061645508,-2.0543031692504883,1.9783836603164673,4.030848026275635,0.31181249022483826,-0.3904033601284027,-0.18353945016860962,0.2504562735557556
255,51183,51180,0.02053706906735897,0.06559264659881592,0.9851074814796448,2.7982146739959717,-6.613548755645752,-1.6354365348815918,1.9788787364959717,4.032219409942627,0.3115648031234741,-0.22756004333496094,-0.1956821233034134,0.2355954647064209
256,51193,51190,0.047491513192653656,-0.10303080081939697,1.060474157333374,3.3464713096618652,-7.566133499145508,-2.169710636138916,1.9796576499938965,4.032376289367676,0.30861207842826843,-0.1225442960858345,-0.12125830352306366,0.23833461105823517
257,51203,51200,-0.0036511728540062904,-0.1553487926721573,1.0608891248703003,3.9527738094329834,-3.6225008964538574,-2.739068031311035,1.9815289974212646,4.03272008895874,0.3080495297908783,-0.17728127539157867,-0.048016730695962906,0.223232239484787
258,51213,51210,-0.013292713090777397,-0.06252837926149368,1.0260075330734253,2.9268181324005127,0.5169827342033386,-2.6990437507629395,1.9843957424163818,4.033787250518799,0.3075231909751892,-0.2663588225841522,0.0058550057001411915,0.2464369535446167
259,51223,51220,-0.01012357510626316,0.10584212839603424,0.9336763024330139,-1.1786235570907593,-0.04226097837090492,-2.648282766342163,1.9842616319656372,4.034215927124023,0.3072350025177002,-0.15605506300926208,0.023435430601239204,0.2209354192018509
260,51233,51230,0.0010724217863753438,0.023090757429599762,1.0271267890930176,-4.145951271057129,-2.916149377822876,-2.258131742477417,1.9863369464874268,4.034724235534668,0.30693918466567993,-0.26769569516181946,-0.0017771212151274085,0.2055356204509735
261,51243,51240,0.004720495082437992,-0.18470777571201324,1.0454930067062378,-5.8361124992370605,-2.0351150035858154,-1.4975922107696533,1.9861472845077515,4.0348310470581055,0.30665239691734314,-0.12057589739561081,-0.06865065544843674,0.19409580528736115
262,51253,51250,-0.011447478085756302,-0.17638014256954193,1.0723994970321655,-5.011416435241699,-4.0060529708862305,-1.9720463752746582,1.986725091934204,4.0363569259643555,0.3063068687915802,-0.055978626012802124,-0.22537830471992493,0.18710483610630035
263,51263,51260,-0.004091633949428797,-0.1342555433511734,1.0305148363113403,-1.3899277448654175,-3.1145498752593994,-1.980369210243225,1.9887163639068604,4.0369038581848145,0.30902624130249023,-0.12074097245931625,-0.27345478534698486,0.18009205162525177
264,51273,51270,-0.009629826061427593,-0.028838591650128365,0.9763326048851013,1.5830668210983276,-3.8656060695648193,-1.4322903156280518,1.9891059398651123,4.036818981170654,0.3089750409126282,-0.019457858055830002,-0.26897993683815,0.18594247102737427
265,51283,51280,0.01140922773629427,0.095320925116539,1.0200765132904053,3.0898897647857666,-5.6726908683776855,-0.6505590081214905,1.9911441802978516,4.037642478942871,0.3088914752006531,0.009643821977078915,-0.219390407204628,0.1786126047372818
266,51293,51290,0.02774931862950325,0.04466063901782036,1.083225965499878,3.5870091915130615,-5.649123668670654,-0.3241899609565735,1.9925603866577148,4.037362575531006,0.31128212809562683,0.046475496143102646,-0.15392719209194183,0.1715417057275772
267,51303,51300,0.00601996062323451,-0.0566774345934391,1.0358424186706543,5.735442638397217,-3.8765809535980225,-0.49760404229164124,1.9934695959091187,4.037939071655273,0.3114689886569977,0.1598752737045288,-0.12960894405841827,0.1759916990995407
268,51313,51310,-0.015473569743335247,-0.06658819317817688,1.0029751062393188,5.826690196990967,-2.1592257022857666,0.4559916853904724,1.9946775436401367,4.038599491119385,0.31159529089927673,0.16081230342388153,-0.0907885804772377,0.20679786801338196
269,51323,51320,0.017931321635842323,-0.012442626059055328,1.0331825017929077,4.340986251831055,1.561745524406433,0.02837575599551201,1.9941751956939697,4.038992404937744,0.3101632297039032,0.2825568616390228,0.012195302173495293,0.21483264863491058
270,51333,51330,0.01741173304617405,-0.03734748810529709,1.0388834476470947,3.524182081222534,1.3117101192474365,0.21072237193584442,1.9970582723617554,4.041250705718994,0.3102407157421112,0.12223119288682938,0.013841795735061169,0.2666524648666382
271,51343,51340,0.023866290226578712,-0.029269060119986534,1.0705840587615967,0.9997962713241577,2.1662099361419678,-0.08211862295866013,1.9978870153427124,4.041600227355957,0.31040260195732117,0.10967495292425156,-0.010554973036050797,0.26993507146835327
272,51353,51350,-0.022631479427218437,-0.006303122267127037,1.0260765552520752,-1.2388075590133667,4.537603855133057,-0.8429902195930481,1.999155879020691,4.0417256355285645,0.31064221262931824,0.057983286678791046,-0.0031748677138239145,0.2667043209075928
273,51363,51360,-0.04386712238192558,0.11599338054656982,0.9831101894378662,-2.495216131210327,6.713050842285156,-0.9686243534088135,2.0001237392425537,4.042414665222168,0.3081246316432953,-0.017780566588044167,-0.024924084544181824,0.2653936445713043
274,51373,51370,0.005742828827351332,0.24881243705749512,0.8849948644638062,-2.4728000164031982,8.166708946228027,-0.030774036422371864,2.002218723297119,4.042391300201416,0.30806925892829895,-0.17508479952812195,-0.04122611880302429,0.25800907611846924
275,51383,51380,0.018681278452277184,0.06897975504398346,0.9634283185005188,-1.4244440793991089,6.310884475708008,0.5354024171829224,2.003061294555664,4.043577671051025,0.3081882894039154,-0.1562615931034088,-0.04294832795858383,0.28897884488105774
276,51393,51390,0.07112136483192444,-0.12393017113208771,0.9822830557823181,1.7848109006881714,-0.013105859979987144,0.947705090045929,2.0033986568450928,4.042821407318115,0.3078058063983917,-0.09621075540781021,0.061835646629333496,0.2874508798122406
277,51403,51400,-0.002271454082801938,-0.06716638803482056,0.9893353581428528,2.7090282440185547,-3.543272018432617,2.152930498123169,2.003190755844116,4.043257713317871,0.3077225983142853,-0.0452902726829052,0.030439192429184914,0.3009136915206909
278,51413,51410,-0.00985904224216938,0.0828493982553482,1.011350154876709,2.3915605545043945,-4.025331020355225,2.275134325027466,2.0046370029449463,4.042827606201172,0.30760714411735535,-0.01816863752901554,0.08415911346673965,0.31591540575027466
279,51423,51420,0.01449620071798563,0.0536174476146698,0.9585373997688293,-0.7690225839614868,-7.642486572265625,2.8589398860931396,2.0050859451293945,4.042890548706055,0.31085893511772156,0.10052213817834854,0.10073044896125793,0.3401320278644562
280,51433,51430,-0.02136487141251564,0.04697282984852791,1.0301339626312256,-2.270221710205078,-5.430871486663818,2.998878240585327,2.0085575580596924,4.0443949699401855,0.3108160197734833,-0.06986188888549805,-0.06646448373794556,0.376617431640625
281,51443,51440,0.030505580827593803,0.014583352021872997,0.9617025256156921,-2.151754856109619,-6.051126003265381,3.7151236534118652,2.008317708969116,4.0439605712890625,0.3110255300998688,0.09098780155181885,-0.07886433601379395,0.39827802777290344
282,51453,51450,-0.017275065183639526,-0.03637944906949997,1.0013513565063477,0.017640862613916397,-2.8743910789489746,4.194377422332764,2.0099358558654785,4.045257091522217,0.3109990656375885,0.0402296781539917,-0.08107684552669525,0.47645077109336853
283,51463,51460,-0.014806615188717842,-0.03993188962340355,0.9792789220809937,2.3198294639587402,0.5266956090927124,3.8599722385406494,2.0086159706115723,4.04429817199707,0.31261032819747925,0.21271033585071564,-0.038330867886543274,0.5144814848899841
284,51473,51470,0.029723023995757103,-0.024990864098072052,0.9352041482925415,4.367173671722412,2.0152018070220947,4.609780788421631,2.0098118782043457,4.045200824737549,0.3127107620239258,0.1777449995279312,0.049366544932127,0.5719101428985596
285,51483,51480,0.03379811346530914,-0.0626162514090538,0.9609347581863403,6.084090232849121,-1.3831688165664673,6.131453990936279,2.0096771717071533,4.046514987945557,0.3128688335418701,0.30935466289520264,0.005391569342464209,0.6503003835678101
286,51493,51490,0.03638395294547081,-0.10555623471736908,1.0226401090621948,8.000504493713379,-5.1789774894714355,6.66375207901001,2.011653184890747,4.046955108642578,0.31324878334999084,0.22138169407844543,0.07416137307882309,0.7148058414459229
287,51503,51500,-0.004986729007214308,-0.0827070027589798,1.0427683591842651,8.55492115020752,-2.835817813873291,6.739018440246582,2.012251853942871,4.047851085662842,0.3133692443370819,0.29828906059265137,0.15786957740783691,0.8073089718818665
288,51513,51510,-0.04670864716172218,0.08029203861951828,1.0357447862625122,6.8979811668396,2.5541281700134277,6.746701717376709,2.0136430263519287,4.047847270965576,0.31344592571258545,0.2401881217956543,0.24134023487567902,0.8841211795806885
289,51523,51520,0.0077420687302947044,0.078687883913517,0.921722412109375,5.911593437194824,4.801288604736328,5.778283596038818,2.014364004135132,4.04865837097168,0.3099868893623352,0.20408748090267181,0.30578792095184326,0.9604669213294983
290,51533,51530,-0.02822314389050007,-0.025125524029135704,1.0166449546813965,4.109214782714844,7.303638935089111,4.078444480895996,2.014955520629883,4.049785614013672,0.3099668025970459,0.22856460511684418,0.34563860297203064,1.0423829555511475
291,51543,51540,0.00010885295341722667,-0.033883653581142426,1.0304800271987915,1.8913295269012451,4.546995162963867,2.4639899730682373,2.0157272815704346,4.050435543060303,0.3098742663860321,0.1569843590259552,0.34253206849098206,1.092690348625183
292,51553,51550,-0.056952837854623795,0.05126665160059929,1.0115560293197632,-0.963438093662262,4.041506767272949,1.7381824254989624,2.0179309844970703,4.050951957702637,0.30974119901657104,0.04638056084513664,0.3764110207557678,1.1130021810531616
293,51563,51560,0.008037043735384941,0.0555390864610672,0.9460038542747498,-2.427426815032959,2.223705291748047,0.919891893863678,2.018463611602783,4.0517497062683105,0.3106187582015991,0.11143217235803604,0.36766213178634644,1.1530187129974365
294,51573,51570,0.0022069397382438183,0.07163798063993454,1.0297260284423828,-2.41361927986145,1.1310124397277832,-0.3943214416503906,2.0192482471466064,4.052299976348877,0.3105853199958801,0.10836178064346313,0.33561575412750244,1.1700443029403687
295,51583,51580,0.001113196020014584,-0.037268154323101044,0.984099268913269,0.11499398946762085,-0.32151979207992554,-1.338066577911377,2.0194296836853027,4.052682399749756,0.3106119632720947,0.19136033952236176,0.3300867974758148,1.1755015850067139
296,51593,51590,-0.00568264489993453,-0.047500599175691605,0.9387133121490479,3.7589151859283447,-1.008404016494751,-1.5368012189865112,2.0217432975769043,4.053294658660889,0.31238222122192383,0.04018830880522728,0.29502999782562256,1.159108281135559
297,51603,51600,-0.011815077625215054,0.08993621170520782,0.9154123067855835,2.931476354598999,1.2597111463546753,-1.2773513793945312,2.0219478607177734,4.053628921508789,0.31242311000823975,0.057688213884830475,0.3827148675918579,1.1647608280181885
298,51613,51610,-0.03176127374172211,0.14838525652885437,0.963054895401001,5.115185260772705,3.3908612728118896,-1.581737995147705,2.022136926651001,4.053413391113281,0.3124762177467346,0.08929271996021271,0.4639374315738678,1.1648973226547241
299,51623,51620,0.03339342027902603,0.009764389134943485,0.934965968132019,4.057609558105469,-0.4688366651535034,-1.6514774560928345,2.0229668617248535,4.054300785064697,0.3149535357952118,0.1416955441236496,0.4905424416065216,1.1534045934677124
300,51633,51630,-0.06094058230519295,-0.05644475296139717,1.05540132522583,2.5447962284088135,-0.7968313097953796,-0.9135269522666931,2.023742198944092,4.054047107696533,0.3149091303348541,0.05040188878774643,0.5517967343330383,1.1332603693008423
301,51643,51640,-0.028872273862361908,-0.008080489002168179,0.9851062893867493,-0.7598735094070435,3.096651315689087,0.43775054812431335,2.023953914642334,4.053905487060547,0.3149731755256653,0.09430995583534241,0.5680793523788452,1.1164814233779907
302,51653,51650,-0.046517468988895416,0.05291356146335602,0.9968306422233582,-2.600884437561035,4.024332046508789,1.0776857137680054,2.0257601737976074,4.0538249015808105,0.31492939591407776,-0.03980628028512001,0.5417687892913818,1.1203891038894653
303,51663,51660,0.009167499840259552,0.015652796253561974,0.9589287638664246,-5.182064533233643,0.720134973526001,2.3210155963897705,2.0259056091308594,4.053786754608154,0.31293559074401855,-0.02846660651266575,0.4755571782588959,1.1455012559890747
304,51673,51670,-0.0029603063594549894,0.025058167055249214,1.0297095775604248,-3.8892977237701416,-0.945406973361969,2.265519142150879,2.025895595550537,4.054391384124756,0.31288331747055054,0.04407747462391853,0.40937143564224243,1.188678503036499
305,51683,51680,-0.0035675647668540478,0.008111746981739998,0.9629763960838318,-3.073716402053833,-0.5324724316596985,2.7260005474090576,2.0276832580566406,4.053958415985107,0.31275051832199097,-0.025201691314578056,0.43554791808128357,1.1914253234863281
306,51693,51690,0.03634324297308922,-0.13666978478431702,1.0140398740768433,-2.7899892330169678,1.261054515838623,2.9478044509887695,2.027338981628418,4.054147720336914,0.3135247230529785,0.04620194062590599,0.37996992468833923,1.2275497913360596
307,51703,51700,0.07084726542234421,-0.22261594235897064,1.042090654373169,-3.634823799133301,0.18782532215118408,3.721122980117798,2.0286264419555664,4.054985046386719,0.3134494721889496,0.03717069700360298,0.25120389461517334,1.264859914779663
308,51713,51710,0.02668098360300064,-0.19802722334861755,1.0887678861618042,-0.249187633395195,0.0984475389122963,2.8584322929382324,2.0307116508483887,4.054773807525635,0.3132573962211609,-0.14729905128479004,0.256990909576416,1.2892075777053833
309,51723,51720,0.035725101828575134,-0.20027729868888855,1.0084508657455444,2.6042356491088867,7.511330604553223,2.309279441833496,2.031696081161499,4.0543694496154785,0.312140554189682,-0.20139291882514954,0.3702591061592102,1.3168010711669922
310,51733,51730,-0.033091988414525986,-0.004820236004889011,1.0212063789367676,2.049363136291504,8.502935409545898,2.4590766429901123,2.0328571796417236,4.054401874542236,0.31208688020706177,-0.31760162115097046,0.4047735929489136,1.3382683992385864
311,51743,51740,-0.06352836638689041,0.00858260877430439,0.9988929033279419,0.5844531655311584,7.758174896240234,2.447495222091675,2.0330452919006348,4.0547685623168945,0.31225982308387756,-0.2949463725090027,0.37045806646347046,1.3683005571365356
312,51753,51750,0.036636609584093094,-0.06288659572601318,1.0114351511001587,-2.688225030899048,4.031132221221924,2.3935909271240234,2.033451795578003,4.055135250091553,0.3123416304588318,-0.3008432686328888,0.35478225350379944,1.4075236320495605
313,51763,51760,0.07295725494623184,-0.16240569949150085,0.9625206589698792,-3.8701469898223877,-1.143862247467041,2.0954885482788086,2.0348968505859375,4.055312633514404,0.31322598457336426,-0.3869949281215668,0.3039189875125885,1.4167778491973877
314,51773,51770,0.0174055527895689,-0.018290536478161812,0.9954277873039246,-3.1514549255371094,-4.576092720031738,1.8415625095367432,2.0356104373931885,4.055505752563477,0.3133387267589569,-0.3203960955142975,0.24870702624320984,1.4484999179840088
315,51783,51780,0.0017872282769531012,-0.03313649818301201,1.0518698692321777,-3.497260093688965,-5.939916610717773,1.5481810569763184,2.036353588104248,4.056381702423096,0.3134872019290924,-0.19798041880130768,0.21068038046360016,1.4971213340759277
316,51793,51790,0.021865498274564743,-0.1460862159729004,1.0829010009765625,-1.2009564638137817,-8.425522804260254,1.1666556596755981,2.037134885787964,4.056799411773682,0.31124141812324524,-0.004730558954179287,0.25589826703071594,1.5099271535873413
317,51803,51800,0.03861436992883682,-0.160288468003273,1.0143885612487793,1.5338072776794434,-5.3311381340026855,1.0644203424453735,2.0374395847320557,4.05653190612793,0.31130996346473694,0.01567857712507248,0.2562306225299835,1.5340627431869507
318,51813,51810,-0.001068119890987873,0.006261824164539576,0.976587176322937,1.6762558221817017,2.3608272075653076,1.1302741765975952,2.0383358001708984,4.056525230407715,0.3113522231578827,0.050017084926366806,0.282959520816803,1.546706199645996
319,51823,51820,0.07930296659469604,0.02463463880121708,0.9140883088111877,-0.5852656364440918,8.986311912536621,1.2693933248519897,2.040792465209961,4.05714225769043,0.3088492751121521,-0.16927582025527954,0.2941344678401947,1.5699105262756348
320,51833,51830,0.08647297322750092,-0.03407600522041321,0.9731592535972595,-2.741084575653076,8.542413711547852,1.7701976299285889,2.0409417152404785,4.05729866027832,0.3087410628795624,-0.1960258185863495,0.27042025327682495,1.58754563331604
321,51843,51840,0.05254024267196655,-0.17703291773796082,1.0033077001571655,-3.581439971923828,5.582638740539551,1.6245216131210327,2.042243242263794,4.057511806488037,0.3085019588470459,-0.29130882024765015,0.2150348573923111,1.6042063236236572
322,51853,51850,0.012448941357433796,-0.11766104400157928,0.9791744947433472,-4.732527732849121,3.1848249435424805,1.984798550605774,2.042449712753296,4.057740688323975,0.3065967261791229,-0.26510387659072876,0.14935743808746338,1.6255779266357422
323,51863,51860,-0.0004723201273009181,-0.05783603712916374,0.9773044586181641,-3.93479323387146,-0.14846278727054596,1.9692046642303467,2.0439164638519287,4.057337760925293,0.3061889410018921,-0.3497086763381958,0.15956464409828186,1.6436543464660645
324,51873,51870,0.003911632113158703,-0.010217797942459583,0.9862812161445618,-4.349888801574707,-0.39188438653945923,2.1028668880462646,2.044969081878662,4.056624412536621,0.3058491051197052,-0.32587456703186035,0.16587817668914795,1.6498796939849854
325,51883,51880,0.03793872520327568,-0.020816808566451073,1.0283955335617065,-1.5100961923599243,0.14297321438789368,1.4616795778274536,2.046996593475342,4.056845664978027,0.3053223788738251,-0.449083149433136,0.10976150631904602,1.6734814643859863
326,51893,51890,-0.018659012392163277,0.05658697336912155,0.9810740947723389,-1.0456386804580688,3.8231868743896484,1.26175057888031,2.0469837188720703,4.056723594665527,0.30751413106918335,-0.334803968667984,0.15421180427074432,1.7014418840408325
327,51903,51900,4.071035436936654e-05,0.08435327559709549,0.9570901393890381,-1.245550274848938,-1.761054277420044,1.5712655782699585,2.0466299057006836,4.057046890258789,0.30740252137184143,-0.24980449676513672,0.12807846069335938,1.753247618675232
328,51913,51910,0.03911318629980087,0.0015033163363114,0.9243600964546204,-2.293510913848877,-3.304426670074463,0.9800233244895935,2.047833204269409,4.057652473449707,0.3071220815181732,-0.2732509970664978,0.10488437116146088,1.771838903427124
329,51923,51920,-0.0038614077493548393,-0.00918502826243639,1.0137587785720825,-1.846775770187378,-5.511727809906006,0.571255624294281,2.048135280609131,4.058098316192627,0.3073083758354187,-0.12692920863628387,0.04924961179494858,1.8019154071807861
330,51933,51930,-0.05413685739040375,0.06733569502830505,1.0129064321517944,-4.544013023376465,-0.562824547290802,1.2612950801849365,2.0491912364959717,4.058371067047119,0.3069938123226166,-0.14872704446315765,-0.01588400825858116,1.8035848140716553
331,51943,51940,-0.021169675514101982,0.13707409799098969,1.014280915260315,-6.239879608154297,0.5715633034706116,0.6360896825790405,2.0501410961151123,4.059123992919922,0.3066651523113251,-0.2172643542289734,-0.034691669046878815,1.8719944953918457
332,51953,51950,0.029242271557450294,0.04227146878838539,0.9806600213050842,-6.0504069328308105,0.07174549996852875,-0.2450614869594574,2.0516750812530518,4.059609889984131,0.3091522753238678,-0.299653559923172,-0.13310281932353973,1.8876947164535522
333,51963,51960,-0.012514453381299973,0.005478907376527786,1.0127087831497192,-4.7645673751831055,-0.5393713712692261,0.4930950999259949,2.052401542663574,4.058295249938965,0.30908361077308655,-0.28082266449928284,-0.08241096884012222,1.879415512084961
334,51973,51970,-0.0551471970975399,0.02445947378873825,1.0151410102844238,-1.5112704038619995,-0.7099664807319641,0.31654077768325806,2.0532548427581787,4.0593342781066895,0.3090096116065979,-0.25277578830718994,-0.14668935537338257,1.91997230052948
335,51983,51980,0.046494852751493454,-0.10394477099180222,0.9716145396232605,1.392958164215088,-0.9674399495124817,0.3556089699268341,2.054555892944336,4.059283256530762,0.3088584840297699,-0.29400861263275146,-0.14771901071071625,1.9223525524139404
336,51993,51990,-0.013508741743862629,-0.025760358199477196,1.0262978076934814,3.3833937644958496,-2.635132312774658,0.8739193677902222,2.0548946857452393,4.059062480926514,0.30926504731178284,-0.15445803105831146,-0.1180107370018959,1.9279561042785645
337,52003,52000,-0.0178292877972126,0.004137225449085236,1.0124688148498535,3.6845877170562744,-2.4743359088897705,1.2502201795578003,2.0562119483947754,4.058452129364014,0.3092106580734253,-0.1376521736383438,-0.0652075707912445,1.9266568422317505
338,52013,52010,-0.00388865708373487,-0.017416751012206078,0.9454562664031982,2.428279161453247,-2.4310216903686523,2.551070213317871,2.0574307441711426,4.058687686920166,0.30913498997688293,-0.15229666233062744,-0.02787589281797409,1.9662785530090332
339,52023,52020,0.006100657861679792,-0.0013870580587536097,1.0059806108474731,-0.4918305575847626,-2.4361190795898438,2.889653205871582,2.057750701904297,4.058758735656738,0.30616188049316406,-0.18289677798748016,-0.011124396696686745,2.002540349960327
340,52033,52030,0.05739493668079376,-0.1778186708688736,1.0208067893981934,-0.2460106462240219,0.6819943189620972,2.601785182952881,2.0583863258361816,4.058253765106201,0.3058800995349884,-0.15941883623600006,-0.028125416487455368,2.009127140045166
341,52043,52040,0.02436145208775997,-0.029934115707874298,0.987199604511261,0.14014947414398193,5.874395847320557,2.395805835723877,2.05949068069458,4.058131217956543,0.30561962723731995,-0.17939376831054688,-0.03779522329568863,2.0259761810302734
342,52053,52050,0.055123742669820786,-0.018098609521985054,0.9727162718772888,-3.1513168811798096,5.038214206695557,1.8520563840866089,2.0619280338287354,4.058238506317139,0.30546891689300537,-0.3709246516227722,-0.06016099825501442,2.046221971511841
343,52063,52060,0.07820716500282288,-0.13198401033878326,1.0158511400222778,-2.5082006454467773,-0.9959605932235718,1.894116997718811,2.061781644821167,4.057990550994873,0.30530568957328796,-0.2874661982059479,-0.12615689635276794,2.0430490970611572
344,52073,52070,0.020114464685320854,-0.1042802482843399,1.0027366876602173,-2.768925905227661,-6.635280609130859,2.7147417068481445,2.0628490447998047,4.058773040771484,0.3050117790699005,-0.2533751130104065,-0.24107810854911804,2.0570693016052246
345,52083,52080,-0.02792428806424141,-0.013239962048828602,1.0021023750305176,-1.5871728658676147,-10.871121406555176,2.921934127807617,2.0641720294952393,4.058280944824219,0.30610954761505127,-0.2125302255153656,-0.18692980706691742,2.0744643211364746
346,52093,52090,-0.0012033181264996529,-0.028430026024580002,1.0523799657821655,1.0506539344787598,-11.454741477966309,2.2152326107025146,2.0649921894073486,4.0578532218933105,0.3059846758842468,-0.05462533235549927,-0.18542087078094482,2.133434772491455
347,52103,52100,0.06190064176917076,-0.14214104413986206,1.068017840385437,0.25894081592559814,-8.468676567077637,2.687201976776123,2.0646286010742188,4.0584635734558105,0.306001216173172,0.22533480823040009,-0.1884772926568985,2.158320426940918
348,52113,52110,0.05374469235539436,-0.1658928096294403,1.0528022050857544,-0.3709906339645386,-5.562084197998047,2.4406988620758057,2.067199945449829,4.057751178741455,0.30582472681999207,0.15655949711799622,-0.19357725977897644,2.153604030609131
349,52123,52120,-0.0037570055574178696,-0.05110698938369751,1.0183038711547852,-2.0872011184692383,0.325447678565979,3.1629555225372314,2.068621873855591,4.057731628417969,0.30828744173049927,0.14984314143657684,-0.20338529348373413,2.1809604167938232
350,52133,52130,0.012922896072268486,-0.05727444961667061,1.0708547830581665,-1.8278809785842896,3.6972718238830566,2.7922160625457764,2.068943738937378,4.057826042175293,0.30849960446357727,0.2206597924232483,-0.2324673980474472,2.2083470821380615
351,52143,52140,-0.00640747370198369,-0.0010558977955952287,1.035549521446228,-2.4343984127044678,4.433170795440674,2.129804849624634,2.070328950881958,4.057971477508545,0.308716356754303,0.17012639343738556,-0.2689080834388733,2.2336905002593994
352,52153,52150,0.001726549118757248,-0.04637614265084267,1.0041331052780151,-2.1285126209259033,10.316924095153809,1.447551965713501,2.0721325874328613,4.057982921600342,0.314339816570282,0.032791875302791595,-0.30216845870018005,2.2492098808288574
353,52163,52160,0.012524805031716824,-0.02954774722456932,0.999495804309845,-0.4620736837387085,3.8925654888153076,1.2019222974777222,2.0730912685394287,4.058051109313965,0.3149767518043518,-0.03653131052851677,-0.30887162685394287,2.261373281478882
354,52173,52170,0.022687852382659912,-0.03792611137032509,1.0509876012802124,0.5795588493347168,-1.5284326076507568,0.894108772277832,2.0751311779022217,4.0579609870910645,0.3156311511993408,-0.09253999590873718,-0.3031271994113922,2.283572196960449
355,52183,52180,-0.021526474505662918,0.07796051353216171,1.026294231414795,2.620189905166626,-4.179944038391113,1.2375168800354004,2.0757954120635986,4.058090686798096,0.3172319829463959,0.01360384002327919,-0.2744525372982025,2.2926998138427734
356,52193,52190,0.018250327557325363,0.11365482211112976,0.9280571937561035,2.3769545555114746,-8.924995422363281,1.353247046470642,2.077319622039795,4.059002876281738,0.31790730357170105,0.004858897067606449,-0.3079189956188202,2.319733142852783
357,52203,52200,-0.06660708039999008,0.06266944855451584,1.0002111196517944,0.5705316662788391,-9.272993087768555,0.30300796031951904,2.077282190322876,4.058748722076416,0.31874948740005493,0.22655543684959412,-0.26839426159858704,2.3215410709381104
358,52213,52210,-0.018858658149838448,-0.05503912270069122,0.9919065833091736,1.6517362594604492,-9.863288879394531,0.756746768951416,2.0773112773895264,4.058448791503906,0.31955644488334656,0.4300069808959961,-0.24542056024074554,2.3139822483062744
359,52223,52220,-0.00019025107030756772,-0.0687984973192215,0.9508662819862366,2.6967296600341797,-7.013853073120117,1.2112518548965454,2.0805814266204834,4.05877685546875,0.31822770833969116,0.27504241466522217,-0.275632381439209,2.3313441276550293
360,52233,52230,0.023932531476020813,-0.03373372182250023,0.930614173412323,4.779068470001221,-2.393083095550537,1.349427580833435,2.081127405166626,4.058602809906006,0.3188371956348419,0.37764352560043335,-0.1957477480173111,2.3309202194213867
361,52243,52240,0.0803297907114029,-0.015913555398583412,0.9178568720817566,4.501852512359619,2.3835830688476562,0.6084576845169067,2.082962989807129,4.058562755584717,0.31937819719314575,0.3884316086769104,-0.1887979507446289,2.294355630874634
362,52253,52250,0.024716012179851532,-0.04929165542125702,0.9249030947685242,4.183055400848389,3.525055408477783,1.06351637840271,2.083116054534912,4.058822154998779,0.3178079426288605,0.43199607729911804,-0.18175309896469116,2.279326915740967
363,52263,52260,0.024660514667630196,-0.07561325281858444,0.9614460468292236,3.378211736679077,4.25974702835083,0.18165406584739685,2.084798574447632,4.058834552764893,0.31800147891044617,0.2985745370388031,-0.10790969431400299,2.316824436187744
364,52273,52270,-0.01797051727771759,-0.05157535895705223,0.9538217782974243,1.9845046997070312,6.478127479553223,-0.23463565111160278,2.086223840713501,4.0593695640563965,0.31815341114997864,0.22751620411872864,-0.1226823702454567,2.32932448387146
365,52283,52280,-0.009524145163595676,0.0028623377438634634,0.9236189126968384,0.8521429300308228,7.494728088378906,-1.3173723220825195,2.0873661041259766,4.0598225593566895,0.31918126344680786,0.12379187345504761,-0.0896754190325737,2.3121492862701416
366,52293,52290,0.0033885652665048838,0.05532357469201088,0.8983138799667358,0.005858306773006916,2.6941702365875244,-1.682214379310608,2.0874521732330322,4.060186862945557,0.3193601369857788,0.21166200935840607,-0.06819341331720352,2.3353404998779297
367,52303,52300,-0.04214896261692047,0.03722679615020752,0.9967190623283386,-2.9868083000183105,-0.6009854674339294,-2.454178810119629,2.0873491764068604,4.060734272003174,0.3194785714149475,0.27289843559265137,-0.13800625503063202,2.310699701309204
368,52313,52310,-0.0021652423311024904,-0.008431043475866318,0.9664708971977234,-3.454270362854004,-1.78792405128479,-2.185464382171631,2.0884530544281006,4.061149597167969,0.31943902373313904,0.2351677417755127,-0.15755638480186462,2.2882070541381836
369,52323,52320,-0.03756317123770714,0.10985119640827179,0.9121658205986023,-2.737879753112793,-1.12516188621521,-2.3276236057281494,2.0883965492248535,4.060995101928711,0.31440165638923645,0.3546922504901886,-0.18887050449848175,2.2954254150390625
370,52333,52330,-0.07504037022590637,0.17691007256507874,0.9034589529037476,-1.4938220977783203,-0.24015375971794128,-1.8566529750823975,2.0890417098999023,4.062264919281006,0.3140069842338562,0.29618170857429504,-0.20609843730926514,2.3044235706329346
371,52343,52340,-0.039209380745887756,0.02788739651441574,0.9743756651878357,0.7771151065826416,2.4169600009918213,-1.940386176109314,2.090256929397583,4.061910152435303,0.31354469060897827,0.30149441957473755,-0.19968833029270172,2.2584054470062256
372,52353,52350,0.009389479644596577,-0.042393069714307785,0.9661998748779297,3.262514591217041,5.530895709991455,-2.052086114883423,2.0915467739105225,4.061779975891113,0.31475263833999634,0.2556277811527252,-0.1671813279390335,2.2387733459472656
373,52363,52360,-0.01055832114070654,-0.045999567955732346,0.9766708612442017,6.150009632110596,8.949664115905762,-1.586201548576355,2.092304229736328,4.062140941619873,0.3142978847026825,0.23962034285068512,-0.16769124567508698,2.217796802520752
374,52373,52370,-0.03046415001153946,-0.010486386716365814,0.9925045967102051,6.5824294090271,11.061247825622559,-2.032270669937134,2.0930986404418945,4.06154727935791,0.31381818652153015,0.1714141070842743,-0.048777274787425995,2.1835060119628906
375,52383,52380,0.01400091964751482,-0.03566620126366615,0.9986522793769836,6.086491584777832,11.238411903381348,-2.4810996055603027,2.0938892364501953,4.061991214752197,0.31154751777648926,0.073280468583107,-0.005416147876530886,2.173189878463745
376,52393,52390,-0.004469767678529024,-0.0010804649209603667,0.992119312286377,4.75942850112915,8.717577934265137,-3.4632837772369385,2.094557046890259,4.062403202056885,0.31095731258392334,-0.01818729005753994,0.02665552869439125,2.146165132522583
377,52403,52400,-0.037206172943115234,-0.011832928285002708,1.0854493379592896,3.050682544708252,3.92385196685791,-4.4898681640625,2.094804048538208,4.062619686126709,0.31037160754203796,-0.07830554246902466,0.03915952891111374,2.105870485305786
378,52413,52410,0.01213619764894247,-0.02130347490310669,1.0266101360321045,-0.5120849013328552,1.73044753074646,-4.839666366577148,2.0950045585632324,4.0625481605529785,0.309602290391922,-0.07872718572616577,0.09752359241247177,2.075267791748047
379,52423,52420,0.0059494818560779095,-0.039560455828905106,1.0339055061340332,-2.220802068710327,-1.0628960132598877,-5.355093479156494,2.0967600345611572,4.063352584838867,0.30903032422065735,-0.1833077073097229,0.028234869241714478,2.034499168395996
380,52433,52430,-0.012954643927514553,-0.03988577798008919,1.0347124338150024,-3.6579060554504395,-0.49636465311050415,-5.959216117858887,2.0968427658081055,4.063955783843994,0.3085419237613678,-0.16726945340633392,0.01661445014178753,1.9817801713943481
381,52443,52440,0.004350106697529554,-0.015725888311862946,1.0111125707626343,-1.965972900390625,0.5528679490089417,-6.445974349975586,2.0978636741638184,4.064099311828613,0.3080800473690033,-0.15575549006462097,-0.002730600070208311,1.9239871501922607
382,52453,52450,-0.006998486816883087,0.03610006719827652,1.064668893814087,0.2821412980556488,1.0629061460494995,-6.504362106323242,2.098684072494507,4.063997745513916,0.3052307069301605,-0.16026663780212402,-0.009455608204007149,1.8545386791229248
383,52463,52460,0.005469524301588535,0.007621886674314737,1.0485457181930542,2.4341883659362793,1.6670702695846558,-6.9229207038879395,2.099400281906128,4.063841819763184,0.30467984080314636,-0.18076355755329132,0.018894175067543983,1.7896062135696411
384,52473,52470,-0.03999759256839752,0.0008265181095339358,0.9892138838768005,4.677050590515137,1.7699142694473267,-6.922447681427002,2.1002728939056396,4.064419269561768,0.3041684627532959,-0.20522163808345795,0.007788812275975943,1.7247216701507568
385,52483,52480,-0.03432866930961609,0.02371058240532875,1.0406179428100586,5.897154808044434,0.13642600178718567,-7.843094825744629,2.1015865802764893,4.0647172927856445,0.3044147193431854,-0.3017900884151459,0.08648426830768585,1.578089714050293
386,52493,52490,-0.0008626176859252155,-0.02843228168785572,1.037124752998352,6.932689666748047,-3.6639468669891357,-8.71123218536377,2.1002988815307617,4.064492225646973,0.30402716994285583,-0.19639690220355988,0.16023851931095123,1.598551630973816
387,52503,52500,0.03756464272737503,-0.12180527299642563,0.9932549595832825,8.193037033081055,-2.7400500774383545,-11.45206356048584,2.099742889404297,4.064116477966309,0.3037627935409546,-0.06474486738443375,0.29637905955314636,1.5191223621368408
388,52513,52510,-0.010015483945608139,-0.04103417694568634,0.9574323296546936,4.988387584686279,-5.852465629577637,-10.269800186157227,2.1008284091949463,4.064706325531006,0.30361804366111755,-0.07604564726352692,0.27100110054016113,1.386819839477539
389,52523,52520,8.356284524779767e-05,-0.05377224460244179,0.9881325364112854,0.6824280023574829,-1.6730281114578247,-10.408310890197754,2.10193133354187,4.064587116241455,0.303221732378006,-0.07917395234107971,0.36886000633239746,1.2765957117080688
390,52533,52530,0.021172480657696724,-0.04215847700834274,1.0735441446304321,-3.1346819400787354,-0.13715040683746338,-10.494900703430176,2.101602554321289,4.064644813537598,0.3028673827648163,0.04212674871087074,0.3966260254383087,1.1513224840164185
391,52543,52540,0.00207303324714303,-0.013076972216367722,1.0431902408599854,-5.988718509674072,1.5766730308532715,-10.329483985900879,2.102245330810547,4.065357685089111,0.3024742007255554,0.027080511674284935,0.22892946004867554,0.9354746341705322
392,52553,52550,-0.010379319079220295,-0.04688639938831329,1.0188311338424683,-5.842469215393066,1.7661770582199097,-10.143266677856445,2.104193925857544,4.065337181091309,0.29987433552742004,-0.1398312747478485,0.21630792319774628,0.9151573777198792
393,52563,52560,0.03247901052236557,-0.08522607386112213,1.046372652053833,-5.589910984039307,1.5625017881393433,-10.505520820617676,2.1047863960266113,4.0655694007873535,0.2994508743286133,-0.15560007095336914,0.13920113444328308,0.8031347393989563
394,52573,52570,0.03315472602844238,-0.20778580009937286,1.081207275390625,-2.426470994949341,0.5047662258148193,-10.607213020324707,2.1048738956451416,4.065829753875732,0.299155592918396,-0.09032858163118362,0.07928235083818436,0.7366635799407959
395,52583,52580,0.02804008312523365,-0.13606710731983185,1.0925527811050415,0.6570123434066772,-0.541080892086029,-10.338980674743652,2.105350971221924,4.066563129425049,0.298920214176178,-0.07580391317605972,0.06098943576216698,0.5176068544387817
396,52593,52590,0.0004540494119282812,-0.04194721579551697,1.0214818716049194,1.4024195671081543,-0.9646508097648621,-9.885150909423828,2.1057119369506836,4.06619119644165,0.2986810803413391,-0.06872096657752991,0.09345656633377075,0.5181253552436829
397,52603,52600,-0.004709180910140276,-0.04143409803509712,1.056398868560791,2.6974644660949707,-0.34205082058906555,-10.032966613769531,2.107239246368408,4.066776275634766,0.298441618680954,-0.20660758018493652,0.0667266771197319,0.42036229372024536
398,52613,52610,-0.018536008894443512,0.021156303584575653,0.9898374676704407,-0.3334423899650574,-0.07632455974817276,-9.083949089050293,2.1070683002471924,4.067356586456299,0.29795414209365845,-0.10346539318561554,0.12214235961437225,0.3756484091281891
399,52623,52620,-0.020458359271287918,0.042784612625837326,1.059657335281372,-2.4101104736328125,0.8421955108642578,-9.876262664794922,2.1070919036865234,4.068480491638184,0.2978842258453369,-0.020354246720671654,0.0720190703868866,0.2646879553794861
400,52633,52630,-0.0006792391068302095,-0.0028444493655115366,0.9833428263664246,-5.565434455871582,-0.09366364777088165,-10.112910270690918,2.1079487800598145,4.068661212921143,0.29781079292297363,-0.023591043427586555,0.056012798100709915,0.18120349943637848
401,52643,52640,-0.01818651705980301,0.04171529412269592,1.0621289014816284,-7.109372138977051,1.9077385663986206,-9.986014366149902,2.10813045501709,4.0691328048706055,0.30106979608535767,0.03512914851307869,-0.007843858562409878,0.0824190080165863
402,52653,52650,0.028834249824285507,-0.11383296549320221,1.0502235889434814,-5.8854498863220215,4.541571617126465,-9.879765510559082,2.1099517345428467,4.069443225860596,0.3011683225631714,-0.15651002526283264,-0.08439402282238007,-0.02092367596924305
403,52663,52660,0.011683492921292782,-0.028939932584762573,1.0396679639816284,-4.032947063446045,7.424907684326172,-9.98226261138916,2.1091904640197754,4.069899559020996,0.3013295531272888,-0.1430024802684784,-0.14788635075092316,-0.09627652913331985
404,52673,52670,0.0025357899721711874,0.010968132875859737,1.0348467826843262,-1.7671269178390503,7.193018436431885,-10.001947402954102,2.110250473022461,4.070254802703857,0.30153805017471313,-0.24447809159755707,-0.18212014436721802,-0.1524391621351242
405,52683,52680,0.013681394048035145,-0.01225400622934103,1.0247491598129272,-0.0018296310445293784,4.429306983947754,-9.84181022644043,2.1103925704956055,4.070645332336426,0.30100035667419434,-0.26956576108932495,-0.17965862154960632,-0.25796687602996826
406,52693,52690,-0.020965149626135826,-0.13676320016384125,1.0543283224105835,3.0893752574920654,0.8349869251251221,-9.528609275817871,2.110579013824463,4.069944381713867,0.3012241721153259,-0.32589077949523926,-0.1389600932598114,-0.38366374373435974
407,52703,52700,0.013133876956999302,-0.04263518005609512,1.0080547332763672,4.579041481018066,-2.603060007095337,-9.61648941040039,2.1104941368103027,4.069650173187256,0.3016244173049927,-0.2525067925453186,-0.06758302450180054,-0.5225024819374084
408,52713,52710,-0.06107152998447418,-0.03643608093261719,1.006118893623352,3.8001296520233154,-5.18486213684082,-8.418049812316895,2.1123251914978027,4.069454193115234,0.3025140166282654,-0.4302428364753723,-0.05235490947961807,-0.607394278049469
409,52723,52720,0.003529162611812353,-0.0022931040730327368,1.0145857334136963,2.7911882400512695,-5.600478172302246,-8.705191612243652,2.113340139389038,4.06984281539917,0.3028552532196045,-0.41026830673217773,-0.044719383120536804,-0.6986287236213684
410,52733,52730,-0.0047062234953045845,0.03613860532641411,1.0244535207748413,0.45605728030204773,-2.5749592781066895,-9.052525520324707,2.112975835800171,4.070669174194336,0.3033972382545471,-0.23943154513835907,-0.05488075315952301,-0.7710233330726624
411,52743,52740,-0.01458209753036499,0.0372794084250927,1.0335798263549805,-0.18233256042003632,0.048479482531547546,-9.220088958740234,2.1142454147338867,4.07021951675415,0.3021767735481262,-0.25504806637763977,-0.011191624216735363,-0.8835824728012085
412,52753,52750,0.0369989350438118,0.07964200526475906,0.9794809818267822,-1.9547816514968872,1.2629978656768799,-9.228013038635254,2.114776849746704,4.0715651512146,0.3025064468383789,-0.2501040995121002,-0.13855049014091492,-1.0074084997177124
413,52763,52760,0.00352203706279397,0.026231780648231506,0.9610652923583984,-1.916081428527832,2.69887638092041,-10.365215301513672,2.116227865219116,4.071235656738281,0.30277201533317566,-0.34895819425582886,-0.12502804398536682,-1.1156702041625977
414,52773,52770,-0.010121328756213188,0.14888833463191986,0.9487075805664062,-0.4023151397705078,1.576175332069397,-10.347213745117188,2.115854024887085,4.070970058441162,0.3032236397266388,-0.28705817461013794,-0.118027463555336,-1.2123256921768188
415,52783,52780,-0.015674849972128868,0.03296878933906555,1.0024594068527222,3.101975679397583,-0.4165589511394501,-10.60754680633545,2.1166441440582275,4.070791721343994,0.30206507444381714,-0.29650768637657166,-0.07534794509410858,-1.325937032699585
416,52793,52790,0.0023823340889066458,-0.09016188979148865,0.9813386797904968,6.93605899810791,-2.3107335567474365,-10.702412605285645,2.1176483631134033,4.071106433868408,0.30225038528442383,-0.27229809761047363,-0.05713999271392822,-1.4502838850021362
417,52803,52800,0.0015021368162706494,-0.030825795605778694,0.9884223937988281,7.488842010498047,-2.7688145637512207,-9.586310386657715,2.1172616481781006,4.070871829986572,0.3024979829788208,-0.15328745543956757,0.015007523819804192,-1.5637603998184204
418,52813,52810,-0.015323609113693237,0.04270048439502716,0.9785383939743042,3.7792813777923584,-1.9622232913970947,-8.236212730407715,2.118483543395996,4.071863174438477,0.30340874195098877,-0.18089154362678528,0.01453017070889473,-1.666183590888977
419,52823,52820,-0.046982016414403915,0.11863429099321365,0.986448347568512,-1.374833583831787,-0.8446919918060303,-6.785785675048828,2.119638681411743,4.071824073791504,0.303524374961853,-0.2151576280593872,0.11180365830659866,-1.757533311843872
420,52833,52830,0.010617478750646114,0.027194764465093613,0.9867570400238037,-4.679819583892822,0.759745717048645,-6.308385372161865,2.1208982467651367,4.071820259094238,0.3035604953765869,-0.2654401659965515,0.12777431309223175,-1.8296189308166504
421,52843,52840,0.025066476315259933,0.03473031148314476,0.9936239719390869,-4.823851585388184,2.681821584701538,-5.398434162139893,2.1209628582000732,4.07213830947876,0.3078310489654541,-0.20026308298110962,0.09666798263788223,-1.8956236839294434
422,52853,52850,0.011644952930510044,0.03355831280350685,1.0097754001617432,-6.3885393142700195,2.6029279232025146,-4.707764148712158,2.121687889099121,4.071844100952148,0.30809107422828674,-0.3000352680683136,0.043644942343235016,-1.9993016719818115
423,52863,52860,-0.05005159229040146,-0.050572626292705536,1.0146147012710571,-4.606839656829834,0.09576961398124695,-3.0172641277313232,2.121988534927368,4.071861267089844,0.3084930181503296,-0.2328554093837738,-0.017682034522294998,-2.04813289642334
424,52873,52870,0.02919672429561615,-0.02502421848475933,0.9509300589561462,-2.4108612537384033,-0.5398246645927429,-1.312541127204895,2.122789144515991,4.0715413093566895,0.3087826073169708,-0.30839186906814575,-0.06861069053411484,-2.1169373989105225
425,52883,52880,-0.02003343217074871,-0.04717811942100525,1.0683332681655884,1.7511732578277588,-4.12936544418335,-0.08966627717018127,2.122706651687622,4.072876453399658,0.3074653744697571,-0.25979578495025635,-0.14476506412029266,-2.1256086826324463
426,52893,52890,-0.012447761371731758,-0.008797899819910526,1.0062240362167358,4.20552921295166,-5.947132110595703,1.7951699495315552,2.122877836227417,4.0719313621521,0.3077795207500458,-0.16937275230884552,-0.07601228356361389,-2.1270062923431396
427,52903,52900,-0.00650330213829875,-0.10840463638305664,1.033381462097168,4.614414691925049,-5.5997819900512695,2.382734537124634,2.12300705909729,4.073057174682617,0.3080665171146393,-0.06850312650203705,-0.12157150357961655,-2.114806652069092
428,52913,52910,0.005518532823771238,-0.02915157563984394,1.0078080892562866,2.9916417598724365,-3.547752618789673,3.147618532180786,2.125253438949585,4.073049068450928,0.3088844418525696,-0.12190063297748566,-0.08840233832597733,-2.127934694290161
429,52923,52920,0.014957910403609276,0.0095272958278656,1.0017423629760742,3.736236333847046,-3.12123441696167,3.569080114364624,2.1255810260772705,4.072882652282715,0.30922794342041016,-0.04411517456173897,-0.06193595752120018,-2.1329855918884277
430,52933,52930,0.008337882347404957,0.002237386768683791,1.0210741758346558,1.8848237991333008,-2.6182730197906494,4.154578685760498,2.1267130374908447,4.073372840881348,0.3095342218875885,-0.061326269060373306,0.03304940089583397,-2.0808653831481934
431,52943,52940,0.047506194561719894,-0.019436823204159737,1.0097483396530151,0.7886900901794434,-5.938304901123047,4.946835994720459,2.127490282058716,4.073610782623291,0.3056196868419647,0.019099488854408264,0.10964195430278778,-1.9585386514663696
432,52953,52950,0.13752244412899017,0.0057151224464178085,0.9486798644065857,-1.332215666770935,-3.7767350673675537,4.158584117889404,2.1289591789245605,4.075613498687744,0.30565881729125977,0.022333111613988876,0.0018414381192997098,-1.9192438125610352
433,52963,52960,0.12723897397518158,-0.0498695932328701,0.8839813470840454,-2.9764411449432373,-4.716026306152344,4.536782264709473,2.1288511753082275,4.075686454772949,0.3056081533432007,0.09261154383420944,-0.12597626447677612,-1.9481943845748901
434,52973,52970,0.05141898989677429,-0.009603064507246017,0.9584124088287354,-2.147150754928589,-4.981926918029785,4.899774074554443,2.130513906478882,4.075841903686523,0.30555790662765503,0.03398837521672249,-0.11373569071292877,-1.9388219118118286
435,52983,52980,0.0205820482224226,-0.033503975719213486,0.9631302952766418,2.142112970352173,-5.175381183624268,4.430702209472656,2.130169153213501,4.075547218322754,0.308157354593277,0.218358114361763,-0.08501844108104706,-1.899304747581482
436,52993,52990,-0.005711373407393694,0.08916011452674866,0.9758642911911011,9.026738166809082,-7.287562370300293,4.287297248840332,2.130971670150757,4.074129104614258,0.30805954337120056,0.17771553993225098,-0.05671113729476929,-1.9345654249191284
437,53003,53000,0.02082904987037182,-0.012781535275280476,0.9775121808052063,16.20103645324707,-8.832992553710938,4.408833026885986,2.1306917667388916,4.074380874633789,0.30817216634750366,0.38628849387168884,0.014188631437718868,-1.8929975032806396
438,53013,53010,-0.017779916524887085,-0.024213679134845734,1.0149301290512085,19.562923431396484,-3.366159200668335,3.5559332370758057,2.1306545734405518,4.072796821594238,0.30981552600860596,0.502212405204773,0.2524188458919525,-1.9184587001800537
439,53023,53020,-0.001501588150858879,-0.05414272099733353,0.9623688459396362,21.639829635620117,3.9908852577209473,2.1557693481445312,2.131498098373413,4.073683738708496,0.3098987936973572,0.5398106575012207,0.3187287449836731,-1.9078363180160522
440,53033,53030,0.027273211628198624,-0.07850442826747894,0.941439688205719,18.924341201782227,9.621711730957031,0.30478909611701965,2.1317789554595947,4.073966979980469,0.3099505305290222,0.532921314239502,0.5573311448097229,-1.8727840185165405
441,53043,53040,0.018595676869153976,-0.030532142147421837,0.9730355739593506,15.569903373718262,11.835607528686523,-1.8713274002075195,2.1332037448883057,4.075193405151367,0.3120627701282501,0.36933228373527527,0.6836694478988647,-1.8745639324188232
442,53053,53050,0.009130693972110748,-0.0652371421456337,0.9460891485214233,11.19395923614502,11.945881843566895,-3.141237735748291,2.135051727294922,4.075281620025635,0.3121701776981354,0.1827465295791626,0.8329261541366577,-1.894499659538269
443,53063,53060,0.003155443584546447,-0.012691558338701725,0.9503701329231262,6.431879043579102,9.020227432250977,-4.329854488372803,2.135754108428955,4.076657295227051,0.31226685643196106,0.08037154376506805,0.9046964049339294,-1.8884906768798828
444,53073,53070,-0.06076763570308685,0.040178075432777405,0.9627060294151306,4.751677989959717,2.9825279712677,-5.396430492401123,2.135986089706421,4.07680606842041,0.31356585025787354,0.028002727776765823,0.9902817606925964,-1.9418234825134277
445,53083,53080,0.0021138947922736406,-0.0010252627544105053,0.960192084312439,6.6515326499938965,-1.060578465461731,-6.079200267791748,2.136429786682129,4.077853679656982,0.3136996030807495,0.06167949363589287,0.984647274017334,-2.0043487548828125
446,53093,53090,-0.042365845292806625,0.06894546747207642,0.9692173600196838,7.815890789031982,-0.15934722125530243,-6.90713357925415,2.1378073692321777,4.076874256134033,0.31368088722229004,-0.009739050641655922,1.1522305011749268,-2.0767314434051514
447,53103,53100,-0.04445677623152733,0.10200368613004684,0.9778808355331421,5.729625701904297,5.553649425506592,-7.642603397369385,2.138263463973999,4.077158451080322,0.31361135840415955,-0.020586227998137474,1.2358877658843994,-2.1389477252960205
448,53113,53110,-0.02069777064025402,-0.030280200764536858,0.955944299697876,3.9965031147003174,7.063129901885986,-8.783584594726562,2.1394765377044678,4.078019618988037,0.31154778599739075,-0.10747913271188736,1.291891098022461,-2.2025766372680664
449,53123,53120,-0.012685272842645645,-0.03139927238225937,0.9644648432731628,-0.39790478348731995,9.522980690002441,-10.009479522705078,2.140331983566284,4.078438758850098,0.3113905191421509,-0.16018296778202057,1.3053689002990723,-2.286235809326172
450,53133,53130,-0.013892849907279015,-0.051546595990657806,0.9639261364936829,-3.801124095916748,10.621529579162598,-10.577832221984863,2.1416308879852295,4.078640937805176,0.3112240433692932,-0.23308968544006348,1.334740161895752,-2.396045207977295
451,53143,53140,-0.006664005108177662,-0.02155865542590618,0.9363914728164673,-5.387985706329346,8.258865356445312,-10.420540809631348,2.141911506652832,4.078941822052002,0.3106567859649658,-0.3157995939254761,1.3058968782424927,-2.49419903755188
452,53153,53150,-0.020700138062238693,0.04759210720658302,0.9408411383628845,-5.260264873504639,2.19089937210083,-9.872953414916992,2.142251968383789,4.079897880554199,0.3104116916656494,-0.34552621841430664,1.1780251264572144,-2.619131326675415
453,53163,53160,-0.012107749469578266,0.08733844012022018,0.9700207710266113,-2.0543477535247803,-4.941152572631836,-9.844291687011719,2.1430294513702393,4.078965663909912,0.31012213230133057,-0.34838518500328064,1.2232086658477783,-2.72609281539917
454,53173,53170,-0.01839601993560791,0.020709728822112083,0.996141791343689,1.2568726539611816,-10.734728813171387,-9.545392036437988,2.1428024768829346,4.078372478485107,0.30612435936927795,-0.23894986510276794,1.22218918800354,-2.852501630783081
455,53183,53180,0.012056753039360046,-0.04283019155263901,1.017334222793579,6.606387138366699,-9.414368629455566,-8.783559799194336,2.143705129623413,4.077652931213379,0.3054298162460327,-0.1509687900543213,1.2894353866577148,-2.9846999645233154
456,53193,53190,-0.011918642558157444,-0.015543474815785885,1.0138918161392212,9.734758377075195,-5.989352226257324,-6.510268211364746,2.1456828117370605,4.076723098754883,0.30470991134643555,-0.24259039759635925,1.4274420738220215,-3.1860604286193848
457,53203,53200,-0.03954276069998741,0.040804967284202576,0.9937902092933655,8.169486999511719,-2.676342248916626,-5.1554951667785645,2.1457488536834717,4.075881481170654,0.3040415644645691,-0.21606847643852234,1.4315526485443115,-3.2894537448883057
458,53213,53210,-0.012775198556482792,-0.008280180394649506,1.0105032920837402,6.039307594299316,-1.555842399597168,-4.115480899810791,2.1462714672088623,4.07511043548584,0.302338182926178,-0.15415836870670319,1.5709595680236816,-3.361417531967163
459,53223,53220,-0.031410034745931625,0.01757008023560047,1.0226976871490479,1.847265601158142,1.5243055820465088,-3.6188039779663086,2.1475086212158203,4.076173782348633,0.30179813504219055,-0.11610453575849533,1.4918135404586792,-3.408562421798706
460,53233,53230,0.005021640099585056,-0.0031010746024549007,1.010398030281067,-0.5017897486686707,4.856626033782959,-3.068589448928833,2.1492509841918945,4.076333999633789,0.3010697364807129,-0.21381092071533203,1.5285042524337769,-3.4351017475128174
461,53243,53240,-0.024414002895355225,-0.03624292463064194,0.9900698661804199,-1.2190911769866943,5.051599502563477,-2.2795093059539795,2.148989200592041,4.0763750076293945,0.3050127327442169,-0.12476175278425217,1.5241433382034302,-3.4346697330474854
462,53253,53250,0.000995901064015925,-0.10590201616287231,1.022731900215149,-3.280255079269409,3.094099998474121,-2.5939087867736816,2.1504828929901123,4.076646327972412,0.3046990931034088,-0.1903185397386551,1.4947149753570557,-3.4610068798065186
463,53263,53260,-0.030725620687007904,0.006726243998855352,1.0416826009750366,-3.2698540687561035,-3.5652873516082764,-1.9089096784591675,2.151113748550415,4.076956748962402,0.30447128415107727,-0.19414803385734558,1.4512267112731934,-3.478518486022949
464,53273,53270,-0.01829387992620468,0.01855398155748844,1.0319709777832031,-6.691661357879639,-7.1447649002075195,-1.0555989742279053,2.151686429977417,4.076585292816162,0.3082933723926544,-0.11776135116815567,1.4629786014556885,-3.4875288009643555
465,53283,53280,0.00599666265770793,-0.03822972998023033,0.9980224370956421,-11.925393104553223,-9.652873039245605,-1.262457251548767,2.1521928310394287,4.075294494628906,0.30822786688804626,-0.0638427808880806,1.4093265533447266,-3.5748960971832275
466,53293,53290,-0.0031444262713193893,-0.04208245128393173,1.0066938400268555,-17.6431827545166,-8.66761302947998,0.1950661689043045,2.1528685092926025,4.07504940032959,0.30821967124938965,0.017471907660365105,1.2565362453460693,-3.6218833923339844
467,53303,53300,-0.007213209290057421,-0.015039878897368908,1.034678339958191,-23.30968475341797,-5.371160984039307,0.7918156981468201,2.1540420055389404,4.074240684509277,0.30811789631843567,0.0037705451250076294,1.1689742803573608,-3.575615167617798
468,53313,53310,-0.006997702643275261,-0.024527106434106827,1.0029957294464111,-25.189855575561523,0.8834181427955627,1.7798913717269897,2.1540489196777344,4.0752973556518555,0.30887553095817566,0.16215360164642334,0.9155094623565674,-3.531431198120117
469,53323,53320,-0.016701363027095795,-0.027143478393554688,1.0021779537200928,-23.8194580078125,9.153717994689941,3.0054099559783936,2.1553955078125,4.07493257522583,0.30885234475135803,0.04480193182826042,0.6412550806999207,-3.5598983764648438
470,53333,53330,-0.03270997107028961,-0.012801865115761757,1.0091854333877563,-19.923267364501953,14.421927452087402,4.614691257476807,2.1561789512634277,4.072972297668457,0.3089994490146637,-0.024368464946746826,0.5498602986335754,-3.570375919342041
471,53343,53340,-0.020479289814829826,-0.05850306525826454,0.9742746949195862,-12.224102020263672,14.908117294311523,6.61207389831543,2.157494068145752,4.072719097137451,0.3114946484565735,-0.1849057972431183,0.30042412877082825,-3.5492780208587646
472,53353,53350,0.0009525662753731012,-0.023922525346279144,1.0147217512130737,-2.8750998973846436,5.29035758972168,8.281834602355957,2.158050775527954,4.072851657867432,0.3117651641368866,-0.30734604597091675,0.18374742567539215,-3.446021318435669
473,53363,53360,-0.0004946810659021139,-0.014945371076464653,1.016831398010254,4.631916522979736,-4.947007656097412,10.97232437133789,2.1580941677093506,4.071416854858398,0.3121664226055145,-0.27225348353385925,0.28539711236953735,-3.373223066329956
474,53373,53370,-0.0004178001545369625,-0.027633750811219215,1.0000630617141724,6.864060878753662,-13.083494186401367,13.73072338104248,2.157480239868164,4.071022987365723,0.31274327635765076,-0.07682602852582932,0.2540091574192047,-3.270272970199585
475,53383,53380,-0.004045359790325165,-0.023675670847296715,0.9937266707420349,4.76621675491333,-15.381120681762695,14.566210746765137,2.158583402633667,4.070969581604004,0.313032865524292,-0.009817596524953842,0.3293169438838959,-3.079021453857422
476,53393,53390,-0.010560717433691025,0.015560195781290531,1.015860915184021,-3.2260022163391113,-9.585264205932617,13.925615310668945,2.159618377685547,4.071337699890137,0.31334251165390015,0.07552541047334671,0.3450545072555542,-2.9389779567718506
477,53403,53400,-0.006759756710380316,-0.022357016801834106,0.9890979528427124,-13.919013023376465,2.045212507247925,13.195380210876465,2.1593589782714844,4.072059631347656,0.3144691586494446,0.2718193531036377,0.21800188720226288,-2.772616147994995
478,53413,53410,0.0010971574811264873,-0.015045464038848877,0.9676441550254822,-22.670608520507812,13.761527061462402,13.564339637756348,2.161337375640869,4.071822166442871,0.314828097820282,0.12553903460502625,0.08962791413068771,-2.6372525691986084
479,53423,53420,-0.025215592235326767,-0.06511873751878738,0.9770538806915283,-26.333534240722656,23.157073974609375,13.612483024597168,2.161545991897583,4.070444583892822,0.31521281599998474,0.027562841773033142,-0.009862472303211689,-2.517395496368408
