,timestamp_start,timestamp_end,acc.x,acc.y,acc.z,gyro.x,gyro.y,gyro.z,stateEstimate.x,stateEstimate.y,stateEstimate.z,stabilizer.pitch,stabilizer.roll,stabilizer.yaw
0,50933,50932,0.029135247692465782,-0.04872966930270195,1.048780918121338,-4.091261863708496,6.344841957092285,-1.7573176622390747,2.019160747528076,4.026493549346924,0.17454737424850464,1.5697307586669922,-0.7749090790748596,1.7620519399642944
1,50943,50942,0.018514281138777733,-0.0074159083887934685,1.0364545583724976,-4.4976091384887695,7.734781265258789,-1.7626316547393799,2.0186681747436523,4.026058197021484,0.1762801706790924,1.5354783535003662,-0.846821665763855,1.7515777349472046
2,50953,50952,-0.009132687002420425,-0.013231853023171425,1.0589920282363892,-3.763214111328125,8.429173469543457,-2.0081686973571777,2.017219305038452,4.024969577789307,0.1779693216085434,1.5477135181427002,-0.7702022790908813,1.6945044994354248
3,50963,50962,0.00730320205911994,-0.01626453921198845,1.0215703248977661,-1.513810396194458,8.861393928527832,-1.987082600593567,2.016594171524048,4.023194789886475,0.17873738706111908,1.3882817029953003,-0.6953938007354736,1.647753357887268
4,50973,50972,-0.06815711408853531,0.198494553565979,1.027793288230896,-1.895761251449585,9.456215858459473,-1.4101371765136719,2.0168936252593994,4.02476167678833,0.18075494468212128,1.1525142192840576,-0.8152705430984497,1.6631923913955688
5,50983,50982,0.01567438803613186,-0.04073188453912735,1.0179113149642944,-2.9890594482421875,9.452638626098633,-1.1848171949386597,2.0165414810180664,4.025243759155273,0.18254847824573517,1.0737502574920654,-0.7137859463691711,1.6188488006591797
6,50993,50992,-0.01341794803738594,-0.04488828033208847,1.0653836727142334,-4.088612079620361,8.84405517578125,-1.4643868207931519,2.016493797302246,4.025017261505127,0.18280425667762756,0.924169659614563,-0.723836362361908,1.6059156656265259
7,51003,51002,-0.0004224238800816238,0.04911413416266441,1.0490474700927734,-6.724564552307129,4.896725177764893,-1.0263434648513794,2.0171408653259277,4.0255208015441895,0.18463937938213348,0.7958104014396667,-0.8309129476547241,1.603686809539795
8,51013,51012,0.0267568938434124,-0.08108337223529816,1.0558594465255737,-5.902312755584717,2.476869821548462,-2.0497617721557617,2.0153138637542725,4.025814533233643,0.18668554723262787,0.8731076717376709,-0.9460262656211853,1.5857752561569214
9,51023,51022,-0.01663215458393097,-0.09600530564785004,1.061978816986084,-4.576104164123535,-0.8696494102478027,-1.4582931995391846,2.0149190425872803,4.025981426239014,0.18885475397109985,0.9001922011375427,-1.116183876991272,1.5743420124053955
10,51033,51032,0.014316574670374393,-0.0895758643746376,1.0939699411392212,-1.7170401811599731,0.21525859832763672,-1.864543080329895,2.014127492904663,4.027979850769043,0.19079558551311493,0.9518256783485413,-1.2261921167373657,1.563091516494751
11,51043,51042,-0.0050222123973071575,0.05714375898241997,0.9926802515983582,1.8909279108047485,3.0355300903320312,-1.550600290298462,2.0138323307037354,4.02819299697876,0.19313663244247437,0.8972201347351074,-1.198488473892212,1.5394469499588013
12,51053,51052,-0.003923435695469379,0.061857715249061584,1.078282117843628,4.318614482879639,6.002525806427002,-0.7860797047615051,2.0143866539001465,4.0298848152160645,0.19532565772533417,0.8743131160736084,-1.0599286556243896,1.5142605304718018
13,51063,51062,0.01947709359228611,-0.06153960898518562,1.0176396369934082,6.450992584228516,7.84634256362915,-0.6710630655288696,2.0145046710968018,4.0309906005859375,0.20025594532489777,0.7429869771003723,-1.087212085723877,1.5244030952453613
14,51073,51072,-0.004668263252824545,0.03994700685143471,1.0682405233383179,7.198950290679932,11.521025657653809,-0.928903341293335,2.0149893760681152,4.026637077331543,0.20270924270153046,0.5939671397209167,-0.49978572130203247,1.4631757736206055
15,51083,51082,0.05832430720329285,0.025128275156021118,0.9491718411445618,5.422247886657715,7.8467583656311035,-0.20494040846824646,2.0151541233062744,4.028268337249756,0.205349400639534,0.4250285029411316,-0.508402407169342,1.469826102256775
16,51093,51092,-0.09873752295970917,-0.10944532603025436,1.074152946472168,-0.5777174830436707,1.4660440683364868,-0.1899474561214447,2.014624834060669,4.0291218757629395,0.20667877793312073,0.3987225294113159,-0.5660156607627869,1.472259521484375
17,51103,51102,-0.03277554735541344,-0.10281307995319366,1.010265588760376,-8.373640060424805,4.075655937194824,-1.0437748432159424,2.0136897563934326,4.029255390167236,0.20923058688640594,0.45196837186813354,-0.7401094436645508,1.4659608602523804
18,51113,51112,-0.03169608488678932,-0.04791157692670822,1.0050758123397827,-13.143183708190918,3.0939676761627197,-0.2870897054672241,2.013547897338867,4.029666900634766,0.21176764369010925,0.3144708275794983,-0.9895521998405457,1.478560447692871
19,51123,51122,0.08539672940969467,-0.05654711648821831,1.0205576419830322,-11.277958869934082,2.1849608421325684,-0.1848093718290329,2.0124571323394775,4.029628276824951,0.21359139680862427,0.41618382930755615,-1.027053713798523,1.4576338529586792
20,51133,51132,0.07018841803073883,-0.05711514130234718,1.0018646717071533,-5.644049644470215,0.6325454115867615,-0.050541166216135025,2.0123543739318848,4.027960777282715,0.21598868072032928,0.3755165934562683,-1.0782489776611328,1.4569562673568726
21,51143,51142,0.0002513212093617767,-0.008617455139756203,0.9973117113113403,1.026139497756958,2.1853010654449463,0.6280494332313538,2.012462854385376,4.027741432189941,0.21841835975646973,0.32942625880241394,-1.1654064655303955,1.4636690616607666
22,51153,51152,-0.022256044670939445,-0.006715180352330208,0.9960678219795227,6.360896587371826,3.085005760192871,0.9515358209609985,2.0120410919189453,4.028656005859375,0.22078518569469452,0.33459606766700745,-1.2275060415267944,1.4728095531463623
23,51163,51162,0.035132840275764465,-0.03847241774201393,0.9737024903297424,10.132525444030762,4.246327877044678,0.8547614216804504,2.0119895935058594,4.0281291007995605,0.2213740199804306,0.24722638726234436,-1.1196272373199463,1.4864587783813477
24,51173,51172,0.08017487078905106,-0.125177264213562,0.9825019836425781,11.205156326293945,5.267532825469971,1.0100778341293335,2.0104892253875732,4.029684066772461,0.22390706837177277,0.4367481768131256,-0.8848894238471985,1.476129412651062
25,51183,51182,-0.01481596753001213,-0.011572884395718575,0.9776854515075684,10.400996208190918,5.379263401031494,1.1907051801681519,2.0035336017608643,4.029204845428467,0.22510400414466858,1.1721091270446777,-0.7456738352775574,1.390618085861206
26,51193,51192,0.04212329909205437,0.001312903710640967,0.9298884272575378,4.901124000549316,12.109490394592285,1.4749319553375244,2.0043909549713135,4.029298782348633,0.22443787753582,0.8601328730583191,-0.6626766920089722,1.42727792263031
27,51203,51202,0.045081544667482376,-7.407520752167329e-05,0.94539475440979,0.17728665471076965,18.425201416015625,1.5650302171707153,2.0042662620544434,4.030282974243164,0.22697336971759796,0.5413404107093811,-0.6737960577011108,1.4621624946594238
28,51213,51212,-0.0032445862889289856,0.0008270422113128006,0.9717074632644653,-4.188621520996094,25.378623962402344,1.1373474597930908,2.002901315689087,4.030593395233154,0.22900895774364471,0.35272517800331116,-0.751583993434906,1.4708820581436157
29,51223,51222,-0.02911684662103653,-0.008649623021483421,0.9910035133361816,-6.160224914550781,30.399948120117188,0.8860394358634949,2.0049712657928467,4.033576488494873,0.23241832852363586,-0.20707204937934875,-0.8683593273162842,1.514054298400879
30,51233,51232,0.0740106850862503,0.007707038428634405,0.9537030458450317,-3.6094605922698975,23.788227081298828,1.355733871459961,2.0039620399475098,4.03418493270874,0.23447079956531525,-0.4423167407512665,-1.0406768321990967,1.5212410688400269
31,51243,51242,0.0230766199529171,0.06110873818397522,0.9682594537734985,1.3403903245925903,16.75188446044922,1.7372173070907593,2.002086639404297,4.035159587860107,0.2364525943994522,-0.6444303393363953,-1.0605742931365967,1.5262043476104736
32,51253,51252,0.004474349319934845,-0.023575559258461,0.964026689529419,8.490193367004395,8.48873233795166,1.916825532913208,2.00176739692688,4.035243988037109,0.24228568375110626,-0.7826104760169983,-0.9681811928749084,1.544694423675537
33,51263,51262,0.00028426299104467034,-0.057590316981077194,0.9636324644088745,13.656767845153809,3.7546732425689697,1.6325349807739258,2.001314163208008,4.035158634185791,0.2445087879896164,-0.8704131841659546,-0.7772135734558105,1.5697060823440552
34,51273,51272,-0.010772505775094032,-0.02267473004758358,0.9611942172050476,15.112798690795898,-4.387417793273926,1.9666469097137451,2.0002553462982178,4.037468433380127,0.24665464460849762,-0.7831891179084778,-0.757158100605011,1.5697799921035767
35,51283,51282,0.02896331250667572,0.05209475755691528,0.9519289135932922,13.520405769348145,-5.191030979156494,1.7189345359802246,2.000776529312134,4.039869785308838,0.24889425933361053,-0.7914673089981079,-0.579533040523529,1.6015592813491821
36,51293,51292,-0.006667022593319416,0.1130344495177269,0.9833647608757019,10.269554138183594,-4.053299903869629,1.622167944908142,1.9999635219573975,4.0409040451049805,0.2509887218475342,-0.7853518128395081,-0.4481026530265808,1.6243939399719238
37,51303,51302,-0.03214089572429657,0.11074676364660263,1.0000485181808472,7.448986530303955,-2.14276385307312,0.9427888989448547,2.000556468963623,4.045166015625,0.25311344861984253,-0.8105798959732056,-0.523783266544342,1.6242040395736694
38,51313,51312,-0.01540186908096075,0.01287879142910242,0.9587032198905945,3.6273999214172363,2.8665714263916016,1.1821868419647217,2.0003132820129395,4.045495986938477,0.2551848292350769,-0.8887660503387451,-0.4137064218521118,1.6460182666778564
39,51323,51322,0.02120778150856495,-0.10101597756147385,0.942854106426239,2.931865692138672,5.415041923522949,0.4761197865009308,2.002063512802124,4.048288822174072,0.2560879588127136,-1.167732834815979,-0.41716817021369934,1.6625516414642334
40,51333,51332,0.03823214769363403,0.022309716790914536,0.9437899589538574,2.1221814155578613,6.533881187438965,-0.18851518630981445,2.0012378692626953,4.050469875335693,0.25806930661201477,-1.127539873123169,-0.5686919093132019,1.6308239698410034
41,51343,51342,0.027962511405348778,0.030515845865011215,0.9213970899581909,4.945106029510498,1.4341708421707153,0.18087056279182434,1.9990997314453125,4.0519866943359375,0.2618786096572876,-1.0532387495040894,-0.44957613945007324,1.6394416093826294
42,51353,51352,0.01003266777843237,-0.057265251874923706,0.9131316542625427,9.968884468078613,-5.099423885345459,0.17112836241722107,1.999501347541809,4.053426742553711,0.26159343123435974,-1.0790404081344604,-0.3582341969013214,1.6486403942108154
43,51363,51362,-0.009389491751790047,-0.16075637936592102,0.9528454542160034,10.659257888793945,-1.6304904222488403,0.3504822552204132,1.9991958141326904,4.053991317749023,0.2633143365383148,-1.0424165725708008,-0.28517085313796997,1.6464320421218872
44,51373,51372,0.04806668683886528,-0.06362801045179367,0.9253010153770447,12.867484092712402,-1.8942371606826782,0.5413116812705994,1.9993054866790771,4.05458402633667,0.2650744318962097,-0.9874225854873657,-0.009658809751272202,1.6750528812408447
45,51383,51382,0.02192113921046257,0.010031399317085743,0.9549842476844788,12.852678298950195,-3.9493865966796875,0.40571630001068115,1.9990019798278809,4.056398868560791,0.26669853925704956,-0.9446424245834351,-0.06492174416780472,1.6428563594818115
46,51393,51392,-0.013433246873319149,-0.008708763867616653,0.9448497891426086,8.923196792602539,-5.210931777954102,0.9489936232566833,1.9989315271377563,4.056280136108398,0.26605769991874695,-0.8900446891784668,0.09306199848651886,1.6586540937423706
47,51403,51402,-0.013269119895994663,-0.002039598999544978,0.9503808617591858,5.300585746765137,-4.116424560546875,0.9953212738037109,1.9991039037704468,4.057436466217041,0.26742979884147644,-0.9147102236747742,0.1824440211057663,1.6721833944320679
48,51413,51412,-0.022919554263353348,0.006725447718054056,0.9440097212791443,2.7191569805145264,-4.490941047668457,1.121964931488037,2.000142812728882,4.058535575866699,0.26867708563804626,-1.014328122138977,0.13859449326992035,1.6662675142288208
49,51423,51422,0.0025729036424309015,0.004602480214089155,0.9308280944824219,0.020795932039618492,-2.320009469985962,1.5664088726043701,1.9999778270721436,4.061201095581055,0.2705758213996887,-0.9444948434829712,0.06507493555545807,1.6622931957244873
50,51433,51432,0.009434927254915237,0.011654149740934372,0.8999061584472656,1.8825457096099854,-3.1045212745666504,2.2924387454986572,1.9996041059494019,4.061274528503418,0.27180245518684387,-0.8751941919326782,0.15486657619476318,1.6964302062988281
51,51443,51442,0.03620181232690811,-0.024425217881798744,0.9134553074836731,6.0903496742248535,-6.646318435668945,2.091442108154297,1.998706340789795,4.063177585601807,0.2728925049304962,-0.7876737117767334,0.20520879328250885,1.720994234085083
52,51453,51452,-0.030731841921806335,0.042192794382572174,0.9860431551933289,9.437288284301758,-6.682143688201904,2.175093650817871,1.9995397329330444,4.064137935638428,0.27232763171195984,-0.7454832792282104,0.40364810824394226,1.7626508474349976
53,51463,51462,0.011263752356171608,-0.00849565677344799,0.9587610363960266,9.988158226013184,-5.993979454040527,1.9247896671295166,1.999170184135437,4.065115451812744,0.2732006311416626,-0.7162665724754333,0.5399991869926453,1.789004921913147
54,51473,51472,0.04699531942605972,-0.18596769869327545,0.9780674576759338,7.851872444152832,-4.843269348144531,2.0159285068511963,1.9998257160186768,4.068498134613037,0.274064302444458,-0.6800647974014282,0.4229145646095276,1.7716856002807617
55,51483,51482,-0.04830857738852501,0.006783780641853809,0.9715568423271179,4.166453838348389,-3.4283108711242676,2.1392762660980225,1.9996699094772339,4.0678815841674805,0.2748948633670807,-0.5989927053451538,0.5797706246376038,1.8114103078842163
56,51493,51492,-0.001330409082584083,-0.022064751014113426,0.9274299740791321,2.401454210281372,-2.486192226409912,2.074385643005371,2.0001721382141113,4.067656517028809,0.2778642475605011,-0.6123552918434143,0.6776337623596191,1.8409903049468994
57,51503,51502,0.02261035144329071,-0.024750638753175735,0.9758354425430298,0.32545146346092224,3.409686326980591,2.261476755142212,1.999956488609314,4.069106101989746,0.2787180542945862,-0.5746505856513977,0.5930851697921753,1.8474282026290894
58,51513,51512,0.0640321895480156,0.011318178847432137,0.9909509420394897,0.2641845643520355,-4.9545979499816895,2.4884562492370605,1.9993538856506348,4.069817543029785,0.27956172823905945,-0.5357237458229065,0.6454979181289673,1.8825953006744385
59,51523,51522,0.05890084058046341,0.048315782099962234,0.9593911170959473,0.7444626688957214,-9.022970199584961,2.9739251136779785,1.9998477697372437,4.0696120262146,0.2802289128303528,-0.4584103524684906,0.6947969198226929,1.919293761253357
60,51533,51532,0.028038254007697105,-0.0013474124716594815,0.9539294838905334,0.946689784526825,-8.938766479492188,2.989439010620117,2.001011610031128,4.071105003356934,0.28098437190055847,-0.5196141600608826,0.591924250125885,1.9164903163909912
61,51543,51542,0.021298563107848167,-0.07467284053564072,0.9628263115882874,0.7933892011642456,-9.589235305786133,3.323369264602661,2.0004210472106934,4.071043968200684,0.28176164627075195,-0.33566179871559143,0.6519238948822021,1.9640039205551147
62,51553,51552,-0.017841655761003494,-0.023155832663178444,0.9768210649490356,0.7209372520446777,-9.542025566101074,3.5590720176696777,1.999948263168335,4.070751190185547,0.28265857696533203,-0.22741948068141937,0.7063890099525452,2.005600929260254
63,51563,51562,0.01788833737373352,-0.025758538395166397,0.9616214036941528,0.9273042678833008,-8.835953712463379,3.67083740234375,1.9993840456008911,4.073493957519531,0.28332987427711487,-0.12707483768463135,0.6807565093040466,2.036012887954712
64,51573,51572,0.00904919020831585,-0.02233186736702919,0.9686887264251709,0.11637114733457565,-7.9644670486450195,3.4979617595672607,2.0000271797180176,4.073965072631836,0.2839803397655487,-0.11871874332427979,0.7265768051147461,2.0659191608428955
65,51583,51582,-0.04629895091056824,0.030392730608582497,0.9918172955513,-1.3578159809112549,-6.073720932006836,2.7469236850738525,2.0001823902130127,4.075534343719482,0.28339433670043945,-0.03085448406636715,0.6684995293617249,2.0935580730438232
66,51593,51592,-0.0832824632525444,0.08265212923288345,0.9906509518623352,-1.3799148797988892,-7.359929084777832,3.492824077606201,1.9995585680007935,4.076521396636963,0.2838608920574188,0.10689602047204971,0.6771307587623596,2.1357991695404053
67,51603,51602,0.02034580335021019,-0.04605097323656082,0.9730554223060608,-1.665947437286377,-4.433801174163818,2.9407260417938232,2.003093719482422,4.077844619750977,0.2839199900627136,-0.1543019860982895,0.6052456498146057,2.1203620433807373
68,51613,51612,-0.013291232287883759,0.029936861246824265,1.0106267929077148,0.141074076294899,-5.535717010498047,2.822641134262085,2.002964496612549,4.078680515289307,0.28488191962242126,-0.02209204062819481,0.6212618350982666,2.1651511192321777
69,51623,51622,-0.006495605688542128,0.008984982036054134,0.9798005223274231,0.2065608948469162,-5.55006217956543,3.572523593902588,2.002152919769287,4.079373359680176,0.28528544306755066,0.1195194348692894,0.579900324344635,2.2042930126190186
70,51633,51632,0.022214362397789955,-0.006284160539507866,0.980131208896637,0.07531965523958206,-7.332802772521973,3.2004058361053467,2.00239634513855,4.079620361328125,0.2857719659805298,0.19162870943546295,0.6156936883926392,2.241455078125
71,51643,51642,0.05547334998846054,-0.13499976694583893,1.03266441822052,-0.1887781322002411,-9.145512580871582,3.4285380840301514,2.003742218017578,4.079965591430664,0.2861728072166443,0.1583741307258606,0.5736010074615479,2.256481409072876
72,51653,51652,0.052007999271154404,-0.09355831146240234,0.9739311933517456,-1.1925337314605713,-5.883925914764404,2.5001792907714844,2.0036401748657227,4.0809221267700195,0.2864469587802887,0.28151828050613403,0.6009767055511475,2.292088270187378
73,51663,51662,0.028335414826869965,-0.041933998465538025,0.985614001750946,-0.7094858884811401,-8.70008659362793,2.118420124053955,2.0031399726867676,4.0808258056640625,0.2869105339050293,0.4743652045726776,0.6967751979827881,2.332751512527466
74,51673,51672,0.005543609149754047,0.029669979587197304,1.0012266635894775,-0.6819802522659302,-7.835570812225342,1.8586533069610596,2.0023322105407715,4.081058979034424,0.2873716354370117,0.6549157500267029,0.7802648544311523,2.3632938861846924
75,51683,51682,-0.02133234776556492,0.05457344651222229,1.053642988204956,-1.3302011489868164,-5.422113418579102,1.3523718118667603,2.0017879009246826,4.081039905548096,0.28787562251091003,0.8080308437347412,0.7767428159713745,2.3891985416412354
76,51693,51692,0.01145101897418499,0.0075302389450371265,1.0123285055160522,-4.036118507385254,-1.3279552459716797,0.8974268436431885,2.002901554107666,4.081010341644287,0.2879387438297272,0.7217264771461487,0.7328675985336304,2.384204626083374
77,51703,51702,-0.05286599323153496,0.15802866220474243,1.0009291172027588,-6.615527629852295,2.1637701988220215,0.3736814260482788,2.0043177604675293,4.081153392791748,0.2884101867675781,0.5609264373779297,0.6392081379890442,2.368849277496338
78,51713,51712,0.030773527920246124,-0.0345495380461216,0.9631158113479614,-8.238133430480957,2.6888184547424316,0.04820551350712776,2.004380702972412,4.081582069396973,0.2888611853122711,0.5607423782348633,0.515791118144989,2.375335931777954
79,51723,51722,-0.017098795622587204,0.03138958290219307,1.0324702262878418,-7.012113571166992,0.9371732473373413,-0.14442813396453857,2.0039210319519043,4.081024646759033,0.28749004006385803,0.637493371963501,0.5459461808204651,2.3838393688201904
80,51733,51732,0.02172277122735977,-0.047421619296073914,0.9448036551475525,-5.898770809173584,0.6678623557090759,-0.3496233820915222,2.004598379135132,4.081360816955566,0.2878280282020569,0.5770975947380066,0.4429081082344055,2.3742146492004395
81,51743,51742,0.04384308680891991,-0.09073784947395325,0.973121166229248,-3.725099802017212,-1.2521113157272339,-0.31845539808273315,2.004049777984619,4.082325458526611,0.2881629168987274,0.6997660994529724,0.36938583850860596,2.3868508338928223
82,51753,51752,-0.014248567633330822,0.010990646667778492,1.051881194114685,-1.8453985452651978,-2.9409546852111816,-1.3783806562423706,2.0038344860076904,4.081104278564453,0.2899410128593445,0.7703893780708313,0.41043636202812195,2.37853741645813
83,51763,51762,0.015112332999706268,0.05349753797054291,0.9543057680130005,-0.9233070015907288,-0.366819828748703,-1.63114333152771,2.0041239261627197,4.080467224121094,0.2902945578098297,0.7649531960487366,0.4690646529197693,2.3561859130859375
84,51773,51772,-0.010585414245724678,0.03994704782962799,1.0138226747512817,-0.6839150786399841,-1.6605778932571411,-0.7124908566474915,2.003777027130127,4.0806097984313965,0.290661484003067,0.8181861639022827,0.4546399414539337,2.3518383502960205
85,51783,51782,0.006985217798501253,-0.043618202209472656,0.9780429601669312,-1.4472066164016724,-0.062189120799303055,-1.209686040878296,2.0034396648406982,4.080540180206299,0.28906935453414917,0.8296127319335938,0.4368695616722107,2.3548572063446045
86,51793,51792,0.021777711808681488,-0.052075035870075226,1.0098085403442383,-3.506005048751831,5.905090808868408,-1.4185397624969482,2.0035688877105713,4.081162452697754,0.289324551820755,0.8146543502807617,0.39321476221084595,2.3466436862945557
87,51803,51802,0.001478819060139358,-0.03494826704263687,1.0037966966629028,-5.523449897766113,14.114002227783203,-1.0902973413467407,2.0041604042053223,4.08203649520874,0.28958651423454285,0.7037236094474792,0.32073065638542175,2.332357883453369
88,51813,51812,-0.014746703207492828,0.008629481308162212,1.0089120864868164,-6.825521469116211,19.522430419921875,-0.9600904583930969,2.003152370452881,4.082213401794434,0.28984493017196655,0.7091462016105652,0.3014833629131317,2.3279383182525635
89,51823,51822,0.0596742108464241,-0.1600133627653122,1.0081596374511719,-8.182418823242188,25.598424911499023,-1.7521637678146362,2.0046727657318115,4.083170413970947,0.2925203740596771,0.4392230212688446,0.25644201040267944,2.3078720569610596
90,51833,51832,-0.04217181354761124,0.07031649351119995,1.0315014123916626,-7.118014812469482,26.07625961303711,-1.6006455421447754,2.0059731006622314,4.0845866203308105,0.2929217219352722,0.013898669742047787,0.10966188460588455,2.285721778869629
91,51843,51842,0.019826559349894524,0.0755242258310318,0.9918959736824036,-5.110287666320801,22.529571533203125,-1.4023622274398804,2.0030293464660645,4.083772659301758,0.2936645746231079,0.07183031737804413,0.13726651668548584,2.2850241661071777
92,51853,51852,-0.008475666865706444,0.028681639581918716,1.02631413936615,-2.1686201095581055,16.096195220947266,-1.6415847539901733,2.0036587715148926,4.084073543548584,0.29272857308387756,-0.228061705827713,0.04151983559131622,2.270076036453247
93,51863,51862,0.017105981707572937,-0.04435429349541664,0.990551233291626,0.1680794358253479,10.445008277893066,-1.8225473165512085,2.0037593841552734,4.083326816558838,0.293109267950058,-0.41854003071784973,0.14863209426403046,2.2433009147644043
94,51873,51872,-0.007244907319545746,-0.008823837153613567,1.0097154378890991,0.5715091228485107,6.203324794769287,-1.3957830667495728,2.0041677951812744,4.083209991455078,0.2934843897819519,-0.5899834632873535,0.12454447895288467,2.2237744331359863
95,51883,51882,-0.005901914089918137,0.012063194066286087,1.0244065523147583,-1.6722794771194458,4.132705211639404,-1.527159333229065,2.0047948360443115,4.082777976989746,0.29522794485092163,-0.6870355606079102,0.10090029984712601,2.2089602947235107
96,51893,51892,-0.02852160856127739,0.0562736913561821,0.9678811430931091,-4.294149875640869,3.8926737308502197,-1.644457459449768,2.004262924194336,4.083643436431885,0.29575419425964355,-0.680895209312439,0.04621036723256111,2.197801351547241
97,51903,51902,-0.06448905915021896,0.04015292599797249,1.0316224098205566,-4.647518634796143,5.501561641693115,-1.7680567502975464,2.003655433654785,4.083498001098633,0.2962675094604492,-0.6751773357391357,-0.0380735881626606,2.18192720413208
98,51913,51912,0.0326739102602005,-0.056265197694301605,0.9819902777671814,-5.9454803466796875,6.245062828063965,-2.002310276031494,2.0042965412139893,4.08223819732666,0.29746851325035095,-0.761662483215332,0.013367203995585442,2.165034055709839
99,51923,51922,0.01733884960412979,-0.020459748804569244,1.032334327697754,-4.356985092163086,8.9629545211792,-2.0537054538726807,2.0047318935394287,4.081618785858154,0.29797253012657166,-0.8651519417762756,-0.023185383528470993,2.1449670791625977
100,51933,51932,-0.008391040377318859,-0.04913392663002014,0.9819298386573792,-3.5819878578186035,10.89592170715332,-2.2914016246795654,2.0032317638397217,4.080418109893799,0.2986197769641876,-0.775145947933197,-0.04491669312119484,2.130821943283081
101,51943,51942,-1.1607291526161134e-05,-0.08189517259597778,0.9641925096511841,-2.6664583683013916,10.856595993041992,-1.6622645854949951,2.003648281097412,4.078774452209473,0.29916197061538696,-0.8851959109306335,0.022000540047883987,2.115921974182129
102,51953,51952,-0.016559595242142677,-0.01653771847486496,0.9894339442253113,-3.1651196479797363,10.757509231567383,-1.6454722881317139,2.0044901371002197,4.079097270965576,0.29911649227142334,-1.0700368881225586,-0.06063300743699074,2.0936460494995117
103,51963,51962,-0.02412748895585537,-0.0036458696704357862,1.0096112489700317,-6.2200398445129395,10.363285064697266,-1.5873744487762451,2.004376173019409,4.079983711242676,0.29961106181144714,-1.165876030921936,-0.1533004194498062,2.0714001655578613
104,51973,51972,0.035679467022418976,-0.014677666127681732,0.9677324891090393,-7.555053234100342,8.784695625305176,-1.9070765972137451,2.0051157474517822,4.079134941101074,0.3001392185688019,-1.251441240310669,-0.13140425086021423,2.061919689178467
105,51983,51982,0.02076003886759281,-0.01356801949441433,0.9941123723983765,-6.4542555809021,6.7376389503479,-2.0594499111175537,2.0046098232269287,4.079092502593994,0.3003994822502136,-1.3112865686416626,-0.2068556398153305,2.0427541732788086
106,51993,51992,-0.02431083470582962,0.0344131700694561,1.0075430870056152,-5.092334270477295,5.059503555297852,-2.306452512741089,2.0045671463012695,4.078610420227051,0.3008823096752167,-1.336900234222412,-0.2732163965702057,2.0213570594787598
107,52003,52002,0.02431214228272438,-0.04816168174147606,0.9697240591049194,-4.094529628753662,3.771829128265381,-2.197418451309204,2.0048842430114746,4.077997207641602,0.3013201355934143,-1.4145493507385254,-0.3169785737991333,2.000277042388916
108,52013,52012,0.04923088103532791,-0.044701721519231796,0.9827368855476379,-1.5202393531799316,3.517897367477417,-2.2551395893096924,2.0051162242889404,4.078352451324463,0.30048447847366333,-1.4801404476165771,-0.3368040919303894,1.9817466735839844
109,52023,52022,0.03263693302869797,-0.014230445958673954,0.9593327045440674,-1.1402381658554077,3.4810051918029785,-2.007382392883301,2.0058298110961914,4.078897953033447,0.3008511960506439,-1.525895118713379,-0.3991985619068146,1.9516637325286865
110,52033,52032,0.019543660804629326,-0.03907683119177818,0.963399350643158,-0.5798690319061279,2.013897657394409,-1.9726461172103882,2.0059895515441895,4.079538345336914,0.30116891860961914,-1.552900791168213,-0.43826305866241455,1.925019383430481
111,52043,52042,0.020880047231912613,-0.0476965568959713,0.9904689788818359,-1.5373409986495972,1.665832281112671,-1.992342472076416,2.0065650939941406,4.079718112945557,0.3014669716358185,-1.5697712898254395,-0.47857585549354553,1.8979359865188599
112,52053,52052,0.0016463234787806869,-0.028988707810640335,0.9922329187393188,-1.2566730976104736,0.914462685585022,-2.1901512145996094,2.0065150260925293,4.079862594604492,0.30254632234573364,-1.5763390064239502,-0.5252640843391418,1.872699499130249
113,52063,52062,-0.010931714437901974,0.007012168411165476,1.0088119506835938,-1.259523868560791,1.3049037456512451,-1.838990569114685,2.006415367126465,4.0805253982543945,0.3028395175933838,-1.568487524986267,-0.5657963752746582,1.8445866107940674
114,52073,52072,0.031065473333001137,-0.025676710531115532,0.9781235456466675,-0.9033203125,-0.03647608309984207,-1.6772953271865845,2.006272315979004,4.080019950866699,0.3031269311904907,-1.5633022785186768,-0.6000166535377502,1.819932222366333
115,52083,52082,-0.015601693652570248,-0.00021734753681812435,1.011997103691101,-0.06681346148252487,2.983161211013794,-1.6376484632492065,2.0070443153381348,4.081532001495361,0.30256780982017517,-1.5611896514892578,-0.6183292269706726,1.80062735080719
116,52093,52092,0.017318781465291977,-0.021379852667450905,0.9653506875038147,1.4497731924057007,5.764856815338135,-2.256481409072876,2.007991313934326,4.082709789276123,0.3028160035610199,-1.5812958478927612,-0.6181889772415161,1.784034252166748
117,52103,52102,0.026806192472577095,-0.04096380993723869,0.9853377342224121,2.7606449127197266,3.644340991973877,-2.0259978771209717,2.0097923278808594,4.082240104675293,0.30294886231422424,-1.7655450105667114,-0.5981842875480652,1.7757363319396973
118,52113,52112,0.009140175767242908,0.006738004274666309,0.987450361251831,4.206002712249756,1.4624146223068237,-1.7253700494766235,2.009577989578247,4.081557750701904,0.30214205384254456,-1.7004045248031616,-0.5577675700187683,1.7524313926696777
119,52123,52122,0.02340240404009819,-0.08271066844463348,0.9544298052787781,4.036555290222168,-1.6227648258209229,-1.4924663305282593,2.010669469833374,4.081723690032959,0.3021838366985321,-1.830336332321167,-0.5756016969680786,1.7286384105682373
120,52133,52132,-0.02013956569135189,-0.02051788754761219,1.0103763341903687,2.741908073425293,-3.8403897285461426,-1.287077784538269,2.010328769683838,4.081884384155273,0.30233314633369446,-1.74980890750885,-0.514689564704895,1.7118074893951416
121,52143,52142,0.00974483136087656,0.005768042989075184,1.0064913034439087,2.1318159103393555,-5.250143527984619,-1.296183466911316,2.011819362640381,4.0813069343566895,0.3023616373538971,-1.7836366891860962,-0.4688738286495209,1.708042860031128
122,52153,52152,0.0007118240464478731,0.010232697241008282,1.0147325992584229,1.973196268081665,-5.885733127593994,-1.315338373184204,2.0123953819274902,4.08114767074585,0.30360689759254456,-1.784661889076233,-0.43434715270996094,1.7018297910690308
123,52163,52162,0.013292615301907063,-0.03843526914715767,0.983882486820221,1.7319246530532837,-5.908474445343018,-1.1699388027191162,2.012286901473999,4.081704616546631,0.3038632571697235,-1.622359037399292,-0.4813087284564972,1.6637072563171387
124,52173,52172,-0.03876343369483948,-0.04728963226079941,1.021472692489624,1.1312154531478882,-6.3587117195129395,-0.9410633444786072,2.014115333557129,4.081917762756348,0.3039243817329407,-1.681155800819397,-0.45028814673423767,1.6675759553909302
125,52183,52182,0.0435941144824028,-0.05579677224159241,0.9770026803016663,1.87659752368927,-5.01102352142334,-1.296730637550354,2.0142462253570557,4.081643581390381,0.3061947226524353,-1.508549690246582,-0.42141807079315186,1.65425443649292
126,52193,52192,-0.009233420714735985,0.013183477334678173,1.0324740409851074,2.5502140522003174,-4.0859761238098145,-1.6461668014526367,2.0139284133911133,4.082995414733887,0.30652451515197754,-1.3649731874465942,-0.4597630500793457,1.620505690574646
127,52203,52202,-0.01224246434867382,-0.004962118808180094,1.0035468339920044,3.1023075580596924,-2.5311872959136963,-1.3134794235229492,2.0137596130371094,4.082761287689209,0.30685484409332275,-1.2429431676864624,-0.4089527428150177,1.6075727939605713
128,52213,52212,0.024428578093647957,-0.032939039170742035,1.006917119026184,4.065565586090088,-1.1004574298858643,-1.4036426544189453,2.016000986099243,4.083377838134766,0.30771881341934204,-1.3674781322479248,-0.41911882162094116,1.5978436470031738
129,52223,52222,-0.004235112573951483,0.015927014872431755,0.9976954460144043,4.519989967346191,1.3650760650634766,-1.5828957557678223,2.0162465572357178,4.083059787750244,0.30808863043785095,-1.3515020608901978,-0.3359355628490448,1.595007300376892
130,52233,52232,0.01283192541450262,-0.04470863193273544,0.9707695841789246,5.364091873168945,-0.6957419514656067,-1.6823172569274902,2.0207889080047607,4.083690166473389,0.3081245422363281,-1.7185275554656982,-0.31781697273254395,1.601051688194275
131,52243,52242,-0.015672355890274048,-0.005303588230162859,1.0045684576034546,4.90135383605957,-3.162479877471924,-1.5663641691207886,2.020843505859375,4.083703517913818,0.3113696575164795,-1.5914018154144287,-0.21824093163013458,1.5865005254745483
132,52253,52252,0.01610575243830681,-0.014455607160925865,0.9979808926582336,4.468864440917969,-9.081933975219727,-1.611850619316101,2.0219058990478516,4.084055423736572,0.31187742948532104,-1.569828987121582,-0.27493155002593994,1.5442813634872437
133,52263,52262,0.004191715735942125,-0.0033095248509198427,0.993742048740387,2.95341420173645,-14.289730072021484,-1.4004801511764526,2.0229389667510986,4.083836555480957,0.3124339282512665,-1.4594961404800415,-0.1896546334028244,1.5355507135391235
134,52273,52272,-0.004933000076562166,-0.0521639846265316,0.9852389097213745,2.974249839782715,-17.776697158813477,-1.3445392847061157,2.0247538089752197,4.083672046661377,0.31280621886253357,-1.4117074012756348,-0.12463212013244629,1.535398244857788
135,52283,52282,-0.041077371686697006,-0.002787432400509715,1.0127525329589844,2.5278735160827637,-16.72334861755371,-2.1437909603118896,2.024272918701172,4.083974361419678,0.31154730916023254,-1.0873031616210938,-0.06735745817422867,1.5192092657089233
136,52293,52292,0.005106003489345312,0.010371176525950432,0.9622793197631836,3.296222448348999,-18.411714553833008,-1.1993203163146973,2.022686719894409,4.084392547607422,0.31210270524024963,-0.7074661254882812,-0.08734911680221558,1.4817423820495605
137,52303,52302,0.05545036494731903,-0.12113978713750839,0.9696107506752014,1.4340779781341553,-11.827295303344727,-1.2219895124435425,2.026970148086548,4.084390640258789,0.3124125599861145,-0.8786419630050659,-0.032180577516555786,1.4861520528793335
138,52313,52312,-0.025732804089784622,-0.007208968047052622,1.0108332633972168,1.0277807712554932,-7.199169635772705,-1.8860045671463013,2.0274033546447754,4.08402156829834,0.31258055567741394,-0.6477895379066467,0.004350092262029648,1.4725148677825928
139,52323,52322,-0.02103862725198269,-0.010461837984621525,0.9762002229690552,0.7070145606994629,-2.33602237701416,-2.07641339302063,2.027627944946289,4.084663391113281,0.3129855692386627,-0.5063680410385132,-0.041241370141506195,1.4447543621063232
140,52333,52332,0.04282073304057121,-0.03605666011571884,0.9418241381645203,2.330131769180298,-2.4993627071380615,-2.522780179977417,2.02946400642395,4.085006237030029,0.313216894865036,-0.5797690153121948,-0.0076860967092216015,1.4304851293563843
141,52343,52342,-0.009485982358455658,-0.028901198878884315,0.9758967757225037,2.4546148777008057,-2.537287712097168,-2.525022506713867,2.0294668674468994,4.084859848022461,0.3150721788406372,-0.43278974294662476,0.03713209182024002,1.4062626361846924
142,52353,52352,-0.05252981558442116,0.017712846398353577,0.9835003614425659,2.706942558288574,-5.738855838775635,-2.798271656036377,2.031191110610962,4.086097240447998,0.3153698742389679,-0.5068386793136597,-0.06108836829662323,1.3718578815460205
143,52363,52362,-0.05125294625759125,0.016847683116793633,0.9758727550506592,1.8372827768325806,-5.738492965698242,-2.20563006401062,2.031825304031372,4.086025714874268,0.31578463315963745,-0.3909659683704376,-0.0016226121224462986,1.3496025800704956
144,52373,52372,-0.13806065917015076,0.11193487048149109,0.969027042388916,1.4942363500595093,-9.259797096252441,-1.8696672916412354,2.031546115875244,4.085925579071045,0.31619036197662354,-0.25412437319755554,0.04572818800806999,1.3267284631729126
145,52383,52382,-0.04504530876874924,0.0035478691570460796,0.9589912295341492,1.5822808742523193,-6.272821426391602,-1.6722216606140137,2.0351295471191406,4.085647106170654,0.31423017382621765,-0.40402957797050476,0.08553500473499298,1.3099623918533325
146,52393,52392,0.02160421758890152,-0.03654766455292702,0.9671021103858948,1.2998193502426147,-4.611973285675049,-1.6028053760528564,2.0347330570220947,4.0861358642578125,0.314506471157074,-0.18208231031894684,0.05046740546822548,1.289522647857666
147,52403,52402,0.018332138657569885,-0.006582862231880426,0.9929277300834656,1.7518796920776367,-1.9255307912826538,-1.5219863653182983,2.036041498184204,4.086363792419434,0.31459498405456543,-0.15039807558059692,0.08973991870880127,1.273581862449646
148,52413,52412,0.020707689225673676,-0.04901959374547005,0.9954096078872681,2.301934242248535,-3.0854907035827637,-1.0266140699386597,2.0378048419952393,4.0878424644470215,0.31515559554100037,-0.14397931098937988,0.12658342719078064,1.2711808681488037
149,52423,52422,0.009224913083016872,-0.04773987457156181,0.9705864787101746,1.9621058702468872,-1.5188363790512085,-1.5070555210113525,2.0383801460266113,4.087454319000244,0.3152971565723419,-0.07031121104955673,0.1695033311843872,1.2577162981033325
150,52433,52432,0.0249519944190979,-0.014318577013909817,0.9785081148147583,2.304748058319092,-1.5540199279785156,-1.6135108470916748,2.0391664505004883,4.088001728057861,0.31541818380355835,-0.00971272960305214,0.14110690355300903,1.2419759035110474
151,52443,52442,0.019350634887814522,0.11785329133272171,1.000973105430603,1.3859511613845825,-0.7461216449737549,-1.428644061088562,2.0405781269073486,4.087344646453857,0.31495821475982666,-0.03531979024410248,0.1903506964445114,1.225391149520874
152,52453,52452,0.0010222981218248606,-0.004610124044120312,0.9792147278785706,0.951572060585022,-0.6098487973213196,-1.571839690208435,2.040928363800049,4.08737325668335,0.31500473618507385,0.009703443385660648,0.22852906584739685,1.2172867059707642
153,52463,52462,0.028040064498782158,0.004409262910485268,0.9728811979293823,2.7640116214752197,-2.3017210960388184,-1.665047287940979,2.0406620502471924,4.088397979736328,0.31510990858078003,0.1311841607093811,0.11600775271654129,1.2085003852844238
154,52473,52472,0.002420884557068348,-0.043203338980674744,0.97608882188797,2.4221489429473877,-3.607842206954956,-1.5958917140960693,2.0425610542297363,4.087697505950928,0.31502434611320496,0.028989532962441444,0.17834696173667908,1.183181881904602
155,52483,52482,0.011834008619189262,-0.056093212217092514,0.9814358353614807,2.47617244720459,-1.9896827936172485,-1.932319164276123,2.044039011001587,4.087348937988281,0.31635838747024536,0.02565508708357811,0.23800161480903625,1.1637325286865234
156,52493,52492,-0.08523722738027573,0.024876361712813377,1.005698323249817,3.1075315475463867,1.4145036935806274,-1.7832527160644531,2.0437169075012207,4.087106227874756,0.3165242075920105,0.1705409437417984,0.3006812632083893,1.1458829641342163
157,52503,52502,-0.054758504033088684,0.0033335667103528976,1.0103999376296997,2.217794179916382,-0.26551854610443115,-1.518758773803711,2.045203924179077,4.086978435516357,0.3165096640586853,0.12294406443834305,0.35805800557136536,1.1243445873260498
158,52513,52512,0.04639255255460739,-0.063535176217556,0.9997832179069519,0.7487791180610657,3.860215663909912,-1.3066439628601074,2.045578718185425,4.086594104766846,0.31815028190612793,0.1471882462501526,0.39587441086769104,1.1078417301177979
159,52523,52522,0.04134127125144005,-0.021954890340566635,0.9992055296897888,-0.5125529766082764,-0.2800723612308502,-1.0900729894638062,2.0464792251586914,4.086208343505859,0.31828227639198303,0.15753868222236633,0.41358044743537903,1.0958471298217773
160,52533,52532,-0.005051534157246351,-0.053629741072654724,0.9859616756439209,-2.5354466438293457,-1.7093143463134766,-1.7130796909332275,2.0477499961853027,4.088244915008545,0.3184058666229248,0.10640162229537964,0.24675443768501282,1.0953090190887451
161,52543,52542,0.0013666499871760607,0.007826413959264755,1.001583218574524,-3.403369188308716,-2.808830976486206,-1.6965140104293823,2.04780650138855,4.088529586791992,0.3181041479110718,0.23019300401210785,0.22054696083068848,1.0954203605651855
162,52553,52552,-0.017119262367486954,0.0916495993733406,1.0062141418457031,-1.617270588874817,-0.8583194613456726,-1.7241554260253906,2.048229455947876,4.089229106903076,0.3182922601699829,0.3501491844654083,0.2702529728412628,1.0829302072525024
163,52563,52562,-0.030307989567518234,0.016287900507450104,0.9984390735626221,2.230682849884033,0.42020153999328613,-1.2606120109558105,2.0484094619750977,4.089953899383545,0.31843993067741394,0.37070098519325256,0.18741942942142487,1.0716873407363892
164,52573,52572,-0.027473721653223038,-0.11166971921920776,0.9942945241928101,4.199167728424072,3.791621685028076,-1.122040033340454,2.0494589805603027,4.089276313781738,0.3199963867664337,0.35436204075813293,0.24007751047611237,1.044973373413086
165,52583,52582,-0.0006586320814676583,-0.07022126019001007,0.9777808785438538,4.852571964263916,6.782619476318359,-1.3904136419296265,2.049760580062866,4.08945894241333,0.3202093243598938,0.36011654138565063,0.3256991505622864,1.0383602380752563
166,52593,52592,-0.02559964545071125,0.013977626338601112,1.0206449031829834,3.560598850250244,8.322874069213867,-1.520050287246704,2.0500729084014893,4.08919095993042,0.3204473853111267,0.3127368688583374,0.4147711992263794,1.0212806463241577
167,52603,52602,0.09539313614368439,0.02037716470658779,0.971567690372467,0.3265416920185089,11.277325630187988,-1.926345944404602,2.052464485168457,4.089073657989502,0.3205938935279846,0.09976524859666824,0.4720253348350525,0.9976434111595154
168,52613,52612,0.07852423936128616,-0.028205329552292824,0.964618444442749,-0.30251216888427734,5.8802924156188965,-1.6725974082946777,2.0533084869384766,4.090047836303711,0.32200881838798523,0.03562798723578453,0.4063076078891754,0.9961107969284058
169,52623,52622,0.1575353592634201,-0.1120949387550354,0.9864070415496826,-2.5173661708831787,3.528710126876831,-2.06178879737854,2.053525447845459,4.089484214782715,0.32227015495300293,0.026436077430844307,0.47552114725112915,0.9729512929916382
170,52633,52632,0.04429648444056511,-0.017517657950520515,0.987450897693634,-1.027300238609314,-2.346775531768799,-0.920038104057312,2.0549604892730713,4.090099811553955,0.32241904735565186,-0.07233649492263794,0.43811967968940735,0.9570373892784119
171,52643,52642,0.010908416472375393,-0.07338099926710129,0.9764352440834045,-0.5167650580406189,-2.8284473419189453,-0.7627332210540771,2.054988145828247,4.089351654052734,0.32205069065093994,-0.024808142334222794,0.42756685614585876,0.9348267316818237
172,52653,52652,-0.024390023201704025,-0.06877242028713226,0.9646440744400024,-0.1560819298028946,-1.5311568975448608,0.06293127685785294,2.057547092437744,4.090526103973389,0.32212430238723755,-0.13288021087646484,0.34786638617515564,0.933994472026825
173,52663,52662,-0.009282473474740982,0.04669802263379097,0.9772918224334717,-2.1135566234588623,2.3793351650238037,-0.29161542654037476,2.0587055683135986,4.0913987159729,0.3222520649433136,-0.1199336051940918,0.3327663242816925,0.9496588706970215
174,52673,52672,-0.03030356951057911,0.10327059030532837,0.9760385155677795,-2.8382809162139893,6.908116817474365,-0.8339070081710815,2.0591397285461426,4.091679096221924,0.32259857654571533,-0.09926840662956238,0.295271098613739,0.9368796944618225
175,52683,52682,-0.017323456704616547,0.020049624145030975,0.9502851963043213,0.5649233460426331,10.041101455688477,-1.1808439493179321,2.0606868267059326,4.092233180999756,0.32262614369392395,-0.22690509259700775,0.27320384979248047,0.9328501224517822
176,52693,52692,-0.009175483137369156,-0.06158583611249924,0.9563961625099182,4.250431060791016,7.668137550354004,-0.7464060187339783,2.0608632564544678,4.0918498039245605,0.3227132260799408,-0.2897970974445343,0.3144890069961548,0.9140210151672363
177,52703,52702,-0.03434688225388527,-0.0025498634204268456,0.984030544757843,7.153008937835693,1.6855417490005493,-0.1872081458568573,2.0615289211273193,4.091849327087402,0.3227895200252533,-0.3004230856895447,0.41233834624290466,0.8985313773155212
178,52713,52712,0.017709501087665558,-0.0358831062912941,0.9746575951576233,8.652284622192383,-4.473847389221191,0.1837313324213028,2.061444044113159,4.09056282043457,0.32428795099258423,-0.21479351818561554,0.5362038612365723,0.8985863327980042
179,52723,52722,0.009246699512004852,-0.004296410828828812,0.9822942018508911,6.796970367431641,-7.622503280639648,-0.5073279738426208,2.0633013248443604,4.091207027435303,0.32424524426460266,-0.28264346718788147,0.5910508632659912,0.895482063293457
180,52733,52732,0.0019093315349891782,-0.046908188611269,0.9609140157699585,1.8847084045410156,-9.970831871032715,-0.7385358810424805,2.062818765640259,4.091455459594727,0.3243491053581238,-0.13214586675167084,0.669670581817627,0.9020594954490662
181,52743,52742,-0.033435482531785965,-0.05292795971035957,0.9952324032783508,-4.323383331298828,-7.735576152801514,-1.9922378063201904,2.0619544982910156,4.092158794403076,0.32327017188072205,0.10051209479570389,0.650475263595581,0.9015757441520691
182,52753,52752,-0.011895517818629742,-0.019440408796072006,0.9720528721809387,-7.513291358947754,-4.533176898956299,-1.7765536308288574,2.0651512145996094,4.092365264892578,0.32312363386154175,-0.020373210310935974,0.6273170113563538,0.8661208152770996
183,52763,52762,0.01156673301011324,-0.04995196312665939,0.9571124315261841,-7.633654594421387,1.3116836547851562,-1.4791502952575684,2.064972162246704,4.092953205108643,0.32313287258148193,0.11525951325893402,0.48780205845832825,0.8675969839096069
184,52773,52772,-0.047190383076667786,-0.01079315785318613,0.9956566691398621,-5.713992595672607,2.6448256969451904,-0.7664626836776733,2.0648226737976074,4.0925397872924805,0.3240623474121094,0.1357174664735794,0.4364258646965027,0.853769838809967
185,52783,52782,-0.0920606404542923,-0.006712741684168577,1.0019593238830566,-2.1871049404144287,10.325996398925781,0.4289668798446655,2.066344738006592,4.093067646026611,0.323974609375,0.020580440759658813,0.43246984481811523,0.8605674505233765
186,52793,52792,-0.0171898752450943,0.002125004306435585,0.9870909452438354,-0.41124165058135986,12.230216026306152,2.0250253677368164,2.066786766052246,4.0928239822387695,0.32391560077667236,-0.07418941706418991,0.3940211236476898,0.8653154969215393
187,52803,52802,0.04321572557091713,-0.12414964288473129,0.9527038931846619,1.2733744382858276,8.922384262084961,3.6096644401550293,2.0671679973602295,4.092398643493652,0.3239126205444336,-0.1003437414765358,0.4668964445590973,0.8971850872039795
188,52813,52812,-0.01003169920295477,-0.00020649789075832814,0.9853335618972778,0.670061469078064,7.27497673034668,3.2446401119232178,2.0675628185272217,4.091777324676514,0.3228025734424591,-0.16161060333251953,0.542289137840271,0.9317023158073425
189,52823,52822,-0.05002763867378235,0.07736185938119888,1.026687741279602,0.9675242900848389,4.076112747192383,3.770354986190796,2.068063974380493,4.092021942138672,0.32265061140060425,-0.18666577339172363,0.5296505689620972,0.9786378741264343
190,52833,52832,0.018147163093090057,-0.038125284016132355,0.9405505061149597,0.4583108723163605,-0.6842472553253174,4.313155651092529,2.0689260959625244,4.092779159545898,0.3225061893463135,-0.2586379647254944,0.5157861113548279,1.0340898036956787
191,52843,52842,0.008756611496210098,-0.12034934759140015,0.9608781933784485,-2.6187844276428223,4.2599663734436035,4.600024223327637,2.069451332092285,4.092073917388916,0.3221101462841034,-0.30012673139572144,0.5539436340332031,1.0730633735656738
192,52853,52852,-0.05090237781405449,0.04779764637351036,0.9671927094459534,-4.819277286529541,2.7048051357269287,4.990762233734131,2.0697948932647705,4.092932224273682,0.3219115734100342,-0.2960117757320404,0.4641541838645935,1.1404831409454346
193,52863,52862,-0.08442918211221695,0.05302031710743904,0.9493022561073303,-9.40101146697998,6.476387023925781,6.179608345031738,2.0703649520874023,4.092578887939453,0.3216257393360138,-0.3814912438392639,0.39849838614463806,1.1917405128479004
194,52873,52872,-0.03813166171312332,0.03266191855072975,1.0055922269821167,-11.233338356018066,6.035335540771484,6.761760711669922,2.0711116790771484,4.092334747314453,0.3229413628578186,-0.4221264123916626,0.35711267590522766,1.2550067901611328
195,52883,52882,-0.014591279439628124,0.0783313512802124,0.9998279213905334,-10.694875717163086,8.641571044921875,6.857959270477295,2.0720973014831543,4.094499111175537,0.32276374101638794,-0.47441941499710083,0.13960584998130798,1.3528928756713867
196,52893,52892,0.04607011377811432,-0.06509332358837128,0.9805806875228882,-8.994208335876465,10.132577896118164,6.062702655792236,2.0725510120391846,4.093555450439453,0.32255008816719055,-0.5601895451545715,0.10034014284610748,1.4182462692260742
197,52903,52902,-0.04569185525178909,0.03560837358236313,0.9792795777320862,-5.273989200592041,9.177931785583496,6.117213249206543,2.0729427337646484,4.093240737915039,0.31852996349334717,-0.6515455842018127,0.026404693722724915,1.4812510013580322
198,52913,52912,-0.024317815899848938,-0.009334424510598183,0.9891048073768616,-2.8263633251190186,9.28382682800293,6.157863140106201,2.072856903076172,4.093307018280029,0.31806108355522156,-0.7102946043014526,-0.06854670494794846,1.5448869466781616
199,52923,52922,-0.03631734475493431,0.07153145223855972,1.0198115110397339,-0.09173358231782913,4.353013515472412,6.093771934509277,2.0744824409484863,4.092342376708984,0.3174552321434021,-0.8948593139648438,-0.037493299692869186,1.6021702289581299
200,52933,52932,0.03339667245745659,-0.04309404268860817,1.0069243907928467,-1.428450584411621,3.1009161472320557,6.551162242889404,2.075363874435425,4.092685699462891,0.3169392943382263,-0.9375752210617065,-0.06991774588823318,1.6637827157974243
201,52943,52942,0.05118130147457123,-0.06627574563026428,1.000072956085205,-0.8900497555732727,-4.1074347496032715,6.362771511077881,2.0753633975982666,4.091361045837402,0.31554028391838074,-0.8354330062866211,-0.03086361289024353,1.7316981554031372
202,52953,52952,0.018645865842700005,-0.04147450253367424,0.9683585166931152,-3.5279319286346436,-6.496228218078613,6.85837459564209,2.0768487453460693,4.09149694442749,0.31488025188446045,-0.9032518267631531,-0.01589312218129635,1.811273217201233
203,52963,52962,-0.03356076776981354,-0.09437746554613113,1.0240763425827026,-7.472283363342285,-6.32093620300293,5.21640682220459,2.076220989227295,4.091858863830566,0.31450483202934265,-0.6943135857582092,-0.13406594097614288,1.876836895942688
204,52973,52972,-0.005529867019504309,-0.03579584136605263,0.9987779855728149,-10.825830459594727,-7.975632667541504,3.789853096008301,2.077174186706543,4.092215061187744,0.31497418880462646,-0.6576387286186218,-0.15756244957447052,1.9547008275985718
205,52983,52982,-0.09108862280845642,0.053267497569322586,1.0018411874771118,-12.108924865722656,-9.306035041809082,4.214228630065918,2.079073429107666,4.092233657836914,0.3144685626029968,-0.6611176133155823,-0.23011666536331177,2.0098671913146973
206,52993,52992,-0.007950290106236935,-0.05641242861747742,1.0293415784835815,-9.338594436645508,-10.887532234191895,3.688220500946045,2.0779736042022705,4.093686580657959,0.3141648769378662,-0.4119706153869629,-0.4514651298522949,2.0582988262176514
207,53003,53002,0.034438710659742355,-0.07650350779294968,0.9961328506469727,-5.877156734466553,-9.500575065612793,4.207470417022705,2.0781755447387695,4.092668056488037,0.31218650937080383,-0.2294929325580597,-0.45596376061439514,2.100264072418213
208,53013,53012,0.013575179502367973,-0.0457921028137207,1.0192546844482422,-2.9928464889526367,-4.715465545654297,3.1305911540985107,2.0792765617370605,4.092146873474121,0.31163230538368225,-0.17957442998886108,-0.4873828887939453,2.1439411640167236
209,53023,53022,0.015380952507257462,0.04099179431796074,1.024649739265442,-1.255744218826294,-0.4363851249217987,2.6401119232177734,2.081702709197998,4.09280252456665,0.31105098128318787,-0.28569772839546204,-0.5610294342041016,2.1912450790405273
210,53033,53032,0.03145128861069679,-0.017466457560658455,1.0023773908615112,0.7345125675201416,6.219118595123291,1.2029370069503784,2.082688331604004,4.092011451721191,0.3105216324329376,-0.3170798420906067,-0.5178593397140503,2.219892978668213
211,53043,53042,-0.03670217841863632,0.04653772711753845,1.0706744194030762,0.6926424503326416,7.90186071395874,0.46218565106391907,2.083263635635376,4.091654300689697,0.3126174211502075,-0.3440127968788147,-0.5319409966468811,2.226473569869995
212,53053,53052,-0.038428716361522675,-0.05238962173461914,1.0354745388031006,-2.2875425815582275,4.747274398803711,-0.939113438129425,2.0834665298461914,4.091506004333496,0.31235602498054504,-0.3334353566169739,-0.48330384492874146,2.2366576194763184
213,53063,53062,-0.024662693962454796,0.014900409616529942,1.0236257314682007,-5.177499294281006,0.3305208683013916,-1.7981781959533691,2.08389949798584,4.091765403747559,0.3121296465396881,-0.37993302941322327,-0.5732560157775879,2.225811719894409
214,53073,53072,-0.022673171013593674,0.11454810202121735,0.9844105243682861,-7.739165306091309,-0.7570887207984924,-2.2283051013946533,2.084627628326416,4.0921711921691895,0.3115212917327881,-0.3713616132736206,-0.6988095641136169,2.2042338848114014
215,53083,53082,-0.049108996987342834,-0.07748190313577652,1.0543861389160156,-7.228272438049316,-3.5517163276672363,-2.531526803970337,2.0852441787719727,4.09251594543457,0.3112652599811554,-0.33995646238327026,-0.8436774611473083,2.175936222076416
216,53093,53092,-0.045008741319179535,-0.20272520184516907,1.0330361127853394,-2.5735273361206055,-5.0746073722839355,-2.98563551902771,2.0860469341278076,4.091367244720459,0.3110928535461426,-0.31539082527160645,-0.7881532907485962,2.1596624851226807
217,53103,53102,-0.08164530992507935,-0.04797229543328285,1.037126898765564,2.6259734630584717,-5.691294193267822,-2.9612441062927246,2.086153507232666,4.0910797119140625,0.3062053322792053,-0.16307410597801208,-0.8191329836845398,2.128289222717285
218,53113,53112,-0.05780542641878128,0.07346035540103912,1.0173397064208984,4.110452175140381,-0.4897914528846741,-2.401479721069336,2.087257146835327,4.090803623199463,0.30576133728027344,-0.19519221782684326,-0.7037075161933899,2.1088709831237793
219,53123,53122,-0.009968732483685017,0.01851499453186989,1.0413788557052612,4.362766742706299,0.7320272922515869,-2.0583972930908203,2.087111711502075,4.091940879821777,0.30540549755096436,-0.12090583890676498,-0.732582151889801,2.101747512817383
220,53133,53132,0.01872560940682888,-0.13143286108970642,1.0167597532272339,3.292078971862793,3.642333745956421,-2.5082406997680664,2.0880746841430664,4.091394424438477,0.30505895614624023,-0.1515999138355255,-0.6806702613830566,2.075322151184082
221,53143,53142,-0.03275991603732109,-0.041144225746393204,1.0594327449798584,3.416545867919922,-4.845891952514648,-2.8023390769958496,2.087667942047119,4.091182231903076,0.3058048188686371,-0.09522655606269836,-0.6425596475601196,2.0396792888641357
222,53153,53152,-0.003465017070993781,-0.05574606731534004,1.0234777927398682,1.775331735610962,5.964017391204834,-3.5463311672210693,2.091853141784668,4.091627597808838,0.30544641613960266,-0.41039153933525085,-0.609093964099884,2.053750991821289
223,53163,53162,0.060242101550102234,-0.09410808980464935,0.9663306474685669,0.11722458899021149,3.872295379638672,-4.298418998718262,2.092170000076294,4.091782569885254,0.30531030893325806,-0.41905495524406433,-0.6003445386886597,2.0106475353240967
224,53173,53172,-0.028717732056975365,-0.024314919486641884,1.0376132726669312,-2.0351991653442383,0.9590239524841309,-4.024983882904053,2.0923962593078613,4.094236373901367,0.30575883388519287,-0.375907838344574,-0.7004532217979431,2.0018153190612793
225,53183,53182,0.028755534440279007,-0.014999587088823318,1.025617003440857,-0.8322288393974304,-3.403925895690918,-4.9292192459106445,2.0943448543548584,4.093593120574951,0.3054887354373932,-0.4921703338623047,-0.6558934450149536,1.9739292860031128
226,53193,53192,-0.026829032227396965,-0.012353836558759212,1.0319181680679321,2.3275980949401855,-5.8348493576049805,-5.081508636474609,2.094521999359131,4.094275951385498,0.30543506145477295,-0.3934219777584076,-0.651720404624939,1.942160964012146
227,53203,53202,0.01885649934411049,-0.057016078382730484,1.0292291641235352,4.984018802642822,-3.166339635848999,-5.350803852081299,2.095604658126831,4.094052314758301,0.30447128415107727,-0.3642602264881134,-0.5954561829566956,1.8950034379959106
228,53213,53212,-0.005304425023496151,0.06128399446606636,1.057674527168274,7.348300457000732,-3.9315414428710938,-5.523685455322266,2.0958797931671143,4.093859672546387,0.3043913245201111,-0.27503979206085205,-0.49670958518981934,1.8365148305892944
229,53223,53222,-0.011650649830698967,-0.018608303740620613,1.0221861600875854,7.646707534790039,-4.636829853057861,-5.351525783538818,2.095970392227173,4.093333721160889,0.3044145703315735,-0.1229315772652626,-0.38121652603149414,1.7667720317840576
230,53233,53232,-0.07811310142278671,-0.00892731361091137,1.032859206199646,4.107302665710449,-0.5965555310249329,-4.084376335144043,2.0962417125701904,4.093857288360596,0.30443376302719116,-0.0572342611849308,-0.4384280741214752,1.7059448957443237
231,53243,53242,0.022872937843203545,-0.003444983158260584,0.9867463707923889,2.1891863346099854,-0.3069465458393097,-3.7040271759033203,2.099087715148926,4.095173358917236,0.3037959635257721,-0.28331953287124634,-0.46576112508773804,1.7087550163269043
232,53253,53252,0.0013683901634067297,0.06236616149544716,1.0222697257995605,1.8205232620239258,3.5726795196533203,-3.733586311340332,2.1002557277679443,4.094856262207031,0.3038083612918854,-0.2661123275756836,-0.3523156940937042,1.6880035400390625
233,53263,53262,-0.02818388305604458,0.13986694812774658,0.9889275431632996,2.637754440307617,1.7681363821029663,-3.6574835777282715,2.1004879474639893,4.095315456390381,0.30389824509620667,-0.21939386427402496,-0.39296332001686096,1.6394731998443604
234,53273,53272,0.012027861550450325,0.02463389001786709,1.0110780000686646,3.038776397705078,2.287125825881958,-3.743307113647461,2.1008076667785645,4.096327781677246,0.3046131134033203,-0.22625082731246948,-0.32878249883651733,1.6395143270492554
235,53283,53282,-0.01782255619764328,0.03306790068745613,1.016419529914856,3.544827461242676,-2.3216071128845215,-3.9387946128845215,2.1007423400878906,4.096266746520996,0.3047400116920471,-0.12486536055803299,-0.26880860328674316,1.6048305034637451
236,53293,53292,-0.05864574387669563,0.006611426826566458,1.0275580883026123,3.887028455734253,-7.898624420166016,-3.711679220199585,2.1050662994384766,4.098310947418213,0.30466964840888977,-0.35225293040275574,-0.3377896845340729,1.5928845405578613
237,53303,53302,-0.02428688108921051,-0.029064899310469627,0.9860467910766602,-0.5880029797554016,-4.627214431762695,-3.4937024116516113,2.104999303817749,4.098392009735107,0.30641287565231323,-0.160187765955925,-0.3051396906375885,1.549504280090332
238,53313,53312,0.0030204136855900288,0.006804932840168476,0.9985312819480896,-5.381407260894775,-2.2280759811401367,-3.7634437084198,2.1055796146392822,4.098718166351318,0.3066161572933197,-0.0767689049243927,-0.3433002531528473,1.5129965543746948
239,53323,53322,0.06315677613019943,-0.1285368800163269,1.0016160011291504,-9.551608085632324,-0.7102707624435425,-4.556330680847168,2.1063454151153564,4.098652362823486,0.30682751536369324,-0.033968355506658554,-0.3891768157482147,1.4783713817596436
240,53333,53332,-0.031167127192020416,-0.01674247905611992,0.968520998954773,-9.878658294677734,2.6615939140319824,-5.15122652053833,2.107029438018799,4.0993194580078125,0.3077622354030609,-0.03565942496061325,-0.5496864914894104,1.41768479347229
241,53343,53342,0.01040161494165659,-0.08058027923107147,0.9898414015769958,-9.505495071411133,4.846787452697754,-6.231308937072754,2.106677293777466,4.100271224975586,0.3077896237373352,0.0013712443178519607,-0.6997147798538208,1.3687763214111328
242,53353,53352,-0.030504191294312477,-0.014272660948336124,1.01445734500885,-3.880138635635376,8.641080856323242,-7.156813621520996,2.1083734035491943,4.100759506225586,0.30794477462768555,-0.1741667240858078,-0.7783318161964417,1.318662166595459
243,53363,53362,0.036879006773233414,-0.04767317324876785,0.9423139095306396,2.2947843074798584,9.777779579162598,-7.824431419372559,2.108893394470215,4.1000776290893555,0.30823928117752075,-0.2437165081501007,-0.6776832342147827,1.2289469242095947
244,53373,53372,0.0030490667559206486,-0.059459902346134186,0.974308967590332,9.710321426391602,7.025084018707275,-8.312933921813965,2.1094777584075928,4.100448131561279,0.3086654841899872,-0.31334245204925537,-0.5393056869506836,1.1689698696136475
245,53383,53382,-0.026551177725195885,0.0324176587164402,1.0105764865875244,14.766799926757812,1.8886072635650635,-9.519832611083984,2.1103436946868896,4.100866317749023,0.3088133931159973,-0.3492000699043274,-0.45185044407844543,1.0769656896591187
246,53393,53392,0.007699803914874792,-0.06897583603858948,0.975997805595398,13.00446891784668,-3.3789010047912598,-9.623461723327637,2.1109538078308105,4.100729942321777,0.30898764729499817,-0.3328574299812317,-0.20384006202220917,0.9939531087875366
247,53403,53402,-0.04159441962838173,0.025893425568938255,1.0130610466003418,7.846776485443115,-5.56409215927124,-9.316543579101562,2.112431287765503,4.100213527679443,0.3100227117538452,-0.37905120849609375,-0.03483857214450836,0.898758053779602
248,53413,53412,0.02733682654798031,-0.03559844568371773,0.967925488948822,3.391716241836548,-7.830528259277344,-9.033596992492676,2.1137142181396484,4.102890968322754,0.31023916602134705,-0.3895692527294159,-0.2478998601436615,0.8292827606201172
249,53423,53422,0.025561101734638214,-0.059807419776916504,0.9858359098434448,-2.071377992630005,-7.415802478790283,-9.470831871032715,2.115389347076416,4.103923320770264,0.31060338020324707,-0.30408385396003723,-0.22340475022792816,0.7531335353851318
250,53433,53432,-0.02635587379336357,-0.04143332690000534,0.9931033849716187,-5.198338508605957,-7.3732171058654785,-10.25000286102295,2.1151366233825684,4.104362964630127,0.30975374579429626,-0.20968395471572876,-0.34657052159309387,0.6453292965888977
251,53443,53442,0.032625917345285416,-0.07696839421987534,0.9613143801689148,-4.263043403625488,-9.025760650634766,-10.034804344177246,2.1153268814086914,4.105493545532227,0.30993711948394775,-0.03963558375835419,-0.3877028524875641,0.5601934790611267
252,53453,53452,-0.01980615220963955,0.05094229802489281,0.9866013526916504,-0.3307519555091858,-7.818032741546631,-9.30012035369873,2.116941452026367,4.105640888214111,0.3099766671657562,-0.02030351385474205,-0.3822799324989319,0.46827417612075806
253,53463,53462,0.04269808530807495,-0.10733963549137115,0.9706597924232483,4.705915451049805,-4.535671710968018,-9.190216064453125,2.1172597408294678,4.106535911560059,0.31013917922973633,0.0957619920372963,-0.3001188039779663,0.40988701581954956
254,53473,53472,0.010446754284203053,-0.047104038298130035,0.9794044494628906,8.900057792663574,-2.7255859375,-8.992966651916504,2.119157314300537,4.106494426727295,0.3121922016143799,0.03578034043312073,-0.1477147936820984,0.3325248658657074
255,53483,53482,-0.015252618119120598,-0.17166924476623535,1.0044898986816406,12.771066665649414,1.5459356307983398,-8.02055835723877,2.11932110786438,4.106654644012451,0.3124261498451233,0.140532448887825,-0.0754285529255867,0.23047800362110138
256,53493,53492,0.02315511554479599,0.007591487839818001,0.985393226146698,13.77370548248291,4.850734233856201,-7.144692897796631,2.121082305908203,4.107467174530029,0.3124658167362213,-0.03806883469223976,0.10534854978322983,0.19279810786247253
257,53503,53502,-0.010081596672534943,0.08837240934371948,1.000078797340393,11.861741065979004,6.251542568206787,-6.776498317718506,2.1211917400360107,4.10670280456543,0.3134767413139343,0.039530299603939056,0.13340996205806732,0.1650460809469223
258,53513,53512,-0.07829073071479797,0.036684274673461914,1.0068281888961792,7.881359100341797,4.34469747543335,-6.5957231521606445,2.1218535900115967,4.1062846183776855,0.313661128282547,-0.007095708046108484,0.3516574501991272,0.07657352089881897
259,53523,53522,0.022507723420858383,0.04791845381259918,0.9757850766181946,3.410841941833496,2.2996606826782227,-5.877293109893799,2.122283458709717,4.106820106506348,0.31397202610969543,0.04743940755724907,0.33132728934288025,0.0206627007573843
260,53533,53532,-0.01456838846206665,-0.03118341602385044,0.9915469884872437,0.4518551528453827,-2.294431209564209,-6.142983913421631,2.1223928928375244,4.1070098876953125,0.31613603234291077,0.05224184691905975,0.4043255150318146,-0.1103406697511673
261,53543,53542,-0.07506168633699417,-0.005931737832725048,1.001078486442566,-0.5542457103729248,-5.92500638961792,-6.413268089294434,2.1232852935791016,4.108137130737305,0.3164427876472473,0.03944561257958412,0.36102095246315,-0.08106783032417297
262,53553,53552,-0.016138581559062004,0.023221565410494804,0.9848031401634216,-0.5285930037498474,-3.7892379760742188,-7.382759094238281,2.124300956726074,4.108452320098877,0.31670936942100525,0.05237907916307449,0.30165544152259827,-0.172888845205307
263,53563,53562,0.08362813293933868,0.054817575961351395,0.9175803661346436,2.0005548000335693,-4.16713285446167,-8.049919128417969,2.1242401599884033,4.107940673828125,0.31800833344459534,0.11247573047876358,0.4040974974632263,-0.23142600059509277
264,53573,53572,-0.001908202888444066,-0.08209837973117828,0.9492771029472351,5.620110034942627,-1.099980115890503,-8.844378471374512,2.1262874603271484,4.1088032722473145,0.3182303011417389,0.009965343400835991,0.38481828570365906,-0.30282527208328247
265,53583,53582,-0.0015178845496848226,-0.055050838738679886,0.9552375674247742,9.430068016052246,0.7111768126487732,-9.713794708251953,2.126124143600464,4.109434127807617,0.31859567761421204,0.13924236595630646,0.35843223333358765,-0.38773661851882935
266,53593,53592,-0.02219533734023571,-0.012901007197797298,0.9853376150131226,11.848847389221191,0.03945784270763397,-10.250782012939453,2.129117012023926,4.109076976776123,0.31865522265434265,-0.07395888864994049,0.5451650619506836,-0.4852515757083893
267,53603,53602,-0.017623770982027054,0.02025606483221054,0.9814508557319641,14.723799705505371,-3.723659038543701,-9.482649803161621,2.128925323486328,4.108541965484619,0.3197177052497864,0.05360138416290283,0.6883532404899597,-0.5980709195137024
268,53613,53612,-0.03965219110250473,0.014264845289289951,0.9684652090072632,14.819758415222168,-8.644969940185547,-7.63974142074585,2.1295716762542725,4.109251976013184,0.3199284076690674,0.08065485209226608,0.7864621877670288,-0.6836768388748169
269,53623,53622,-0.009733094833791256,-0.0021973615512251854,0.9403638243675232,11.799192428588867,-13.364161491394043,-5.926027297973633,2.130290985107422,4.109145641326904,0.32008540630340576,0.30911749601364136,1.0972274541854858,-0.8328408598899841
270,53633,53632,-0.014405151829123497,-0.033993855118751526,0.9430027008056641,5.016085147857666,-12.907428741455078,-5.155830383300781,2.1300463676452637,4.108815670013428,0.320135235786438,0.4234747588634491,1.1537539958953857,-0.8255996108055115
271,53643,53642,0.037481993436813354,0.12427432835102081,0.9501228332519531,-4.259593486785889,-7.525208473205566,-4.831514358520508,2.1316120624542236,4.110713481903076,0.3202129304409027,0.4744510054588318,1.0661485195159912,-0.8655334711074829
272,53653,53652,0.008410339243710041,0.02776879444718361,0.9501723647117615,-11.090288162231445,1.9006749391555786,-4.732163429260254,2.1321685314178467,4.11069393157959,0.3201964795589447,0.5888416767120361,1.003286361694336,-0.9345447421073914
273,53663,53662,-0.0019090304849669337,0.08918128162622452,0.9732619524002075,-13.695563316345215,9.55870246887207,-3.911005973815918,2.13492488861084,4.111131191253662,0.31968000531196594,0.4048648178577423,0.923529863357544,-0.9975773692131042
274,53673,53672,-0.001762658474035561,0.04778819531202316,0.9434425234794617,-12.531092643737793,16.225677490234375,-3.2719361782073975,2.1362125873565674,4.111109256744385,0.31952881813049316,0.3330409824848175,0.799244225025177,-1.046985387802124
275,53683,53682,-0.0043768263421952724,0.06626275181770325,0.9356452822685242,-11.726115226745605,16.169832229614258,-3.407898426055908,2.1364240646362305,4.112000942230225,0.3193361163139343,0.19173948466777802,0.676257312297821,-1.04218590259552
276,53693,53692,0.04313753545284271,0.062251366674900055,0.9075725078582764,-9.137699127197266,13.366883277893066,-5.038344383239746,2.1362693309783936,4.112196922302246,0.3191734254360199,0.11156941950321198,0.6576364636421204,-1.0349005460739136
277,53703,53702,0.03837227448821068,-0.08292548358440399,0.9411211013793945,-4.7622857093811035,6.096925735473633,-5.50835657119751,2.137021064758301,4.113136291503906,0.31611576676368713,-0.0009344913414679468,0.5187575221061707,-1.0505132675170898
278,53713,53712,0.0004730591317638755,0.01575607992708683,0.9627309441566467,-0.7484933733940125,3.2600245475769043,-6.0754876136779785,2.137775182723999,4.1126933097839355,0.3156510591506958,-0.021340560168027878,0.5295708179473877,-1.105504035949707
279,53723,53722,-0.034966226667165756,0.060306116938591,0.9573323726654053,3.0517523288726807,-2.807636260986328,-5.857739448547363,2.138333797454834,4.112044334411621,0.3150831162929535,-0.037842027842998505,0.5999310612678528,-1.1757664680480957
280,53733,53732,0.021120883524417877,-0.09612511843442917,0.9307066798210144,5.313321113586426,-6.062595844268799,-5.383894443511963,2.1382668018341064,4.1109299659729,0.31270530819892883,0.09852132946252823,0.639967143535614,-1.2380809783935547
281,53743,53742,0.020866500213742256,-0.013969619758427143,0.9755895733833313,4.887364864349365,-4.751946449279785,-4.349128246307373,2.139591932296753,4.110484600067139,0.3118894398212433,0.1106695905327797,0.7079367637634277,-1.3008066415786743
282,53753,53752,-0.03361180052161217,-0.01435183361172676,0.9869106411933899,2.147491455078125,-0.00906383153051138,-3.7185521125793457,2.1407065391540527,4.110855579376221,0.31105902791023254,0.10197708755731583,0.6854467391967773,-1.3535360097885132
283,53763,53762,-0.004473227076232433,0.008655729703605175,0.9998154044151306,-2.5223910808563232,2.007704734802246,-3.4013290405273438,2.142996311187744,4.1104655265808105,0.30771467089653015,-0.050047263503074646,0.7698453068733215,-1.4187750816345215
284,53773,53772,-0.04823660850524902,-0.01982368715107441,1.0362544059753418,-5.950193405151367,9.924223899841309,-2.824232816696167,2.142672538757324,4.110263347625732,0.3068108558654785,-0.020100828260183334,0.6572729349136353,-1.493453025817871
285,53783,53782,-0.012204685248434544,0.03952089697122574,1.0389227867126465,-5.36369514465332,12.223882675170898,-2.2809693813323975,2.1441259384155273,4.108405113220215,0.3057326674461365,-0.07970034331083298,0.7598861455917358,-1.5152066946029663
286,53793,53792,0.019060781225562096,-0.05595088377594948,0.9773480296134949,-4.515440464019775,8.008288383483887,-0.35568833351135254,2.145037889480591,4.108595371246338,0.30483534932136536,-0.15683051943778992,0.64156174659729,-1.5481195449829102
287,53803,53802,-0.019174812361598015,0.023288007825613022,1.044307827949524,-4.654244422912598,3.351353645324707,1.3806513547897339,2.1453962326049805,4.108186721801758,0.30642691254615784,-0.18902215361595154,0.5408552289009094,-1.5694634914398193
288,53813,53812,0.03996723145246506,0.15091772377490997,1.0165433883666992,-5.6710357666015625,-0.9921782612800598,3.081015110015869,2.1461260318756104,4.1092376708984375,0.3056465983390808,-0.2395842969417572,0.39849549531936646,-1.50209379196167
289,53823,53822,0.05830316245555878,0.04249158501625061,1.0200929641723633,-4.811357498168945,-4.114870548248291,3.711113691329956,2.1457226276397705,4.109028339385986,0.30499956011772156,-0.08689205348491669,0.3673001229763031,-1.4459798336029053
290,53833,53832,-0.029378995299339294,0.006826466880738735,1.0342005491256714,-4.082729339599609,-4.7577996253967285,5.044131755828857,2.146721601486206,4.107809066772461,0.30015137791633606,-0.1234264224767685,0.3994176983833313,-1.4863227605819702
291,53843,53842,0.0025340658612549305,-0.019765112549066544,1.0732612609863281,-1.8512989282608032,-4.020152568817139,7.488486289978027,2.147764205932617,4.107961654663086,0.29916566610336304,-0.11336842179298401,0.3219350576400757,-1.4454902410507202
292,53853,53852,0.02850167453289032,-0.02470400184392929,1.0190657377243042,-3.862161874771118,-0.8529510498046875,9.835816383361816,2.1481428146362305,4.10817289352417,0.29828521609306335,-0.03247023746371269,0.2598508298397064,-1.3723844289779663
293,53863,53862,-0.04334760084748268,0.05803902447223663,1.079195499420166,-5.419596195220947,0.04591905698180199,10.557106018066406,2.149305820465088,4.108086109161377,0.29619503021240234,-0.1475123018026352,0.27857330441474915,-1.1458286046981812
294,53873,53872,0.009688696824014187,-0.04497407004237175,1.0396969318389893,-4.101083278656006,-1.735364556312561,11.11877155303955,2.1498212814331055,4.1070380210876465,0.29531627893447876,-0.11643946915864944,0.3761627674102783,-1.1418758630752563
295,53883,53882,0.03035072237253189,-0.06260678917169571,1.0350918769836426,-4.466547966003418,-0.960516631603241,11.51494026184082,2.1507821083068848,4.107383728027344,0.2943711578845978,-0.1635909080505371,0.2555895745754242,-1.0191895961761475
296,53893,53892,-0.00981916394084692,-0.004560929723083973,1.0903162956237793,-7.081673622131348,-3.323678731918335,10.536243438720703,2.151592969894409,4.107568264007568,0.2935689091682434,-0.18364976346492767,0.2883753180503845,-0.8862770199775696
297,53903,53902,0.008793526329100132,-0.0034679381642490625,1.0273911952972412,-10.29025650024414,-3.4613046646118164,9.503406524658203,2.152445077896118,4.106464385986328,0.2967016100883484,-0.17473550140857697,0.11675576865673065,-0.7784442901611328
298,53913,53912,0.0077090151607990265,-0.0705559104681015,1.0216476917266846,-12.518660545349121,-2.4855411052703857,9.059983253479004,2.153372287750244,4.108364582061768,0.29625043272972107,-0.1578252762556076,0.06534922868013382,-0.6304877400398254
299,53923,53922,-0.03567615896463394,0.027910979464650154,1.0386873483657837,-14.29047966003418,-1.577008605003357,8.6702241897583,2.1545162200927734,4.107524871826172,0.29579803347587585,-0.14663244783878326,-0.057157669216394424,-0.5486634969711304
300,53933,53932,0.0008099896949715912,0.0275710541754961,1.047661542892456,-14.445300102233887,0.7658690214157104,9.024714469909668,2.154090404510498,4.107903480529785,0.29328206181526184,-0.0561668835580349,-0.06555182486772537,-0.4519929587841034
301,53943,53942,-0.0018496490083634853,-0.012854482978582382,1.0606943368911743,-12.005083084106445,-2.7653560638427734,9.54019832611084,2.155031681060791,4.105713367462158,0.29274365305900574,-0.061971865594387054,-0.21047472953796387,-0.3766860067844391
302,53953,53952,-0.0457628034055233,0.10572770237922668,1.0324209928512573,-12.865139961242676,-3.5216586589813232,10.01728630065918,2.15752911567688,4.10618257522583,0.29216116666793823,-0.14830054342746735,-0.42825987935066223,-0.2885451912879944
303,53963,53962,-0.00467751594260335,-0.01272857841104269,1.088902235031128,-14.139667510986328,-7.169731616973877,11.013884544372559,2.1578330993652344,4.105398654937744,0.29154038429260254,-0.11350540071725845,-0.5640446543693542,-0.19409522414207458
304,53973,53972,-0.02536020614206791,0.01035978551954031,1.0962005853652954,-12.703585624694824,-11.803500175476074,10.960456848144531,2.1590163707733154,4.106278896331787,0.29113122820854187,-0.12904585897922516,-0.7167027592658997,-0.08328408747911453
305,53983,53982,-0.04947702959179878,0.006875670049339533,1.1165086030960083,-6.333989143371582,-16.472152709960938,10.718670845031738,2.159862756729126,4.104773998260498,0.29088467359542847,0.14490991830825806,-0.8427069187164307,0.008123054169118404
306,53993,53992,0.010351312346756458,-0.023840701207518578,1.0759832859039307,0.5100109577178955,-18.63286018371582,9.866146087646484,2.1594996452331543,4.10453462600708,0.2916073203086853,0.3821711242198944,-0.9434378743171692,0.122675821185112
307,54003,54002,-0.01498310174793005,-0.011761215515434742,1.0626420974731445,4.60115385055542,-16.047054290771484,8.806532859802246,2.1596553325653076,4.104862213134766,0.29162707924842834,0.5635831356048584,-0.9501740336418152,0.23154860734939575
308,54013,54012,-0.029900196939706802,-0.06918449699878693,1.0918560028076172,6.408405303955078,-14.13404369354248,8.400444984436035,2.162803888320923,4.103357315063477,0.2916623055934906,0.466865599155426,-0.8243865370750427,0.349542498588562
309,54023,54022,-0.007537101395428181,-0.08149469643831253,1.1029080152511597,3.3055038452148438,-10.005496978759766,6.981598377227783,2.163663148880005,4.104033946990967,0.2918459177017212,0.6008314490318298,-0.7610617876052856,0.4451349675655365
310,54033,54032,-0.04634788632392883,0.009939639829099178,1.140191912651062,-1.017192006111145,-11.323365211486816,6.1811747550964355,2.162473440170288,4.103733062744141,0.29466110467910767,0.9028791189193726,-0.7370685935020447,0.4973095655441284
311,54043,54042,0.027801062911748886,-0.08990234136581421,1.1150238513946533,-0.012442564591765404,-8.71766471862793,6.593725204467773,2.1637396812438965,4.104556560516357,0.2951766848564148,0.9722617864608765,-0.7782257199287415,0.5980221629142761
312,54053,54052,0.018565569072961807,-0.09475421905517578,1.0518354177474976,2.1925222873687744,-4.292148113250732,6.300881862640381,2.164856195449829,4.104430198669434,0.29579246044158936,1.0003198385238647,-0.802253782749176,0.6637963056564331
313,54063,54062,-0.018076932057738304,-0.021457651630043983,1.046549677848816,6.175253868103027,2.2024643421173096,6.677319049835205,2.1650655269622803,4.10383939743042,0.2927820384502411,0.9048972129821777,-0.7717776894569397,0.7582252621650696
314,54073,54072,-0.08721058070659637,-0.08789875358343124,1.083943247795105,10.136242866516113,10.270576477050781,7.47188138961792,2.1672310829162598,4.1040754318237305,0.2932843863964081,0.8735793232917786,-0.6703137159347534,0.8144670128822327
315,54083,54082,0.00032335612922906876,-0.04632962495088577,1.015036702156067,13.35576057434082,16.130752563476562,9.785906791687012,2.168401002883911,4.103120803833008,0.2938951551914215,0.7873018383979797,-0.5759640336036682,0.87076336145401
316,54093,54092,-0.0038283783942461014,-0.041022658348083496,1.0104585886001587,12.601363182067871,16.466365814208984,11.58524227142334,2.1692450046539307,4.103891372680664,0.29438501596450806,0.6560874581336975,-0.5300899147987366,0.979220986366272
317,54103,54102,-0.057717207819223404,0.05994311720132828,1.048012614250183,7.120569229125977,13.690826416015625,12.794365882873535,2.1700310707092285,4.103251934051514,0.2950560450553894,0.5221392512321472,-0.44922104477882385,1.0687166452407837
318,54113,54112,-0.02859186753630638,-0.05035817250609398,1.0225549936294556,1.5820423364639282,7.913487434387207,13.298450469970703,2.170748472213745,4.104094505310059,0.29577696323394775,0.3835742473602295,-0.3652268946170807,1.2145415544509888
319,54123,54122,-0.05952205881476402,0.022613106295466423,1.0342715978622437,-1.3977307081222534,1.9485015869140625,13.448020935058594,2.170135498046875,4.103649616241455,0.2966829240322113,0.45161011815071106,-0.34422293305397034,1.307039499282837
320,54133,54132,-0.07113225013017654,0.04564385116100311,1.026170015335083,-2.240469455718994,-0.803690493106842,13.340865135192871,2.1701788902282715,4.104024410247803,0.2958904504776001,0.5114125609397888,-0.3746400475502014,1.4367728233337402
321,54143,54142,0.10235079377889633,0.0110132722184062,0.894274115562439,-1.2791006565093994,5.276830673217773,12.942852973937988,2.1706643104553223,4.103974342346191,0.2966221570968628,0.42434948682785034,-0.4273311495780945,1.5749729871749878
322,54153,54152,0.10852134972810745,-0.012962878681719303,0.9332117438316345,6.11122465133667,0.2989886999130249,12.19218921661377,2.1722488403320312,4.103718280792236,0.29725581407546997,0.4824386537075043,-0.4030109941959381,1.6788562536239624
323,54163,54162,-0.02773694321513176,0.014892546460032463,1.0043308734893799,11.239019393920898,1.6196677684783936,11.68881607055664,2.172210693359375,4.103573799133301,0.29727452993392944,0.46620893478393555,-0.2825338840484619,1.8023871183395386
324,54173,54172,0.017501119524240494,-0.036840714514255524,0.8803725242614746,13.765912055969238,3.6102406978607178,10.452492713928223,2.172853708267212,4.102897644042969,0.29788604378700256,0.4565783739089966,-0.16699819266796112,1.930969476699829
325,54183,54182,0.008326721377670765,-0.021243073046207428,0.9136626720428467,12.602810859680176,6.189731597900391,9.042532920837402,2.1735339164733887,4.1026506423950195,0.29841989278793335,0.48566409945487976,-0.022875061258673668,2.027783155441284
326,54193,54192,-0.009245860390365124,-0.01459201518446207,0.9669747948646545,7.291299343109131,13.41633129119873,7.670693874359131,2.1739869117736816,4.102604389190674,0.29787471890449524,0.44660884141921997,0.09611658751964569,2.115110397338867
327,54203,54202,0.015284547582268715,-0.09273843467235565,0.9649125337600708,0.27795669436454773,17.02194595336914,5.325725078582764,2.1752922534942627,4.103819370269775,0.2981434464454651,0.3212015926837921,0.12153267115354538,2.1985318660736084
328,54213,54212,0.006779184099286795,-0.06914275884628296,0.9209076762199402,-2.5578982830047607,18.037187576293945,4.303901672363281,2.175365686416626,4.103950023651123,0.2984926402568817,0.15704795718193054,0.130723237991333,2.3002302646636963
329,54223,54222,-0.09791897982358932,-0.03613569959998131,0.997806966304779,0.23797164857387543,17.485010147094727,2.774937868118286,2.175745964050293,4.104360580444336,0.29752659797668457,-0.042961664497852325,0.08670178800821304,2.3659563064575195
330,54233,54232,-0.00888698361814022,-0.009436541236937046,0.985760509967804,5.466593265533447,14.66221809387207,0.6294450163841248,2.1772425174713135,4.104517459869385,0.29760992527008057,-0.21686393022537231,0.0870705097913742,2.395218849182129
331,54243,54242,0.03151082992553711,-0.07991333305835724,0.9185775518417358,9.803332328796387,13.115989685058594,-0.032944049686193466,2.1758346557617188,4.104127883911133,0.2978922426700592,-0.21698959171772003,0.23119837045669556,2.3951008319854736
332,54253,54252,0.008230093866586685,-0.0857916846871376,0.9667456746101379,10.888699531555176,12.135680198669434,-0.13048729300498962,2.1766202449798584,4.103613376617432,0.29791390895843506,-0.35287266969680786,0.32591933012008667,2.4005861282348633
333,54263,54262,0.03148277476429939,-0.0608542375266552,0.9865565299987793,6.238281726837158,11.871142387390137,-1.0918657779693604,2.17738938331604,4.104076385498047,0.2996566891670227,-0.38263359665870667,0.36670568585395813,2.415764093399048
334,54273,54272,-0.078287772834301,0.0019378979923203588,1.0679458379745483,1.2815896272659302,7.081963539123535,-1.8151501417160034,2.176304817199707,4.1043853759765625,0.2998901605606079,-0.5066801905632019,0.432811975479126,2.4062063694000244
335,54283,54282,-0.03146497160196304,-0.0393732450902462,0.9913540482521057,-4.3848137855529785,6.211240768432617,-2.277963161468506,2.1770505905151367,4.104285717010498,0.3000245988368988,-0.5791205763816833,0.45063045620918274,2.3882462978363037
336,54293,54292,-0.020895252004265785,-0.03565014898777008,1.0153323411941528,-7.740546226501465,3.849027156829834,-1.5989395380020142,2.177278518676758,4.104419708251953,0.3037770986557007,-0.6407738924026489,0.3707362413406372,2.356128692626953
337,54303,54302,0.02964423969388008,-0.021982019767165184,0.9546981453895569,-6.206253528594971,2.4917445182800293,-1.2170039415359497,2.1774110794067383,4.103761196136475,0.3041296899318695,-0.7918057441711426,0.3289356529712677,2.3519043922424316
338,54313,54312,-0.035339515656232834,-0.025422364473342896,1.0166542530059814,-4.725437164306641,1.2178627252578735,-1.1309770345687866,2.179542303085327,4.105529308319092,0.30445393919944763,-0.7740495800971985,0.22094665467739105,2.400294303894043
339,54323,54322,0.001287301885895431,0.0130237378180027,1.0097875595092773,-1.7669552564620972,0.27572473883628845,-1.26022207736969,2.1794142723083496,4.105724334716797,0.30392012000083923,-0.7371242642402649,0.23041395843029022,2.395059823989868
340,54333,54332,0.12027137726545334,-0.03638257458806038,0.9399698972702026,-0.9298281073570251,-0.01819937862455845,-1.303750991821289,2.179436445236206,4.10551118850708,0.3042301535606384,-0.7401654124259949,0.21032196283340454,2.4044289588928223
341,54343,54342,0.003478064201772213,-0.014916297979652882,1.0151379108428955,-0.4669954180717468,-0.22097210586071014,-0.7483184337615967,2.1800901889801025,4.105625629425049,0.3044777810573578,-0.8543931245803833,0.24620485305786133,2.3942813873291016
342,54353,54352,-1.8106762581737712e-05,0.005975781474262476,0.9874159097671509,-1.1959891319274902,0.6376126408576965,-0.37995633482933044,2.1814684867858887,4.104638576507568,0.30465519428253174,-0.939195454120636,0.21695202589035034,2.3650176525115967
343,54363,54362,-0.005845150910317898,-0.050446655601263046,0.9688411355018616,-2.5915565490722656,1.9869840145111084,-0.6491974592208862,2.1830246448516846,4.104873180389404,0.3052516579627991,-0.8806604146957397,0.17418502271175385,2.3770220279693604
344,54373,54372,0.010601460933685303,-0.0074621099047362804,0.9992603063583374,-3.6699984073638916,3.2998032569885254,-1.541149616241455,2.1832761764526367,4.105571269989014,0.30556222796440125,-0.8998475074768066,0.1508665680885315,2.3894379138946533
345,54383,54382,0.046510305255651474,-0.06675126403570175,0.9569357633590698,-4.309582710266113,3.3333516120910645,-2.3870701789855957,2.1843013763427734,4.104766845703125,0.3057354688644409,-0.9131187796592712,0.24607278406620026,2.410541534423828
346,54393,54392,-0.04861445724964142,0.01928027719259262,0.9359613060951233,-6.212141990661621,3.434262275695801,-3.5731494426727295,2.1842200756073,4.104086875915527,0.3028976619243622,-0.9527302384376526,0.1993895173072815,2.374875068664551
347,54403,54402,0.020258456468582153,-0.020273059606552124,0.9155697226524353,-9.921030044555664,0.5572129487991333,-4.404659271240234,2.1842353343963623,4.104132652282715,0.3028806447982788,-0.9564564228057861,0.19726678729057312,2.366661787033081
348,54413,54412,-0.006671253126114607,-0.02830052562057972,0.9688782691955566,-11.009980201721191,-0.05994313955307007,-5.413574695587158,2.185028314590454,4.10338830947876,0.3027340769767761,-0.9635680317878723,0.10151176899671555,2.329728603363037
349,54423,54422,-0.020859645679593086,-0.00820846576243639,0.9958376288414001,-11.09682846069336,1.1709181070327759,-5.1741132736206055,2.1858677864074707,4.1027092933654785,0.30106398463249207,-0.9647069573402405,0.03730856999754906,2.283463478088379
350,54433,54432,0.08484768122434616,-0.05928429216146469,0.9353119134902954,-10.465909957885742,4.790665149688721,-5.011855602264404,2.1878182888031006,4.10432243347168,0.30075740814208984,-1.0773323774337769,-0.18832501769065857,2.2532944679260254
351,54443,54442,-0.023364920169115067,0.021441133692860603,1.0049563646316528,-9.134860038757324,5.768331050872803,-5.375314712524414,2.1889798641204834,4.104314804077148,0.3004124164581299,-1.1390894651412964,-0.3116680085659027,2.1986279487609863
352,54453,54452,0.03651934117078781,-0.0685063898563385,1.0358506441116333,-6.65856409072876,6.28302001953125,-4.665015697479248,2.1906816959381104,4.104445457458496,0.30002155900001526,-1.2267178297042847,-0.4191523492336273,2.140580654144287
353,54463,54462,0.07875731587409973,-0.10809452831745148,1.0114108324050903,-3.9599337577819824,4.312620162963867,-5.585665225982666,2.1925160884857178,4.10391092300415,0.3033353388309479,-1.3836631774902344,-0.47330325841903687,2.0918452739715576
354,54473,54472,-0.02696315199136734,0.005612979177385569,1.0310307741165161,-1.1459561586380005,0.7571763396263123,-6.201327323913574,2.1946182250976562,4.103255748748779,0.30315929651260376,-1.4970840215682983,-0.48373207449913025,2.028061866760254
355,54483,54482,0.0040138778276741505,-0.04223114252090454,0.9841950535774231,1.3309249877929688,-6.174125671386719,-7.075392246246338,2.194908380508423,4.1025710105896,0.30331099033355713,-1.3814518451690674,-0.4515344500541687,1.976146936416626
356,54493,54492,0.033248450607061386,-0.033775534480810165,0.9505626559257507,1.9565621614456177,-9.427312850952148,-6.836724758148193,2.1973140239715576,4.101545810699463,0.3022269904613495,-1.4861825704574585,-0.3762320578098297,1.9068446159362793
357,54503,54502,0.024740880355238914,-0.00021469495550263673,0.9808586835861206,-0.0020736667793244123,-12.448814392089844,-6.453480243682861,2.1974446773529053,4.100678443908691,0.30223387479782104,-1.2701903581619263,-0.3024015426635742,1.8407198190689087
358,54513,54512,-0.03598460927605629,0.011331647634506226,1.034084439277649,-2.778959035873413,-12.607559204101562,-5.755635738372803,2.1964657306671143,4.1004509925842285,0.30233901739120483,-0.9474099278450012,-0.347258061170578,1.763682246208191
359,54523,54522,0.04646829143166542,-0.17007890343666077,0.9903737306594849,-7.02237606048584,-9.241853713989258,-6.285294532775879,2.20001482963562,4.100996017456055,0.30367282032966614,-1.0760866403579712,-0.437070369720459,1.7149423360824585
360,54533,54532,-0.06460296362638474,-0.05784012749791145,1.0633604526519775,-9.117548942565918,-7.295107841491699,-6.675302028656006,2.200791120529175,4.100452423095703,0.30363452434539795,-0.9416008591651917,-0.43956997990608215,1.684285283088684
361,54543,54542,-0.026869870722293854,-0.10841590911149979,1.0125350952148438,-8.942513465881348,-0.2410563975572586,-7.707775592803955,2.2014200687408447,4.1007490158081055,0.3036457300186157,-0.854030966758728,-0.6209978461265564,1.5816842317581177
362,54553,54552,-0.005896841175854206,-0.013318650424480438,0.9833745360374451,-7.686188220977783,-0.9863084554672241,-7.303390026092529,2.203399896621704,4.10120153427124,0.30366501212120056,-0.8648276329040527,-0.6409040689468384,1.5821692943572998
363,54563,54562,0.006960763130337,-0.1271519809961319,1.0316815376281738,-6.298598289489746,-2.271399736404419,-6.801230430603027,2.205859422683716,4.101644515991211,0.30545565485954285,-0.944807767868042,-0.7968953847885132,1.512450098991394
364,54573,54572,0.0013242801651358604,-0.14614664018154144,1.0406081676483154,-2.921743154525757,-7.604588031768799,-5.097752094268799,2.207852602005005,4.100203037261963,0.3055323362350464,-0.9612826704978943,-0.7604835629463196,1.4459028244018555
365,54583,54582,-0.031066520139575005,0.02172781340777874,1.0173587799072266,0.12956498563289642,-11.290430068969727,-4.130885601043701,2.208199977874756,4.099544048309326,0.30593132972717285,-0.7512576580047607,-0.7549948692321777,1.388092041015625
366,54593,54592,0.029353512451052666,-0.14637215435504913,0.9633277058601379,2.05509614944458,-13.924907684326172,-4.400111675262451,2.2079365253448486,4.099154949188232,0.3083418011665344,-0.49503788352012634,-0.7781682014465332,1.3150802850723267
367,54603,54602,-0.05781221389770508,-0.05116245523095131,1.0286568403244019,2.269359588623047,-13.261977195739746,-3.837339401245117,2.2112174034118652,4.0992841720581055,0.30847951769828796,-0.5859243273735046,-0.7683253884315491,1.2995156049728394
368,54613,54612,-0.03209273889660835,-0.18706150352954865,1.0067057609558105,2.1749682426452637,-11.554425239562988,-4.145983695983887,2.2121918201446533,4.0989532470703125,0.30883026123046875,-0.42403388023376465,-0.7536381483078003,1.2505650520324707
369,54623,54622,-0.0405234657227993,-0.02828340232372284,1.0207393169403076,-0.21230947971343994,-9.047839164733887,-4.4480156898498535,2.211742639541626,4.098819732666016,0.30784788727760315,-0.17834632098674774,-0.7440207004547119,1.1980663537979126
370,54633,54632,-0.009565657004714012,-0.0358462817966938,0.9829915761947632,-2.337500810623169,-5.675763130187988,-4.630137920379639,2.2146124839782715,4.099837303161621,0.30807697772979736,-0.21231815218925476,-0.770784854888916,1.2141274213790894
371,54643,54642,0.024184994399547577,0.007965240627527237,0.9915603995323181,-4.6194586753845215,-0.5696064233779907,-4.697660446166992,2.2166857719421387,4.0992937088012695,0.30832770466804504,-0.21141640841960907,-0.7609160542488098,1.1729792356491089
372,54653,54652,0.06007705256342888,-0.10318252444267273,0.970115065574646,-3.9490857124328613,-3.3322653770446777,-3.7243895530700684,2.2183876037597656,4.100305557250977,0.30939051508903503,-0.1922987848520279,-0.8558232188224792,1.1605783700942993
373,54663,54662,0.0034948312677443027,-0.010628541931509972,1.0065360069274902,-1.353661298751831,-6.717990398406982,-3.8967084884643555,2.2192559242248535,4.099118709564209,0.30970168113708496,-0.12918446958065033,-0.8552863001823425,1.0826153755187988
374,54673,54672,-0.008461929857730865,0.030173664912581444,0.9729114770889282,2.283498525619507,-11.537873268127441,-3.6074743270874023,2.2202136516571045,4.098955154418945,0.3100361227989197,-0.008795925416052341,-0.8836409449577332,1.0053783655166626
375,54683,54682,0.007691394537687302,-0.039967529475688934,0.9583656787872314,6.963400363922119,-16.714265823364258,-3.6721177101135254,2.221095561981201,4.098165512084961,0.3103824555873871,0.17696507275104523,-0.8494756817817688,0.9504375457763672
376,54693,54692,0.013281713239848614,-0.0172455795109272,0.9847407341003418,10.632753372192383,-19.051401138305664,-4.055851459503174,2.2244012355804443,4.097460746765137,0.3075408935546875,0.13736814260482788,-0.7378501296043396,0.9270254373550415
377,54703,54702,-0.015055409632623196,0.015004648827016354,1.0010699033737183,12.464903831481934,-18.579992294311523,-5.002096652984619,2.2247447967529297,4.096677303314209,0.3077220916748047,0.4458806812763214,-0.5721670985221863,0.8750252723693848
378,54713,54712,-0.026808323338627815,-0.014608520083129406,0.9939480423927307,9.54708480834961,-19.360271453857422,-4.673348426818848,2.2264201641082764,4.097437858581543,0.3077563941478729,0.5931566953659058,-0.5390400886535645,0.8295614719390869
379,54723,54722,-0.04943474382162094,-0.023075269535183907,1.0045990943908691,2.6459057331085205,-11.296004295349121,-3.294595241546631,2.2282631397247314,4.096686840057373,0.3040575683116913,0.7178742289543152,-0.4122854173183441,0.776311993598938
380,54733,54732,-0.02379094809293747,0.00708895456045866,0.9821186065673828,-4.679972171783447,-6.233553886413574,-1.9187867641448975,2.2292842864990234,4.09737491607666,0.30394071340560913,0.8848104476928711,-0.4748721718788147,0.7291067838668823
381,54743,54742,0.01066694688051939,-0.0470307283103466,0.9671490788459778,-11.278127670288086,-2.4800655841827393,-1.60136079788208,2.2317750453948975,4.097970008850098,0.3036622703075409,0.8254413604736328,-0.5699150562286377,0.7329206466674805
382,54753,54752,0.039611488580703735,-0.1837085485458374,0.994281530380249,-15.920242309570312,0.9396320581436157,-1.6216660737991333,2.233731746673584,4.098160743713379,0.3018452227115631,0.8187038898468018,-0.6841476559638977,0.7245855331420898
383,54763,54762,-0.0031138351187109947,0.006588022690266371,1.0016545057296753,-15.416056632995605,-0.02572755329310894,-1.8559634685516357,2.234001636505127,4.096891403198242,0.30156874656677246,0.8740919828414917,-0.8011729717254639,0.6428884863853455
384,54773,54772,-0.021265944465994835,-0.08145664632320404,1.0017850399017334,-8.296560287475586,-4.375734806060791,-0.8935072422027588,2.2345452308654785,4.096781253814697,0.30132144689559937,0.9686983823776245,-0.9550986886024475,0.6060680150985718
385,54783,54782,-0.0027689426206052303,0.02552623301744461,1.0191501379013062,0.997898519039154,-6.983153343200684,-0.4963095486164093,2.2346551418304443,4.097294330596924,0.3010644316673279,1.1122941970825195,-1.0703778266906738,0.5897479057312012
386,54793,54792,0.021407458931207657,-0.04404008388519287,0.9770246148109436,7.163443565368652,-5.546916484832764,-0.4570621848106384,2.2357380390167236,4.096651077270508,0.30429214239120483,1.2022340297698975,-1.0268664360046387,0.5610855221748352
387,54803,54802,-0.04917982220649719,-0.0959245041012764,1.0640971660614014,12.646071434020996,-3.207562208175659,-1.4009521007537842,2.2388644218444824,4.096615314483643,0.3041151463985443,1.0637356042861938,-0.8757331371307373,0.601451575756073
388,54813,54812,-0.05159102380275726,-0.07585511356592178,1.0750794410705566,12.096013069152832,1.1727045774459839,-2.0068018436431885,2.2405760288238525,4.095913887023926,0.3040045201778412,1.0748940706253052,-0.6616412997245789,0.5859606862068176
389,54823,54822,0.004268907010555267,-0.06277046352624893,1.0490338802337646,4.956894874572754,3.9103152751922607,-1.9699127674102783,2.2406418323516846,4.096356391906738,0.3040713369846344,1.197526454925537,-0.5570001602172852,0.5798730254173279
390,54833,54832,-0.017396103590726852,-0.02772398851811886,1.030493974685669,0.18870876729488373,5.6930832862854,-2.751640796661377,2.2422378063201904,4.099253177642822,0.3041975200176239,1.1807461977005005,-0.7123364806175232,0.6700721979141235
391,54843,54842,-0.0162874236702919,-0.03800161927938461,1.0027337074279785,-0.5468602180480957,8.763204574584961,-2.479166030883789,2.243161916732788,4.0997233390808105,0.3043034076690674,1.1248393058776855,-0.688223123550415,0.6362716555595398
392,54853,54852,-0.024272175505757332,-0.06839198619127274,1.0139752626419067,1.7215551137924194,8.65196418762207,-1.185239315032959,2.244619369506836,4.100413799285889,0.30425119400024414,1.0395078659057617,-0.6711844205856323,0.6522771120071411
393,54863,54862,-0.045898254960775375,0.07554420083761215,1.0153377056121826,3.2012815475463867,3.730698585510254,0.9530527591705322,2.2444968223571777,4.10113525390625,0.30442169308662415,1.0299197435379028,-0.6968920230865479,0.6384345293045044
394,54873,54872,-0.048167139291763306,0.034179188311100006,1.041548252105713,6.565016269683838,4.23703670501709,0.789740800857544,2.2457516193389893,4.102322101593018,0.30456048250198364,0.9886605143547058,-0.6799986958503723,0.6934995055198669
395,54883,54882,0.01112721674144268,0.09637425094842911,1.008553385734558,7.311615943908691,2.8797476291656494,1.2869927883148193,2.246889114379883,4.101290702819824,0.3047487735748291,0.9522368311882019,-0.5403323173522949,0.6605520844459534
396,54893,54892,0.004743143450468779,0.13999439775943756,0.9918004870414734,5.776535987854004,3.888850212097168,1.9406733512878418,2.2475838661193848,4.101509094238281,0.3039148449897766,0.9295516610145569,-0.47817131876945496,0.6694628596305847
397,54903,54902,-0.05146997049450874,0.030863454565405846,1.032126784324646,2.401841163635254,0.6770537495613098,3.184203624725342,2.249145984649658,4.1024041175842285,0.30396926403045654,0.8262481093406677,-0.44515544176101685,0.7201969027519226
398,54913,54912,-0.007396162953227758,-0.1117791160941124,0.9716399908065796,-0.6749299168586731,-0.22290806472301483,2.910745620727539,2.249255895614624,4.10246467590332,0.30418068170547485,0.9023778438568115,-0.45771026611328125,0.7132784724235535
399,54923,54922,-0.008722693659365177,-0.027929069474339485,1.0041898488998413,-6.0558929443359375,3.747532367706299,1.6303833723068237,2.2503468990325928,4.102403163909912,0.3003409802913666,0.8909392356872559,-0.4597339928150177,0.7259407639503479
400,54933,54932,0.024985933676362038,-0.01006455160677433,0.9762475490570068,-7.203823566436768,4.245770454406738,0.9929812550544739,2.2517621517181396,4.103379726409912,0.30013421177864075,0.773455798625946,-0.609549343585968,0.7451297044754028
401,54943,54942,-0.041898369789123535,-0.0058274599723517895,1.0033411979675293,-6.293590068817139,4.860057353973389,-0.39821118116378784,2.2532689571380615,4.103565216064453,0.29991763830184937,0.6505751013755798,-0.6863217353820801,0.7394542694091797
402,54953,54952,-0.010627013631165028,-0.011035381816327572,1.0059208869934082,-4.630671501159668,6.287052154541016,-1.0172107219696045,2.2534732818603516,4.104565620422363,0.30265533924102783,0.6742120385169983,-0.7442132830619812,0.7642045617103577
403,54963,54962,-0.05865872651338577,0.04962834343314171,1.008354902267456,-1.6860523223876953,5.443238258361816,-1.6420056819915771,2.254390239715576,4.104703903198242,0.3026728630065918,0.5823246836662292,-0.7745015621185303,0.7368521094322205
404,54973,54972,-0.014878266490995884,-0.034265823662281036,1.0209910869598389,4.268861293792725,4.135920524597168,-2.0209100246429443,2.2553346157073975,4.10560417175293,0.30284518003463745,0.5874857306480408,-0.7399777173995972,0.7650665640830994
405,54983,54982,-0.0009367366437800229,-0.026171190664172173,1.0194836854934692,10.756847381591797,2.902543783187866,-2.1028146743774414,2.2559573650360107,4.1045122146606445,0.3018997311592102,0.544108510017395,-0.6025587916374207,0.689191460609436
406,54993,54992,-0.023052923381328583,-0.0345255546271801,1.0173513889312744,16.231597900390625,4.150487422943115,-0.6557525992393494,2.255962610244751,4.106408596038818,0.30193373560905457,0.5842248797416687,-0.6610631346702576,0.6653722524642944
407,55003,55002,-0.006714953575283289,0.14207413792610168,0.9888893365859985,18.542043685913086,7.837044715881348,-0.23628191649913788,2.2576279640197754,4.105862617492676,0.30194395780563354,0.4365406036376953,-0.396147757768631,0.6586511135101318
408,55013,55012,0.029303088784217834,0.1508733481168747,0.933127760887146,15.75256061553955,11.03253173828125,-0.5448272228240967,2.2579410076141357,4.1046462059021,0.30202874541282654,0.3799366056919098,-0.12030881643295288,0.5944920778274536
409,55023,55022,-0.07587996870279312,-0.003000787692144513,1.0513677597045898,8.752177238464355,11.217162132263184,-1.2333192825317383,2.258882761001587,4.105732440948486,0.30347469449043274,0.2792373597621918,0.008922364562749863,0.622312068939209
410,55033,55032,-0.004565587267279625,-0.11269300431013107,0.9721931219100952,1.6976298093795776,12.433337211608887,-1.7611202001571655,2.2592689990997314,4.106585502624512,0.3035731911659241,0.16992352902889252,0.0191000085324049,0.601608157157898
411,55043,55042,-0.04303776100277901,0.03205323964357376,1.0331470966339111,-3.0906436443328857,10.959362983703613,-1.8823482990264893,2.2601826190948486,4.106403350830078,0.30368945002555847,0.047434914857149124,0.06111963838338852,0.5794838666915894
412,55053,55052,0.034681402146816254,-0.011580262333154678,0.9865784049034119,-1.09457266330719,5.767993450164795,-1.6357221603393555,2.260704278945923,4.1088480949401855,0.30354273319244385,-0.031029457226395607,-0.09984282404184341,0.6070740818977356
413,55063,55062,-0.06998702883720398,-0.0064935083501040936,1.0491375923156738,5.075096607208252,-3.3137991428375244,-1.5370068550109863,2.2614238262176514,4.108612060546875,0.3036336898803711,-0.10855616629123688,-0.04665174335241318,0.5686189532279968
414,55073,55072,-0.08646976947784424,0.01067588571459055,1.0352959632873535,11.148804664611816,-4.0812458992004395,-1.3902533054351807,2.2616918087005615,4.109004974365234,0.30395442247390747,0.029212746769189835,0.10867613554000854,0.5997235178947449
415,55083,55082,-0.010723461396992207,0.03375088423490524,1.0126161575317383,11.437555313110352,-4.252963066101074,-1.1473853588104248,2.262418746948242,4.110500812530518,0.30227264761924744,0.01949389837682247,0.026302557438611984,0.5540766716003418
416,55093,55092,-0.0012389285257086158,-0.02305375039577484,0.9938967227935791,11.92282485961914,-2.9388270378112793,-0.7353184819221497,2.2621912956237793,4.11015510559082,0.30246612429618835,0.1748451590538025,0.20791202783584595,0.5245312452316284
417,55103,55102,-0.03827168792486191,-0.022212021052837372,1.010368824005127,13.014958381652832,2.0295164585113525,-0.04519018530845642,2.262094736099243,4.110748767852783,0.3025744557380676,0.27162811160087585,0.3094356656074524,0.5085874795913696
418,55113,55112,0.001678101602010429,-0.016638847067952156,0.9912140369415283,12.336054801940918,6.919466018676758,0.8015918135643005,2.2632675170898438,4.110754489898682,0.3026712238788605,0.20232528448104858,0.4318103790283203,0.48574596643447876
419,55123,55122,0.01842721551656723,-0.08614008873701096,1.0078216791152954,11.091121673583984,9.621060371398926,1.1644290685653687,2.264373540878296,4.111216068267822,0.3024986684322357,0.0659976527094841,0.6169362664222717,0.5163217782974243
420,55133,55132,-0.024938449263572693,-0.022562816739082336,1.0137004852294922,7.272086143493652,9.4448823928833,0.6666669845581055,2.2642362117767334,4.111738681793213,0.3026144802570343,-0.025002531707286835,0.6845320463180542,0.5114588737487793
421,55143,55142,-0.046244874596595764,-0.021342633292078972,1.0183818340301514,4.87814998626709,7.624547004699707,1.3244073390960693,2.26456356048584,4.11385440826416,0.3027488887310028,-0.07309078425168991,0.6944935321807861,0.5897281169891357
422,55153,55152,-0.044304486364126205,0.01184606272727251,1.0236597061157227,4.036717414855957,5.975735187530518,1.321576476097107,2.2662577629089355,4.114753246307373,0.3046727180480957,-0.20894411206245422,0.7466548681259155,0.6446375846862793
423,55163,55162,0.0012364762369543314,-0.009629371576011181,1.012253999710083,5.860365867614746,3.6393649578094482,1.4917995929718018,2.26615309715271,4.114573955535889,0.30495521426200867,-0.22739769518375397,0.8698835372924805,0.6466537714004517
424,55173,55172,0.02849551849067211,-0.019970981404185295,0.981482207775116,9.859515190124512,1.181503176689148,2.0284082889556885,2.2673027515411377,4.117439270019531,0.305225670337677,-0.2822648882865906,0.7966380715370178,0.7333928346633911
425,55183,55182,-0.013662816025316715,-0.005974393803626299,1.018481731414795,10.617347717285156,-0.039950039237737656,0.7720222473144531,2.2676119804382324,4.117376327514648,0.3045801520347595,-0.3049943745136261,0.8695540428161621,0.6944721937179565
426,55193,55192,-0.014797202311456203,-0.019388023763895035,0.9881612658500671,10.851483345031738,-1.3372706174850464,1.6881855726242065,2.2681496143341064,4.118165493011475,0.30476880073547363,-0.2910393476486206,0.953277587890625,0.6798092722892761
427,55203,55202,0.012738894671201706,-0.043620336800813675,0.9750909805297852,9.31958293914795,-1.0010411739349365,2.4676871299743652,2.267703056335449,4.118301868438721,0.30502617359161377,-0.1925150454044342,1.0398894548416138,0.690026044845581
428,55213,55212,-0.01819494180381298,-0.020084533840417862,0.9867826104164124,6.047783374786377,0.6624587178230286,2.8873043060302734,2.269407272338867,4.11778450012207,0.30513623356819153,-0.3448074162006378,1.2443865537643433,0.7014854550361633
429,55223,55222,-0.03481171280145645,-0.0129806287586689,1.0077548027038574,4.522003173828125,1.1088061332702637,3.4094290733337402,2.2695772647857666,4.117455959320068,0.30634579062461853,-0.27000024914741516,1.3843036890029907,0.7455813884735107
430,55233,55232,0.022418057546019554,-0.052087653428316116,0.9599860310554504,3.8927900791168213,1.5030972957611084,3.422316312789917,2.2696475982666016,4.118248462677002,0.30659815669059753,-0.2867112159729004,1.3389462232589722,0.7442248463630676
431,55243,55242,0.013855676166713238,-8.225812780437991e-05,0.998483419418335,2.841907262802124,3.1782374382019043,3.787674903869629,2.269792079925537,4.118046283721924,0.3068573474884033,-0.23743857443332672,1.4429173469543457,0.7941939830780029
432,55253,55252,0.025568220764398575,-0.09166774153709412,0.940507709980011,3.8831026554107666,4.964252471923828,3.9014651775360107,2.2696046829223633,4.117181301116943,0.3105369210243225,-0.21940939128398895,1.4552528858184814,0.7516757845878601
433,55263,55262,-0.013127891346812248,-0.036996521055698395,0.9769272208213806,4.12672233581543,6.014347553253174,4.753147125244141,2.272148609161377,4.117490768432617,0.31078866124153137,-0.47344404458999634,1.471967339515686,0.747109591960907
434,55273,55272,-0.02338206022977829,-0.0282026007771492,0.9873480200767517,4.042804718017578,4.295840740203857,5.926077365875244,2.272865056991577,4.118770599365234,0.31118789315223694,-0.4893353283405304,1.4994051456451416,0.8572261929512024
435,55283,55282,-0.052289336919784546,0.047474753111600876,1.0184118747711182,0.29478204250335693,7.515000343322754,5.668689727783203,2.2733261585235596,4.118946552276611,0.30905628204345703,-0.5111134648323059,1.5695281028747559,0.9385274052619934
436,55293,55292,-0.040328145027160645,0.020111121237277985,0.9678471684455872,-2.9577298164367676,6.31466007232666,4.827077865600586,2.2737231254577637,4.118100643157959,0.30911070108413696,-0.6464722752571106,1.5851352214813232,0.9291310906410217
437,55303,55302,-0.02018526755273342,0.028135744854807854,0.9552127718925476,-9.45961856842041,8.533003807067871,4.988666534423828,2.2747414112091064,4.118812084197998,0.30922797322273254,-0.7576069831848145,1.3725699186325073,0.8995277285575867
438,55313,55312,-0.015038138255476952,0.023466333746910095,0.9773783683776855,-13.378039360046387,7.447571754455566,4.286365985870361,2.275487184524536,4.118504047393799,0.3091467022895813,-0.8768036365509033,1.2992544174194336,0.946419358253479
439,55323,55322,0.06811194866895676,-0.074709951877594,0.9978327751159668,-16.304439544677734,9.853826522827148,3.6924831867218018,2.2758820056915283,4.118605613708496,0.3092535436153412,-0.9257776737213135,1.241802453994751,1.0245834589004517
440,55333,55332,0.06009763851761818,-0.03926864638924599,0.9783074855804443,-12.092995643615723,0.9655397534370422,3.188218355178833,2.2761950492858887,4.118561267852783,0.3094014823436737,-0.9192376732826233,1.0895696878433228,1.0531017780303955
441,55343,55342,-0.020979268476366997,0.03667474910616875,0.9926665425300598,-8.25883674621582,0.8395964503288269,3.2400405406951904,2.278210163116455,4.118714809417725,0.30939239263534546,-0.9986463785171509,1.0731714963912964,1.1395739316940308
442,55353,55352,0.02709580585360527,-0.05412488430738449,0.9200430512428284,-6.584107875823975,-0.06931319832801819,2.3100781440734863,2.278465509414673,4.1188740730285645,0.3085666000843048,-0.9783673286437988,0.9488014578819275,1.1514346599578857
443,55363,55362,-0.09786977618932724,-0.029663512483239174,1.01944100856781,-6.575145244598389,-1.5014973878860474,0.4122138023376465,2.278575897216797,4.118931770324707,0.3085751533508301,-0.9016113877296448,0.8465479612350464,1.1709167957305908
444,55373,55372,0.04571317881345749,-0.06885959208011627,0.9136049151420593,-8.00667953491211,-2.7445919513702393,-1.7627449035644531,2.279853582382202,4.1185431480407715,0.3084530234336853,-0.9374847412109375,0.9071439504623413,1.215578556060791
445,55383,55382,0.062179140746593475,-0.03678250312805176,0.9267159700393677,-8.892324447631836,-5.588973522186279,-3.51213002204895,2.2804789543151855,4.119352340698242,0.30914950370788574,-0.9365976452827454,0.6807833909988403,1.1358554363250732
446,55393,55392,-0.0450005978345871,0.17804789543151855,0.9785805940628052,-9.098904609680176,-9.406317710876465,-5.0577898025512695,2.280203342437744,4.119076728820801,0.30919212102890015,-0.7234076857566833,0.686708927154541,1.1767685413360596
447,55403,55402,0.008588816970586777,0.0050866324454545975,0.935620129108429,-6.868307590484619,-10.988554000854492,-6.4442620277404785,2.282165765762329,4.118743419647217,0.30886584520339966,-0.7578149437904358,0.5372828841209412,1.053825855255127
448,55413,55412,0.0011954322690144181,-0.05477413162589073,0.953357458114624,-4.9041643142700195,-7.014026641845703,-7.6877312660217285,2.2829039096832275,4.118353843688965,0.3077877461910248,-0.6028951406478882,0.5955359935760498,1.055909514427185
449,55423,55422,0.014247383922338486,-0.021278589963912964,1.0243799686431885,-2.9617345333099365,-3.393181800842285,-9.38184928894043,2.2840421199798584,4.119511604309082,0.30746912956237793,-0.5496176481246948,0.5104267597198486,1.0036743879318237
450,55433,55432,0.011303824372589588,-0.0026528220623731613,1.0098403692245483,-0.502966046333313,-1.4833227396011353,-9.491591453552246,2.2855117321014404,4.119001865386963,0.3070669174194336,-0.6355139017105103,0.537925124168396,0.9114127159118652
451,55443,55442,0.08421916514635086,-0.13575205206871033,0.9994759559631348,3.3360278606414795,-1.877817988395691,-8.191839218139648,2.286921977996826,4.118144989013672,0.3066979944705963,-0.6468520164489746,0.6043660640716553,0.8189424276351929
452,55453,55452,0.05133749172091484,-0.12682339549064636,1.0477443933486938,3.603109121322632,-3.4373879432678223,-6.814846992492676,2.285799980163574,4.117317199707031,0.3045376241207123,-0.47621771693229675,0.6439580917358398,0.7231205105781555
453,55463,55462,0.06738930940628052,-0.09488961845636368,0.9838352203369141,2.458939790725708,-4.503111362457275,-5.175203800201416,2.2882869243621826,4.1165385246276855,0.3040223717689514,-0.6120920777320862,0.6787214875221252,0.601613461971283
454,55473,55472,-0.05300762876868248,0.12714742124080658,1.0214166641235352,-0.41044852137565613,-1.860368251800537,-3.6553945541381836,2.2880032062530518,4.116283416748047,0.30383580923080444,-0.42571789026260376,0.6871030926704407,0.5461270213127136
455,55483,55482,-0.001444707391783595,0.026558328419923782,0.9912093281745911,0.13556715846061707,-2.505469560623169,-1.9720522165298462,2.2902605533599854,4.115869998931885,0.3021165132522583,-0.4996298551559448,0.6603022813796997,0.4730364680290222
456,55493,55492,-0.014739890582859516,0.02569882571697235,1.0409157276153564,-0.3689250946044922,-2.728672981262207,-0.22119827568531036,2.290947675704956,4.115972995758057,0.30174750089645386,-0.4173578917980194,0.6375409364700317,0.4623819589614868
457,55503,55502,0.012600562535226345,-0.0011593694798648357,1.0159176588058472,-2.197557210922241,-2.846118211746216,1.6209909915924072,2.2936832904815674,4.115808963775635,0.3011613190174103,-0.5617008209228516,0.5950863361358643,0.42458832263946533
458,55513,55512,-0.04294051229953766,-0.006694755516946316,1.048979640007019,-2.1653411388397217,-6.2316060066223145,3.477120876312256,2.2932238578796387,4.1144256591796875,0.2999536097049713,-0.36722129583358765,0.6110695600509644,0.3956666588783264
459,55523,55522,-0.0022372109815478325,-0.019089797511696815,1.0208320617675781,-0.8946071863174438,-7.292494773864746,5.076831817626953,2.2961745262145996,4.11337423324585,0.29932737350463867,-0.5206579566001892,0.6296851634979248,0.39988186955451965
460,55533,55532,-0.035653743892908096,0.0387214832007885,1.0632115602493286,-2.252051591873169,-7.486959934234619,6.262157440185547,2.2962794303894043,4.11349630355835,0.29913341999053955,-0.32872363924980164,0.5808740258216858,0.462748646736145
461,55543,55542,-0.024152442812919617,-0.11954178661108017,1.0382275581359863,-6.825568675994873,-5.627244472503662,7.477872371673584,2.2977161407470703,4.113079071044922,0.30048176646232605,-0.2552352845668793,0.5806164145469666,0.5460400581359863
462,55553,55552,-0.08017119765281677,-0.005358119495213032,1.0470654964447021,-11.556154251098633,-1.388466477394104,7.697455883026123,2.2978906631469727,4.112600803375244,0.3004004657268524,-0.09030620008707047,0.48737233877182007,0.6053890585899353
463,55563,55562,-0.04023022577166557,-0.029144734144210815,1.0280157327651978,-14.000900268554688,4.940176010131836,8.821611404418945,2.300813674926758,4.111825942993164,0.3000888228416443,-0.2749646306037903,0.39593273401260376,0.6099672913551331
464,55573,55572,-0.027200069278478622,-0.0929841473698616,1.04036545753479,-13.06229019165039,7.101469993591309,9.27945613861084,2.30207896232605,4.110305309295654,0.29991599917411804,-0.38251742720603943,0.345928817987442,0.7376640439033508
465,55583,55582,0.004649203270673752,-0.1036510095000267,1.0121129751205444,-9.52954387664795,5.447921276092529,7.7065887451171875,2.3010594844818115,4.110404014587402,0.298276424407959,-0.3552897870540619,0.16642142832279205,0.8395568132400513
466,55593,55592,0.027814187109470367,0.007705834228545427,1.0106374025344849,-5.645369052886963,2.39022159576416,6.7729172706604,2.300884962081909,4.111116886138916,0.29826030135154724,-0.29410237073898315,-0.014032297767698765,0.9304782152175903
467,55603,55602,-0.01374847162514925,-0.0032319435849785805,1.0495281219482422,-2.3590619564056396,-1.68705153465271,7.180638790130615,2.302586555480957,4.109882354736328,0.2980267405509949,-0.41101038455963135,-0.044296905398368835,0.9422727823257446
468,55613,55612,0.023044660687446594,0.025879856199026108,1.0806058645248413,0.07501731067895889,-7.154791831970215,8.281915664672852,2.3044235706329346,4.109686374664307,0.2995135188102722,-0.4472905993461609,-0.013843514956533909,1.0546568632125854
469,55623,55622,0.007333167362958193,-0.029218265786767006,1.0112041234970093,-1.1858677864074707,-13.862995147705078,7.630067825317383,2.3049092292785645,4.109324932098389,0.29967933893203735,-0.29822447896003723,0.015861917287111282,1.1648725271224976
470,55633,55632,-0.022899283096194267,-0.026912948116660118,0.9996337890625,-3.1223411560058594,-18.64443016052246,7.604617595672607,2.3057916164398193,4.109044075012207,0.2998221516609192,-0.12571638822555542,0.02719120681285858,1.2681779861450195
471,55643,55642,-0.00452067656442523,0.07243422418832779,0.9460795521736145,-7.208756446838379,-22.0976505279541,6.600586414337158,2.307004928588867,4.108724594116211,0.3009159564971924,0.03433339670300484,-0.009654058143496513,1.3496888875961304
472,55653,55652,-0.003534103510901332,0.005594745744019747,0.9889475107192993,-11.809832572937012,-23.13821792602539,5.698240756988525,2.3064827919006348,4.108541011810303,0.30123868584632874,0.4404270350933075,-0.12298721820116043,1.4129265546798706
473,55663,55662,0.00989990122616291,-0.01053919643163681,1.0022703409194946,-11.990466117858887,-20.334016799926758,5.164270877838135,2.310561418533325,4.107911109924316,0.30123037099838257,0.42446422576904297,-0.21336811780929565,1.4635194540023804
474,55673,55672,-0.02657405287027359,-0.011654602363705635,0.9847381711006165,-11.298337936401367,-16.907121658325195,4.914752960205078,2.3114330768585205,4.105992794036865,0.3013870120048523,0.6844920516014099,-0.24176441133022308,1.4913853406906128
475,55683,55682,0.016750838607549667,-0.13886050879955292,0.9138680100440979,-12.855052947998047,-18.648466110229492,3.9775092601776123,2.31086802482605,4.106636047363281,0.3007098436355591,0.9539847373962402,-0.49454981088638306,1.529290795326233
476,55693,55692,-0.022317029535770416,-0.00998816080391407,0.9816517233848572,-11.621763229370117,-14.752644538879395,3.678567886352539,2.3139264583587646,4.106852054595947,0.30060648918151855,0.9360684156417847,-0.6015214920043945,1.6263911724090576
477,55703,55702,-0.023537492379546165,-0.0014207501662895083,1.0011374950408936,-8.740021705627441,-11.797954559326172,3.3544883728027344,2.3146345615386963,4.105480194091797,0.30057209730148315,1.0860661268234253,-0.6712604761123657,1.6224374771118164
478,55713,55712,-0.003386229509487748,0.12912814319133759,0.9491708278656006,-7.075239181518555,-9.320480346679688,2.938204526901245,2.3138985633850098,4.104574203491211,0.30033448338508606,1.3476014137268066,-0.6945845484733582,1.65477454662323
479,55723,55722,-0.06705857068300247,0.02523892931640148,1.1161011457443237,-9.680023193359375,-7.8619256019592285,2.1927101612091064,2.3157594203948975,4.104950904846191,0.30025726556777954,1.3635669946670532,-0.8727130889892578,1.682828664779663
480,55733,55732,-0.05518057569861412,-0.010954160243272781,1.0801928043365479,-9.366043090820312,-3.7360212802886963,0.2687646150588989,2.3161091804504395,4.105656623840332,0.30021756887435913,1.454809546470642,-1.0682111978530884,1.7121481895446777
481,55743,55742,-0.08330480009317398,0.12686854600906372,0.982498824596405,-9.165101051330566,1.8553059101104736,-1.5493906736373901,2.3193812370300293,4.103410720825195,0.3000895082950592,1.2217668294906616,-0.9658589363098145,1.7002615928649902
