,timestamp_start,timestamp_end,acc.x,acc.y,acc.z,gyro.x,gyro.y,gyro.z,stateEstimate.x,stateEstimate.y,stateEstimate.z,stabilizer.pitch,stabilizer.roll,stabilizer.yaw
0,43618,43614,0.006312815472483635,0.08771505951881409,1.078278660774231,-7.5868000984191895,-26.164743423461914,2.194293737411499,2.018463611602783,4.109175205230713,0.14488840103149414,1.049103021621704,0.7700560092926025,2.848910331726074
1,43628,43624,0.00998376589268446,-0.02100374735891819,1.0337860584259033,-7.49787712097168,-21.970861434936523,1.9532431364059448,2.017385959625244,4.109015941619873,0.14905454218387604,1.2617989778518677,0.6295100450515747,2.867893695831299
2,43638,43634,0.020100610330700874,0.0067163207568228245,1.0775871276855469,-5.6203765869140625,-19.221752166748047,1.6560924053192139,2.0183894634246826,4.1116862297058105,0.15182378888130188,1.5562173128128052,0.5045391917228699,2.903965711593628
3,43648,43644,0.006707964465022087,-0.027784453704953194,1.0504531860351562,-4.709347724914551,-15.464303970336914,1.1138602495193481,2.017287492752075,4.109535217285156,0.15489189326763153,1.5072729587554932,0.4088361859321594,2.894191265106201
4,43658,43654,0.028139544650912285,-0.002945318818092346,1.068769097328186,-2.669407367706299,-15.440956115722656,0.7267717123031616,2.0162081718444824,4.106825351715088,0.15761800110340118,1.8017433881759644,0.47634002566337585,2.8916823863983154
5,43668,43664,0.045203085988759995,-0.03194514662027359,1.0115615129470825,-0.36927133798599243,-14.465465545654297,0.21393997967243195,2.0135364532470703,4.099279880523682,0.1609737128019333,2.113997459411621,0.48642224073410034,2.903195858001709
6,43678,43674,-0.011895581148564816,0.07159938663244247,0.9802184104919434,-0.7754217982292175,-16.232250213623047,1.1081277132034302,2.013108015060425,4.100358009338379,0.16426971554756165,2.2560324668884277,0.4407199025154114,2.9122769832611084
7,43688,43684,-0.03528858348727226,0.0833762064576149,1.0709631443023682,-1.4857817888259888,-11.622838973999023,-0.02090594545006752,2.0103137493133545,4.096738338470459,0.16716308891773224,2.5094268321990967,0.39973902702331543,2.945711374282837
8,43698,43694,0.025105275213718414,6.126372318249196e-05,0.9264004230499268,-2.5029728412628174,-11.039375305175781,-0.5209034085273743,2.011547327041626,4.097146511077881,0.17029687762260437,2.71821665763855,0.41814398765563965,2.938263177871704
9,43708,43704,0.010268514975905418,0.00029377583996392787,0.9486845135688782,-3.542783498764038,-10.937243461608887,-0.17044265568256378,2.0084269046783447,4.092320442199707,0.17328283190727234,3.0935354232788086,0.34350332617759705,2.980750560760498
10,43718,43714,-0.058927204459905624,0.17270387709140778,0.9609287977218628,-5.434700965881348,-4.189147472381592,-0.5998495221138,2.0070159435272217,4.090893745422363,0.1761091947555542,3.1735897064208984,0.3942808508872986,2.939314126968384
11,43728,43724,-0.055824849754571915,0.2274124026298523,0.9449669122695923,-8.07629680633545,2.818305015563965,0.017634132876992226,2.0074753761291504,4.092449188232422,0.17934490740299225,3.5624890327453613,0.26375749707221985,2.9989569187164307
12,43738,43734,0.011715056374669075,0.00993686355650425,0.9471001029014587,-7.781189918518066,6.458037853240967,0.20365822315216064,2.005089282989502,4.091162204742432,0.1818409264087677,3.579225540161133,-0.08829884976148605,3.138947010040283
13,43748,43744,0.013824581168591976,-0.11531608551740646,1.0201826095581055,-5.839362144470215,10.195040702819824,-0.3225359320640564,2.001405715942383,4.092647552490234,0.1846884936094284,3.504617214202881,-0.18164502084255219,3.1418538093566895
14,43758,43754,-0.03375312313437462,-0.07488028705120087,1.0730125904083252,-2.1447858810424805,15.256293296813965,-1.0351855754852295,2.0017030239105225,4.092153072357178,0.1865500509738922,3.6233651638031006,-0.7348142862319946,3.4177017211914062
15,43768,43764,-0.03110886923968792,-0.03164377436041832,1.0129072666168213,2.1636855602264404,21.523279190063477,-2.105325698852539,1.9974709749221802,4.0951690673828125,0.18831050395965576,3.34063982963562,-0.8004078269004822,3.4288835525512695
16,43778,43774,-0.02780507132411003,0.07189363986253738,0.9653739333152771,8.364959716796875,25.577505111694336,-2.617400884628296,1.9960684776306152,4.097431659698486,0.19152775406837463,3.1317105293273926,-0.42731600999832153,3.2019317150115967
17,43788,43784,0.01786714419722557,-0.006581321824342012,0.9536241888999939,15.75695514678955,24.458681106567383,-1.2785967588424683,1.9956083297729492,4.094332695007324,0.19486160576343536,3.0831496715545654,-0.14403635263442993,3.0465052127838135
18,43798,43794,-0.00280554941855371,-0.019010713323950768,0.9773273468017578,19.53459358215332,22.06551742553711,-0.46545180678367615,1.9932769536972046,4.093780040740967,0.19765399396419525,2.83432674407959,-0.01035422645509243,3.0259408950805664
19,43808,43804,0.038087230175733566,-0.25282013416290283,0.9639084339141846,16.059951782226562,18.6263427734375,0.47564271092414856,2.000385284423828,4.08927059173584,0.20314601063728333,2.7930848598480225,0.21399030089378357,2.997305393218994
20,43818,43814,0.008767015300691128,-0.1977524310350418,0.9729431867599487,9.11194133758545,11.691169738769531,-0.21746790409088135,1.988463044166565,4.087190628051758,0.21363131701946259,1.419837236404419,0.5236201882362366,2.9548280239105225
21,43828,43824,-0.018658634275197983,-0.09074881672859192,0.9565125107765198,-0.14501997828483582,7.335451126098633,-0.689520537853241,1.9956367015838623,4.084555149078369,0.21697454154491425,1.1740717887878418,0.5535503029823303,2.9887568950653076
22,43838,43834,0.04427804797887802,0.019120121374726295,0.9471288323402405,-8.137331008911133,-0.21837300062179565,-0.7038665413856506,1.9957945346832275,4.084846019744873,0.2200000137090683,0.9783890843391418,0.7337075471878052,2.916611909866333
23,43848,43844,-0.018434051424264908,0.06231757998466492,0.9402895569801331,-13.967578887939453,-9.79011344909668,-0.25615182518959045,1.9951961040496826,4.0828938484191895,0.22271034121513367,1.4036222696304321,0.561917781829834,2.9565978050231934
24,43858,43854,-0.036405161023139954,0.04388326779007912,0.9413925409317017,-14.482766151428223,-16.61014175415039,-0.6858967542648315,1.991058588027954,4.0830888748168945,0.2250719964504242,1.4751712083816528,0.33350977301597595,2.9836418628692627
25,43868,43864,-0.02952246181666851,-0.03668178245425224,0.915523111820221,-12.194768905639648,-16.72014808654785,-1.0656449794769287,1.9912104606628418,4.083827972412109,0.22813142836093903,1.6191037893295288,0.04509538784623146,3.023056983947754
26,43878,43874,-0.05273927375674248,-0.07001209259033203,0.9323056936264038,-8.275057792663574,-11.892986297607422,-1.4570449590682983,1.991237998008728,4.083574295043945,0.23109829425811768,3.2990493774414062,0.1007445678114891,2.9993038177490234
27,43888,43884,-0.08497736603021622,-0.04499344900250435,0.9655066132545471,-1.9633080959320068,-3.5309531688690186,-1.2711925506591797,1.9768882989883423,4.077654838562012,0.23042511940002441,4.761744976043701,-1.3149080276489258,3.492603063583374
28,43898,43894,-0.0970422551035881,-0.04761778935790062,0.9563120007514954,2.67232346534729,14.039052963256836,-1.506344199180603,1.9627768993377686,4.088287830352783,0.2251790165901184,4.341101169586182,-1.1376984119415283,3.3989474773406982
29,43908,43904,-0.028507549315690994,-0.07518015056848526,0.9499238133430481,13.140979766845703,40.664710998535156,-1.3101611137390137,1.9615137577056885,4.084380626678467,0.2337597906589508,3.831380844116211,-0.88145512342453,3.2969725131988525
30,43918,43914,0.05428178980946541,-0.0719696506857872,0.9884527325630188,25.177425384521484,66.59613800048828,-0.9058626890182495,1.9574850797653198,4.079587936401367,0.24128589034080505,3.048408031463623,-0.4746004641056061,3.165437698364258
31,43928,43924,0.08484847098588943,-0.10140916705131531,0.9124337434768677,31.426136016845703,84.79407501220703,-1.083195686340332,1.9586740732192993,4.078106880187988,0.24536246061325073,2.356813907623291,-0.23518380522727966,3.151160717010498
32,43938,43934,0.006131825037300587,-0.06547806411981583,0.8880000710487366,31.158550262451172,91.00434875488281,-1.6261138916015625,1.9517611265182495,4.073393821716309,0.24820144474506378,1.0724631547927856,0.21457460522651672,3.1052279472351074
33,43948,43944,-0.02408871240913868,-0.01811806485056877,0.90363609790802,25.83966064453125,82.99613952636719,-2.288053035736084,1.95306396484375,4.0736541748046875,0.2519699037075043,0.3972322642803192,0.5408074259757996,3.0782670974731445
34,43958,43954,0.009202150627970695,0.046203237026929855,0.8829198479652405,17.529935836791992,65.28823852539062,-1.8151884078979492,1.9485749006271362,4.073198318481445,0.25115033984184265,-0.4410349428653717,0.8006587028503418,3.067636013031006
35,43968,43964,-0.006059718318283558,0.03534264117479324,0.9428966045379639,6.237971305847168,37.74833297729492,-1.7654752731323242,1.9473553895950317,4.072571277618408,0.25353559851646423,-1.4767999649047852,1.1764733791351318,3.0265419483184814
36,43978,43974,0.035584621131420135,-0.09614606946706772,0.8325358033180237,-1.6283708810806274,16.00396156311035,-2.2353742122650146,1.9474538564682007,4.073848724365234,0.25552716851234436,-1.8887971639633179,1.2532402276992798,3.017441987991333
37,43988,43984,0.06207719072699547,0.013620642013847828,0.8647003173828125,-10.997800827026367,-13.060057640075684,-1.875176191329956,1.9460965394973755,4.07412052154541,0.2541252672672272,-2.1807146072387695,1.215734839439392,2.996387243270874
38,43998,43994,0.003068523947149515,-0.056920796632766724,0.938016414642334,-14.126436233520508,-27.187585830688477,-1.6530592441558838,1.942926287651062,4.074826717376709,0.255856454372406,-2.039649248123169,1.281070590019226,2.97823429107666
39,44008,44004,-0.049291469156742096,-0.08010517060756683,0.976292610168457,-14.746476173400879,-30.887561798095703,-1.2688418626785278,1.9410526752471924,4.074646949768066,0.2574688792228699,-1.9411622285842896,1.2055754661560059,2.9509456157684326
40,44018,44014,-0.03253414109349251,-0.11466377228498459,0.9751014113426208,-13.123865127563477,-27.92499351501465,0.033011771738529205,1.941525936126709,4.074116230010986,0.2581675946712494,-1.6363964080810547,1.058786153793335,2.9327499866485596
41,44028,44024,-0.014906820841133595,-0.12438644468784332,0.9769083857536316,-10.128358840942383,-16.536848068237305,0.5794898867607117,1.9427924156188965,4.0733137130737305,0.259610652923584,-1.7131361961364746,0.9362991452217102,2.900927782058716
42,44038,44034,-0.018244516104459763,-0.12840908765792847,0.9770276546478271,-6.724959850311279,-3.1328647136688232,0.0829077735543251,1.9424643516540527,4.069558620452881,0.2609471082687378,-1.5407814979553223,0.8336805105209351,2.900484085083008
43,44048,44044,0.0051529924385249615,-0.031140875071287155,0.9252054691314697,-2.8882155418395996,1.4540313482284546,-0.016196245327591896,1.942834496498108,4.069131851196289,0.26238247752189636,-1.6110639572143555,1.1097670793533325,2.9545443058013916
44,44058,44054,-0.08541776239871979,0.03186021372675896,0.945018470287323,-3.9960529804229736,8.85201644897461,-0.7546848058700562,1.9418851137161255,4.066312789916992,0.25833839178085327,-1.7351850271224976,0.9959945678710938,2.9268290996551514
45,44068,44064,-0.1306525319814682,0.10093694925308228,0.9479879140853882,-8.392227172851562,10.439212799072266,-0.8857380151748657,1.942404866218567,4.066969394683838,0.2593981921672821,-1.8336721658706665,0.9502173662185669,2.922006130218506
46,44078,44074,-0.05549699813127518,0.15327435731887817,0.930923581123352,-12.141356468200684,4.174533843994141,-0.20577073097229004,1.94376540184021,4.067627429962158,0.2602347433567047,-2.028884172439575,0.9135598540306091,2.9206173419952393
47,44088,44084,0.04601624980568886,0.016102366149425507,0.9524892568588257,-15.065802574157715,-1.4607332944869995,-0.7428685426712036,1.9427764415740967,4.0640435218811035,0.2588927745819092,-2.032710552215576,0.8105643391609192,2.9279046058654785
48,44098,44094,0.05637839436531067,0.1152656078338623,1.0178732872009277,-16.443485260009766,-13.999619483947754,-1.5004538297653198,1.9424285888671875,4.065047264099121,0.25966814160346985,-1.8902989625930786,0.7127546668052673,2.9467976093292236
49,44108,44104,0.034195613116025925,0.09578418731689453,1.0562732219696045,-15.562074661254883,-21.438413619995117,-1.667810082435608,1.9400235414505005,4.063147068023682,0.26043882966041565,-1.7528607845306396,0.5476582646369934,2.9317474365234375
50,44118,44114,0.01619631052017212,0.07733896374702454,0.9872846603393555,-13.458427429199219,-22.877395629882812,-1.5831401348114014,1.940729022026062,4.063575744628906,0.26113641262054443,-1.6258184909820557,0.29544204473495483,2.877737283706665
51,44128,44124,-0.016092617064714432,0.12584081292152405,0.9704707264900208,-11.815062522888184,-20.570268630981445,-1.730324625968933,1.9387096166610718,4.062714099884033,0.26194342970848083,-1.2991138696670532,0.16693758964538574,2.876556873321533
52,44138,44134,-0.038052912801504135,0.15611550211906433,0.9722898602485657,-9.706892013549805,-15.933207511901855,-1.3654508590698242,1.9395220279693604,4.061173915863037,0.26266708970069885,-1.2411521673202515,0.1454893946647644,2.8794336318969727
53,44148,44144,0.011988470330834389,0.08891794830560684,0.9333316087722778,-8.537352561950684,-11.997809410095215,-1.0855326652526855,1.9387191534042358,4.0593037605285645,0.2634447515010834,-1.1329203844070435,-0.12996292114257812,2.8079774379730225
54,44158,44154,0.01945384033024311,0.06427346169948578,1.0145094394683838,-6.4575114250183105,-10.762582778930664,-0.8043898940086365,1.938582181930542,4.059139728546143,0.2625176012516022,-1.0018771886825562,-0.2090136557817459,2.7987639904022217
55,44168,44164,0.028339233249425888,0.010855577886104584,1.0101165771484375,-4.424780368804932,-9.788263320922852,-0.8945744633674622,1.9382151365280151,4.058242321014404,0.2631397247314453,-0.942421555519104,-0.13148371875286102,2.830090284347534
56,44178,44174,-0.004925395827740431,0.059176720678806305,0.9806541204452515,-4.436768054962158,-7.428559303283691,-0.8667015433311462,1.9398289918899536,4.059281826019287,0.26362091302871704,-1.0291882753372192,-0.14150449633598328,2.8256826400756836
57,44188,44184,0.007131884340196848,-0.011939079500734806,0.9818075299263,-6.578852653503418,-8.358081817626953,-1.4428064823150635,1.940523624420166,4.059490203857422,0.2639164626598358,-0.8331106901168823,-0.2266036868095398,2.810227870941162
58,44198,44194,-0.002566006500273943,-0.035573143512010574,0.9810647964477539,-7.945527076721191,-9.771594047546387,-1.9853357076644897,1.9387938976287842,4.058622360229492,0.26454415917396545,-0.746936023235321,-0.2954880893230438,2.7982165813446045
59,44208,44204,-0.004361914936453104,0.10583863407373428,0.9874837398529053,-7.9926981925964355,-14.033817291259766,-1.590378761291504,1.9380724430084229,4.058547019958496,0.26508602499961853,-0.5830754637718201,-0.49877020716667175,2.7505455017089844
60,44218,44214,-0.004891711752861738,0.07903382927179337,1.0117071866989136,-7.460106372833252,-16.5929012298584,-1.653163194656372,1.9396542310714722,4.055907249450684,0.26555296778678894,-0.5667335391044617,-0.34766846895217896,2.793691635131836
61,44228,44224,0.0020139331463724375,-0.008981221355497837,1.0408762693405151,-7.21688175201416,-17.979591369628906,-2.342999219894409,1.9398243427276611,4.057665824890137,0.2661106586456299,-0.4024820625782013,-0.42100584506988525,2.7781107425689697
62,44238,44234,0.02532513439655304,0.00012955097190570086,1.0071395635604858,-7.072803974151611,-17.20054054260254,-2.561936140060425,1.9396981000900269,4.0568976402282715,0.2666681408882141,-0.12175386399030685,-0.4610713720321655,2.761204719543457
63,44248,44244,0.013881664723157883,-0.012595349922776222,1.014081597328186,-7.636791229248047,-11.269501686096191,-2.1584315299987793,1.941214680671692,4.058614730834961,0.26614150404930115,-0.10312901437282562,-0.6592684984207153,2.7167959213256836
64,44258,44254,0.05249275267124176,-0.0920189693570137,0.9954594373703003,-6.498157978057861,-12.931896209716797,-1.9805268049240112,1.9404417276382446,4.057887554168701,0.2666269838809967,0.019093170762062073,-0.8012358546257019,2.6859419345855713
65,44268,44264,0.060702305287122726,-0.11425871402025223,1.023199439048767,-5.976080417633057,-9.601887702941895,-1.7262951135635376,1.9415408372879028,4.0594000816345215,0.26715216040611267,0.12627334892749786,-0.8019805550575256,2.6770079135894775
66,44278,44274,0.08044897764921188,-0.15372195839881897,1.0078870058059692,-2.5146236419677734,-11.710736274719238,-1.8543075323104858,1.941681981086731,4.057010650634766,0.26764824986457825,0.23469769954681396,-0.855181872844696,2.6608290672302246
67,44288,44284,0.010569986887276173,-0.05545641481876373,1.0032596588134766,-0.2988737225532532,-11.314284324645996,-2.3862202167510986,1.942959189414978,4.0567498207092285,0.27071934938430786,0.27624279260635376,-0.8734049201011658,2.6495814323425293
68,44298,44294,-0.004225662909448147,-0.012332029640674591,1.0281221866607666,2.0158400535583496,-9.880300521850586,-2.550175428390503,1.9432671070098877,4.056941032409668,0.27144724130630493,0.46987244486808777,-0.8555720448493958,2.6239590644836426
69,44308,44304,0.025165870785713196,0.08033216744661331,0.9962422847747803,2.6597230434417725,-8.100775718688965,-2.6141090393066406,1.9444191455841064,4.057218074798584,0.27213621139526367,0.4828510284423828,-0.8776586651802063,2.605588912963867
70,44318,44314,0.03802670165896416,0.11218013614416122,1.0296835899353027,1.6435528993606567,-10.280926704406738,-2.9789109230041504,1.944157361984253,4.056619644165039,0.2741672098636627,0.7813865542411804,-0.9164997339248657,2.5520052909851074
71,44328,44324,0.02296740934252739,-0.0011200662702322006,1.0108762979507446,0.29815587401390076,-10.47677230834961,-3.119647264480591,1.941967248916626,4.056828022003174,0.27495577931404114,0.7820097208023071,-0.8601836562156677,2.5382750034332275
72,44338,44334,-0.008754567243158817,-0.021232845261693,1.022382140159607,0.7963526248931885,-10.215295791625977,-3.434009313583374,1.9425153732299805,4.054831027984619,0.2757745683193207,0.8865694999694824,-0.8563092947006226,2.5101327896118164
73,44348,44344,-0.039088647812604904,0.05620484799146652,0.9910542368888855,-1.2971216440200806,-8.023626327514648,-2.9900319576263428,1.9434784650802612,4.054401397705078,0.27637362480163574,1.0149636268615723,-0.8546360731124878,2.4752871990203857
74,44358,44354,-0.015417239628732204,0.04466446116566658,1.0026342868804932,-0.3265446722507477,-5.268562316894531,-2.9201786518096924,1.9434741735458374,4.0535454750061035,0.27722403407096863,1.1791541576385498,-0.9017440676689148,2.433915376663208
75,44368,44364,-0.017090171575546265,0.0516134575009346,1.0112266540527344,-0.21673032641410828,-3.9329285621643066,-2.846745252609253,1.941953420639038,4.05543851852417,0.2780483365058899,1.228050708770752,-0.9056711792945862,2.4039595127105713
76,44378,44374,0.028048697859048843,-0.009533271193504333,0.9879418611526489,0.7840010523796082,-4.500226974487305,-2.669515371322632,1.9442404508590698,4.054876804351807,0.27893948554992676,1.1251611709594727,-0.9570264220237732,2.3960189819335938
77,44388,44384,0.004308687057346106,-0.03282830864191055,1.0343724489212036,2.9241347312927246,-0.6994187831878662,-3.4240880012512207,1.9437264204025269,4.055886745452881,0.27743110060691833,1.1412580013275146,-0.9442386031150818,2.366400957107544
78,44398,44394,0.028676586225628853,-0.06104600802063942,0.9330701231956482,3.661512851715088,-0.667468249797821,-3.664287805557251,1.9439232349395752,4.054852485656738,0.27811500430107117,1.2128589153289795,-0.9064337015151978,2.32403302192688
79,44408,44404,0.013838112354278564,-0.03802511468529701,0.9461973309516907,5.261659622192383,-1.8453439474105835,-3.146477222442627,1.9436383247375488,4.054654598236084,0.27878108620643616,1.2103197574615479,-0.9215396642684937,2.2983155250549316
80,44418,44414,0.02084595523774624,-0.016042718663811684,1.031238317489624,4.785401344299316,0.10994928330183029,-2.8602099418640137,1.9437572956085205,4.055346488952637,0.27876439690589905,1.1291574239730835,-0.8400273323059082,2.280470609664917
81,44428,44424,0.05327949672937393,-0.06571640074253082,0.9986530542373657,4.2746381759643555,-2.0030369758605957,-2.9057440757751465,1.9455201625823975,4.054775238037109,0.2793940305709839,1.2156673669815063,-0.766243577003479,2.2357676029205322
82,44438,44434,0.052321549504995346,-0.1330549418926239,1.0012242794036865,6.418639659881592,-4.303150653839111,-3.092146158218384,1.9444339275360107,4.053792953491211,0.27942025661468506,1.2423763275146484,-0.7573786377906799,2.210024833679199
83,44448,44444,-0.019850190728902817,0.09251774102449417,0.9773837924003601,4.762065887451172,-3.3746936321258545,-3.310577630996704,1.9448078870773315,4.052910804748535,0.27738890051841736,1.2820947170257568,-0.694932758808136,2.1771082878112793
84,44458,44454,-0.00826149433851242,0.0003562594356480986,1.0042777061462402,3.015627861022949,-1.064979910850525,-2.551697254180908,1.944336175918579,4.052299499511719,0.2778434455394745,1.4099783897399902,-0.6804286241531372,2.135331630706787
85,44468,44464,-0.009075451642274857,0.03800763934850693,1.0512139797210693,2.490574359893799,0.7011697888374329,-2.8026232719421387,1.9436068534851074,4.052115440368652,0.2782798707485199,1.3624486923217773,-0.6352539658546448,2.1130921840667725
86,44478,44474,0.04222825542092323,-0.060634419322013855,0.9369947910308838,3.4681310653686523,5.567418575286865,-2.820256233215332,1.9435153007507324,4.05312442779541,0.27871206402778625,1.4177502393722534,-0.6610684394836426,2.086186170578003
87,44488,44484,0.022547554224729538,0.12197529524564743,0.9982109665870667,3.906649351119995,4.17441987991333,-2.803347587585449,1.9417272806167603,4.053616046905518,0.27840176224708557,1.3744398355484009,-0.6267713308334351,2.0580077171325684
88,44498,44494,0.023884832859039307,0.01624876819550991,0.9848155379295349,4.879972457885742,5.010422706604004,-2.7940902709960938,1.9419728517532349,4.054664611816406,0.2787783443927765,1.3054225444793701,-0.5861850380897522,2.032972812652588
89,44508,44504,0.013162471354007721,-0.025558894500136375,1.010475993156433,5.980113983154297,0.7547026872634888,-2.6133954524993896,1.9419279098510742,4.0542826652526855,0.27913591265678406,1.2632620334625244,-0.484617680311203,1.9944219589233398
90,44518,44514,-0.03597726300358772,-0.054848890751600266,1.0576592683792114,4.947975158691406,4.597845554351807,-2.8693056106567383,1.9408799409866333,4.053528785705566,0.28136011958122253,1.2141014337539673,-0.3847675621509552,1.9604387283325195
91,44528,44524,-0.004624864086508751,-0.046505045145750046,0.9939356446266174,2.945007085800171,4.700344562530518,-1.9871894121170044,1.9410384893417358,4.053432464599609,0.2818635106086731,1.1430176496505737,-0.4693011939525604,1.9587438106536865
92,44538,44534,0.03532714024186134,-0.04741673916578293,0.99867182970047,1.8193795680999756,5.411924839019775,-2.0258562564849854,1.9412951469421387,4.054676532745361,0.28239718079566956,1.0699701309204102,-0.4099225699901581,1.9293655157089233
93,44548,44544,0.08469615131616592,-0.10710036754608154,0.9969177842140198,2.3116960525512695,4.613931655883789,-2.6896073818206787,1.9416204690933228,4.053589820861816,0.28260719776153564,1.1531035900115967,-0.2850407063961029,1.8741527795791626
94,44558,44554,0.038466744124889374,-0.07600237429141998,1.0387173891067505,4.814295768737793,3.669912576675415,-2.7204480171203613,1.9405125379562378,4.052677154541016,0.28313708305358887,1.2425336837768555,-0.2156831920146942,1.831352710723877
95,44568,44564,0.050345297902822495,-0.014631391502916813,0.9691495895385742,5.062438011169434,4.513363361358643,-2.5957953929901123,1.9382972717285156,4.051632881164551,0.28362947702407837,1.216713309288025,-0.17307715117931366,1.8086732625961304
96,44578,44574,-0.0016090095741674304,0.123267263174057,0.939166247844696,2.498589515686035,4.467491626739502,-2.0572681427001953,1.9382230043411255,4.049759864807129,0.2841767370700836,1.0842102766036987,-0.15813036262989044,1.7934035062789917
97,44588,44584,0.03953965753316879,0.0072503420524299145,0.9350480437278748,0.7912290692329407,6.905719757080078,-1.6351417303085327,1.9381755590438843,4.05025053024292,0.2853160798549652,0.976668119430542,-0.1278965324163437,1.7773627042770386
98,44598,44594,-0.01553570106625557,0.06334880739450455,1.0480762720108032,-1.1231614351272583,6.958001136779785,-1.5308812856674194,1.937869906425476,4.05158805847168,0.28581100702285767,1.0066726207733154,-0.13389313220977783,1.758183240890503
99,44608,44604,0.0006632523727603257,-0.042868707329034805,1.0723048448562622,-1.6422903537750244,4.948758125305176,-1.3026683330535889,1.9361544847488403,4.050624370574951,0.2862664759159088,0.8680359721183777,-0.2979680001735687,1.7662427425384521
100,44618,44614,-0.026006601750850677,-0.05991494283080101,1.0968976020812988,1.2207838296890259,5.821339130401611,-1.3554881811141968,1.9357550144195557,4.050454139709473,0.2872242033481598,0.9544460773468018,-0.2741706073284149,1.7396835088729858
101,44628,44624,-0.011237979866564274,-0.09829326719045639,1.0226198434829712,2.8960156440734863,10.16583251953125,-2.06015682220459,1.9341264963150024,4.050462245941162,0.28784745931625366,0.7629227638244629,-0.2917117178440094,1.7308096885681152
102,44638,44634,-0.0002497013483662158,0.030142132192850113,1.0419310331344604,4.9541215896606445,12.721184730529785,-1.7998466491699219,1.935030460357666,4.051666736602783,0.2886057496070862,0.6245829463005066,-0.42058613896369934,1.7351056337356567
103,44648,44644,0.08933746069669724,-0.01591808721423149,0.9161146879196167,6.567910671234131,12.264251708984375,-1.9062238931655884,1.9345256090164185,4.0529913902282715,0.29221034049987793,0.4164257347583771,-0.42322131991386414,1.7276005744934082
104,44658,44654,0.08297894895076752,-0.034160349518060684,0.9575449824333191,9.939764022827148,4.139773845672607,-2.1827545166015625,1.9352567195892334,4.054016590118408,0.29307371377944946,0.2926391661167145,-0.2306969314813614,1.6959704160690308
105,44668,44664,0.10089581459760666,-0.029155932366847992,0.9717651009559631,11.21528434753418,4.9732794761657715,-2.381274461746216,1.934367299079895,4.050797462463379,0.29396748542785645,0.27922776341438293,-0.16790474951267242,1.6780534982681274
106,44678,44674,0.09781315922737122,-0.044576484709978104,0.9800092577934265,12.257596969604492,-2.1708500385284424,-1.7045468091964722,1.9337446689605713,4.049192428588867,0.2961513102054596,0.3368717133998871,-0.0024079051800072193,1.6523098945617676
107,44688,44684,-0.007972694002091885,-0.015181349590420723,0.995579183101654,11.133257865905762,-3.9701273441314697,-1.2027329206466675,1.9328985214233398,4.04911470413208,0.2970341444015503,0.36931276321411133,0.15264594554901123,1.6333950757980347
108,44698,44694,0.016946561634540558,-0.06356456875801086,0.9409825205802917,9.05496597290039,-3.4835102558135986,-1.0027624368667603,1.9322229623794556,4.04875373840332,0.29788291454315186,0.4103468656539917,0.20438240468502045,1.6256458759307861
109,44708,44704,0.015221633948385715,-0.021788377314805984,0.9871923923492432,5.767368316650391,-2.238213062286377,-1.2540841102600098,1.931967854499817,4.049598217010498,0.29870176315307617,0.4331754148006439,0.3681243658065796,1.6107012033462524
110,44718,44714,-0.045380089432001114,0.06168929487466812,1.0274628400802612,2.9331398010253906,0.6495593786239624,-1.1454435586929321,1.9307717084884644,4.048638343811035,0.3000825345516205,0.5540142059326172,0.3132995069026947,1.603075623512268
111,44728,44724,-0.04431425780057907,0.014355910010635853,1.014112949371338,0.6384298801422119,3.267209768295288,-1.1001182794570923,1.9291385412216187,4.049313068389893,0.30090975761413574,0.45997169613838196,0.37288975715637207,1.5869102478027344
112,44738,44734,-0.04951273277401924,-0.017079468816518784,1.0264278650283813,0.2658795714378357,7.084975242614746,-1.2437196969985962,1.928261399269104,4.049492359161377,0.3018149733543396,0.3874807357788086,0.3336189091205597,1.575454592704773
113,44748,44744,-0.06759911775588989,-0.0027172837872058153,1.0322730541229248,-0.443199098110199,20.078773498535156,-1.49827241897583,1.927988052368164,4.0500993728637695,0.3014552593231201,0.161146342754364,0.3676290810108185,1.5589420795440674
114,44758,44754,0.018909817561507225,-0.012673327699303627,0.9199128746986389,2.123826026916504,23.597694396972656,-1.7491610050201416,1.9273288249969482,4.049686908721924,0.3023899793624878,-0.019115353003144264,0.4165644943714142,1.5442614555358887
115,44768,44764,-0.004014878533780575,0.05854671075940132,0.9246325492858887,2.266216516494751,28.852611541748047,-1.6529721021652222,1.9266732931137085,4.048608303070068,0.303245484828949,-0.3211274743080139,0.4343563914299011,1.5319281816482544
116,44778,44774,-0.009279612451791763,0.08338227868080139,0.9586367011070251,3.142533302307129,29.474611282348633,-1.7933553457260132,1.9261951446533203,4.048192501068115,0.3047167956829071,-0.4664819836616516,0.4739493727684021,1.5245977640151978
117,44788,44784,0.008292625658214092,0.03546546772122383,0.9462740421295166,3.596208095550537,25.163488388061523,-1.3482929468154907,1.9249203205108643,4.048120975494385,0.30551081895828247,-0.8280405402183533,0.4872822165489197,1.5084151029586792
118,44798,44794,0.047426529228687286,0.058598946779966354,0.9597110748291016,2.241166591644287,19.311979293823242,-1.7543654441833496,1.9250458478927612,4.0476603507995605,0.3062538206577301,-1.0589436292648315,0.557754635810852,1.4956611394882202
119,44808,44804,0.016766555607318878,0.03353845328092575,0.9834198355674744,2.006342649459839,15.437747955322266,-1.1280771493911743,1.9250633716583252,4.0479888916015625,0.3068678379058838,-0.8453467488288879,0.5890485644340515,1.5103611946105957
120,44818,44814,0.05504785105586052,0.018692852929234505,0.9586768746376038,1.3940783739089966,10.321463584899902,-1.3180499076843262,1.9219176769256592,4.048152446746826,0.30865907669067383,-1.1489160060882568,0.6344203948974609,1.4875125885009766
121,44828,44824,0.04090600460767746,-0.05744120478630066,0.9763548970222473,1.0403015613555908,8.325008392333984,-1.4387685060501099,1.9222466945648193,4.047872066497803,0.30928847193717957,-1.359757661819458,0.6010515689849854,1.4653887748718262
122,44838,44834,0.03461967781186104,0.07799755036830902,1.0068635940551758,-0.33600541949272156,5.992212295532227,-1.5325076580047607,1.9227123260498047,4.049591064453125,0.3099038004875183,-1.3718523979187012,0.6269105672836304,1.4596306085586548
123,44848,44844,-0.004043017514050007,0.022427402436733246,0.9717515110969543,-1.5290634632110596,5.900673866271973,-1.693743109703064,1.921470284461975,4.049488067626953,0.31014037132263184,-1.4420807361602783,0.6264156699180603,1.4460878372192383
124,44858,44854,-0.025633184239268303,-0.01928839273750782,0.9353423714637756,-1.8511786460876465,8.38422679901123,-1.7319287061691284,1.9213066101074219,4.0497612953186035,0.31065940856933594,-1.513932704925537,0.6183637380599976,1.42976713180542
125,44868,44864,0.00926150567829609,-0.037932269275188446,0.8985890746116638,-2.6195483207702637,9.811469078063965,-1.9357162714004517,1.9214491844177246,4.050565242767334,0.31113874912261963,-1.5897670984268188,0.6000667214393616,1.414750337600708
126,44878,44874,0.008299878798425198,0.027556372806429863,0.904381275177002,-2.347735643386841,11.074341773986816,-1.2718619108200073,1.9201290607452393,4.049450874328613,0.3095383942127228,-1.590046763420105,0.5645740628242493,1.4037561416625977
127,44888,44884,0.011633099988102913,-0.06742706894874573,0.9108834266662598,-2.32913875579834,10.573535919189453,-1.4207357168197632,1.9187350273132324,4.049438953399658,0.309822678565979,-1.8027434349060059,0.611056387424469,1.3946610689163208
128,44898,44894,0.011062109842896461,-0.15270835161209106,0.9350200295448303,-2.057486057281494,10.667009353637695,-1.907130479812622,1.9195817708969116,4.047648906707764,0.3099197745323181,-1.9278899431228638,0.5029937028884888,1.3578721284866333
129,44908,44904,0.023906145244836807,-0.0610467866063118,0.9512193202972412,-1.3329048156738281,7.644070148468018,-1.0029526948928833,1.9195466041564941,4.0485758781433105,0.3099675476551056,-1.9517993927001953,0.4842984974384308,1.3473615646362305
130,44918,44914,0.012572430074214935,-0.14471435546875,1.0297166109085083,-1.33122718334198,5.220508575439453,-1.3004614114761353,1.9178580045700073,4.048234939575195,0.30922266840934753,-2.1011667251586914,0.47206684947013855,1.3275460004806519
131,44928,44924,-0.011937431059777737,-0.1564057469367981,1.0689163208007812,-1.0775737762451172,4.073615550994873,-1.2441209554672241,1.9168683290481567,4.04737663269043,0.3091898560523987,-2.1391072273254395,0.4604344069957733,1.3163779973983765
132,44938,44934,0.00738326832652092,-0.18579013645648956,1.0020697116851807,0.05533915385603905,3.5828824043273926,-1.4309183359146118,1.916372537612915,4.04631233215332,0.3092120587825775,-2.2389309406280518,0.45844489336013794,1.2992773056030273
133,44948,44944,0.007551952730864286,-0.1222943589091301,0.9792442917823792,0.8548868298530579,4.610731601715088,-1.1904933452606201,1.916919469833374,4.045482158660889,0.31014779210090637,-2.3217246532440186,0.47068437933921814,1.2862560749053955
134,44958,44954,0.030228206887841225,-0.021536950021982193,0.9442549347877502,0.12642593681812286,4.675055503845215,-1.3817877769470215,1.917279839515686,4.045420169830322,0.310197114944458,-2.3197431564331055,0.48104119300842285,1.2796046733856201
135,44968,44964,0.06339588761329651,0.01305101066827774,0.9431179761886597,-1.7717461585998535,2.2294487953186035,-1.7504172325134277,1.9163166284561157,4.045421123504639,0.3102642893791199,-2.3701345920562744,0.4715155065059662,1.2611457109451294
136,44978,44974,0.06617863476276398,0.024059701710939407,1.0220259428024292,-2.3315887451171875,-1.1723660230636597,-1.6028722524642944,1.9157845973968506,4.044759750366211,0.31075769662857056,-2.3837778568267822,0.45560508966445923,1.2439334392547607
137,44988,44984,0.04291437566280365,0.028012117370963097,1.0415222644805908,-2.5464870929718018,-3.376649856567383,-2.0197558403015137,1.9153565168380737,4.045590400695801,0.31076931953430176,-2.317324638366699,0.48061251640319824,1.2489335536956787
138,44998,44994,0.00738100428134203,0.03460830822587013,0.9832908511161804,-3.427387237548828,-4.844261646270752,-1.2412474155426025,1.9140762090682983,4.0435051918029785,0.3108798861503601,-2.238556146621704,0.4246407747268677,1.2257273197174072
139,45008,45004,-0.025197194889187813,0.023974765092134476,1.0446254014968872,-3.323556661605835,-2.10801362991333,-1.2968199253082275,1.9128763675689697,4.044857978820801,0.31164273619651794,-2.245516538619995,0.36569997668266296,1.199154257774353
140,45018,45014,-0.005132029298692942,0.09375441819429398,0.9772704243659973,-3.1695878505706787,-1.9447145462036133,-0.6319268941879272,1.9130921363830566,4.045053482055664,0.31172648072242737,-2.214512586593628,0.3303271532058716,1.188096284866333
141,45028,45024,-0.0007186796283349395,0.003093443578109145,0.9995448589324951,-3.000303030014038,-0.7711593508720398,-0.9031432271003723,1.9145997762680054,4.044507026672363,0.3117644190788269,-2.2737724781036377,0.3249351680278778,1.1854501962661743
142,45038,45034,0.0020205394830554724,-0.03388557210564613,0.9916229844093323,-2.8944754600524902,-3.130519151687622,-0.36517345905303955,1.9151723384857178,4.044046401977539,0.3119331896305084,-2.2630069255828857,0.2930806279182434,1.1774969100952148
143,45048,45044,0.011225024238228798,-0.09634632617235184,1.0666559934616089,-1.393848180770874,-4.804553031921387,-0.04625994712114334,1.9153584241867065,4.043694496154785,0.3116777837276459,-2.175093650817871,0.24268080294132233,1.1674013137817383
144,45058,45054,-0.00991298258304596,-0.12566141784191132,1.068718671798706,-0.3857964277267456,-4.9553093910217285,-0.37408557534217834,1.9167536497116089,4.043910503387451,0.3117641806602478,-2.2243564128875732,0.219082310795784,1.1537309885025024
145,45068,45064,0.01119188591837883,-0.15078426897525787,0.9972742795944214,0.44712868332862854,-3.8964688777923584,-0.7517516613006592,1.9160003662109375,4.044633865356445,0.3120271563529968,-2.106527328491211,0.2921287715435028,1.1816189289093018
146,45078,45074,-0.005248830653727055,-0.005673754960298538,1.0092074871063232,0.38672301173210144,-1.442983865737915,-1.0360597372055054,1.9166908264160156,4.044768810272217,0.31108659505844116,-2.1812169551849365,0.21556837856769562,1.138554573059082
147,45088,45084,0.060454387217760086,0.01864510402083397,0.8997939229011536,-0.23178553581237793,-2.0141963958740234,-0.6770706176757812,1.9168586730957031,4.0441436767578125,0.3111895024776459,-2.1549062728881836,0.22070181369781494,1.1297231912612915
148,45098,45094,0.08305090665817261,0.05242527648806572,0.9324320554733276,-1.667656421661377,-4.157093524932861,-0.7801644802093506,1.9160733222961426,4.043083667755127,0.31135475635528564,-2.0575389862060547,0.2137966901063919,1.1257877349853516
149,45108,45104,0.07716947793960571,0.053121522068977356,1.0020692348480225,-2.1679670810699463,-10.537764549255371,-0.429795503616333,1.9180787801742554,4.042466640472412,0.30930739641189575,-2.1542046070098877,0.2640170156955719,1.134107232093811
150,45118,45114,0.06381601840257645,-0.04339224100112915,0.9818881154060364,-2.3684184551239014,-11.216588973999023,-1.049493432044983,1.9169992208480835,4.040505886077881,0.3093127906322479,-1.9138261079788208,0.26294323801994324,1.1456048488616943
151,45128,45124,-0.01958012953400612,0.0158012006431818,1.0148812532424927,-3.2622148990631104,-12.135011672973633,-1.0562052726745605,1.9176256656646729,4.040687561035156,0.30916208028793335,-1.7987767457962036,0.23757678270339966,1.1389178037643433
152,45138,45134,-0.03549308702349663,0.08103972673416138,0.9823043942451477,-4.766813278198242,-10.300436019897461,-0.4338255524635315,1.9192912578582764,4.040482044219971,0.3089594542980194,-1.6799134016036987,0.12392039597034454,1.1032618284225464
153,45148,45144,-0.002943614264950156,-0.02032620646059513,1.0045677423477173,-4.784222602844238,-8.610987663269043,0.1608031839132309,1.9180790185928345,4.039418697357178,0.30886149406433105,-1.5720075368881226,0.07680978626012802,1.0992932319641113
154,45158,45154,0.008110003545880318,0.045935556292533875,0.9881842732429504,-4.502560138702393,-6.423152446746826,-0.04076031967997551,1.9196712970733643,4.040337085723877,0.3086475133895874,-1.6099926233291626,0.06919514387845993,1.1064895391464233
155,45168,45164,0.056888680905103683,-0.09888945519924164,0.9304652810096741,-3.6023833751678467,-5.597451686859131,-0.5598855018615723,1.9226455688476562,4.039861679077148,0.3082130253314972,-1.6524312496185303,0.027003543451428413,1.101001262664795
156,45178,45174,-0.016589606180787086,0.05655455216765404,1.0345749855041504,-1.2055283784866333,-8.24622631072998,-0.8623670339584351,1.9216288328170776,4.039740085601807,0.3080873489379883,-1.597495198249817,-0.007428644225001335,1.0960575342178345
157,45188,45184,0.026430020108819008,0.03674528747797012,0.9932411313056946,0.5866000056266785,-11.511207580566406,-0.38016000390052795,1.9240834712982178,4.039641857147217,0.3077368438243866,-1.6723413467407227,0.04135724529623985,1.1016302108764648
158,45198,45194,-0.013501917943358421,0.00952695868909359,1.091431975364685,0.5050573945045471,-15.503691673278809,-0.39417457580566406,1.9243327379226685,4.0389251708984375,0.3076927065849304,-1.3704735040664673,0.09531860053539276,1.115983009338379
159,45208,45204,0.0022623788099735975,-0.03135562688112259,0.985748827457428,-1.2052922248840332,-15.10767936706543,-1.0281438827514648,1.9234168529510498,4.037888526916504,0.3098309338092804,-1.2240045070648193,0.10303036868572235,1.1113061904907227
160,45218,45214,0.015112749300897121,0.006742417812347412,1.0029323101043701,-1.994046688079834,-14.914791107177734,-0.24965506792068481,1.923095464706421,4.037416934967041,0.30987730622291565,-1.0506258010864258,0.027392754331231117,1.0846939086914062
161,45228,45224,0.05477701872587204,-0.03069472685456276,1.0328810214996338,-4.2324347496032715,-13.2550687789917,-0.25437676906585693,1.924109935760498,4.0377702713012695,0.30989155173301697,-0.9073094725608826,0.004901757463812828,1.0809518098831177
162,45238,45234,-0.04268770292401314,0.01531933806836605,1.031545877456665,-4.830507755279541,-11.145216941833496,0.14805559813976288,1.925794243812561,4.037135124206543,0.3098372519016266,-0.8235511183738708,0.028858907520771027,1.0900554656982422
163,45248,45244,0.007315754424780607,0.03233487904071808,1.030285120010376,-4.307741641998291,-8.458134651184082,0.06182364746928215,1.9265602827072144,4.036713123321533,0.3099762201309204,-0.7528363466262817,-0.06651730090379715,1.080230474472046
164,45258,45254,0.01138240471482277,-0.017702465876936913,1.0175293684005737,-3.660186529159546,-6.461450099945068,0.03308555856347084,1.9282574653625488,4.03769588470459,0.3100503087043762,-0.6684854030609131,-0.11303375661373138,1.0811494588851929
165,45268,45264,-0.0014578721020370722,-0.030338900163769722,1.0200903415679932,-2.7901909351348877,-5.560920238494873,0.009297067299485207,1.9284559488296509,4.0365142822265625,0.31036117672920227,-0.43664541840553284,-0.1189454197883606,1.0890358686447144
166,45278,45274,0.019575035199522972,0.005256504286080599,1.0068937540054321,-2.850177526473999,-3.9508516788482666,0.5000066757202148,1.9299875497817993,4.036283016204834,0.3103443682193756,-0.47201061248779297,-0.19064916670322418,1.083875060081482
167,45288,45284,0.03867821395397186,-0.14320701360702515,1.0136395692825317,-0.1080266460776329,-5.895727157592773,0.5845067501068115,1.9296996593475342,4.035345554351807,0.3106028735637665,-0.20920714735984802,-0.2626355290412903,1.0736141204833984
168,45298,45294,0.0019115934846922755,-0.00536187831312418,1.0303075313568115,0.6098974943161011,-7.379340648651123,0.111078180372715,1.9302055835723877,4.035430908203125,0.3107947111129761,-0.15094918012619019,-0.2663188576698303,1.077747106552124
169,45308,45304,0.01855097897350788,-0.12493493407964706,0.9827945232391357,1.806122899055481,-5.154574871063232,0.22663514316082,1.9338206052780151,4.033182144165039,0.310954749584198,-0.39780372381210327,-0.18438495695590973,1.0901825428009033
170,45318,45314,-0.008658377453684807,0.1252240389585495,1.034516453742981,2.1506922245025635,-4.408880710601807,0.041678287088871,1.9339290857315063,4.031088352203369,0.3112175762653351,-0.2613164186477661,-0.09089670330286026,1.0905048847198486
171,45328,45324,0.04243592172861099,0.1351933479309082,0.9625908136367798,1.3399889469146729,-6.8149919509887695,0.2615291178226471,1.935476541519165,4.0314154624938965,0.3113747537136078,-0.19637979567050934,-0.0942661240696907,1.090075969696045
172,45338,45334,0.007565735373646021,0.000618436373770237,0.9996359944343567,-0.24104814231395721,-6.762702465057373,0.18834735453128815,1.9357136487960815,4.0318403244018555,0.30837103724479675,-0.13179633021354675,-0.08122093230485916,1.0925766229629517
173,45348,45344,0.031583912670612335,0.042032308876514435,1.0325969457626343,-3.1674885749816895,-8.439323425292969,-0.26947247982025146,1.9374592304229736,4.031700134277344,0.30830636620521545,-0.11965341120958328,-0.11231113970279694,1.0952856540679932
174,45358,45354,-0.01250333059579134,0.02582324482500553,1.0223948955535889,-4.474005222320557,-9.281469345092773,-0.8464699387550354,1.9370700120925903,4.032539367675781,0.3084218204021454,-0.046162597835063934,-0.23386934399604797,1.0933990478515625
175,45368,45364,-0.07782541960477829,0.06485481560230255,1.027374029159546,-5.55173397064209,-7.625427722930908,-0.24070706963539124,1.9398775100708008,4.03285026550293,0.3084009289741516,0.07711732387542725,-0.32809263467788696,1.0882729291915894
176,45378,45374,0.023971635848283768,-0.014707024209201336,0.9789676666259766,-3.6519274711608887,-5.34694242477417,-0.3827359080314636,1.9401612281799316,4.032900810241699,0.30833786725997925,0.0907009094953537,-0.2566305100917816,1.0858207941055298
177,45388,45384,-0.00044475719914771616,0.0005459414678625762,1.0347822904586792,-1.0555408000946045,-4.0735297203063965,-0.06125475838780403,1.9418621063232422,4.032192230224609,0.3083600699901581,0.24055348336696625,-0.32272931933403015,1.0822755098342896
178,45398,45394,-0.010861236602067947,0.02809765934944153,1.0250660181045532,1.2879085540771484,-5.6232523918151855,0.8295191526412964,1.9418222904205322,4.031784534454346,0.3085233271121979,0.3758750259876251,-0.33910301327705383,1.0802419185638428
179,45408,45404,0.037827469408512115,-0.0609603226184845,1.030639886856079,2.571606397628784,-3.7586371898651123,0.20386077463626862,1.941978931427002,4.032985210418701,0.30849379301071167,0.4847010374069214,-0.3952910900115967,1.0956363677978516
180,45418,45414,0.011293519288301468,-0.06163809448480606,1.0607718229293823,3.045538902282715,-0.8694571256637573,-0.44200068712234497,1.9418790340423584,4.032720565795898,0.30870237946510315,0.3922199606895447,-0.3514733612537384,1.1002599000930786
181,45428,45424,0.02706044539809227,-0.12238923460245132,0.9667305946350098,3.3412561416625977,1.4145848751068115,-0.6299823522567749,1.9437565803527832,4.034340858459473,0.3088162839412689,0.39344751834869385,-0.3205154538154602,1.095617651939392
182,45438,45434,0.016345804557204247,-0.05501061677932739,0.9850466251373291,1.775236964225769,3.6936466693878174,-0.6375628113746643,1.9441591501235962,4.03300666809082,0.3073497712612152,0.3376162350177765,-0.2671763002872467,1.0810179710388184
183,45448,45444,0.036375317722558975,-0.08705368638038635,0.9029960632324219,0.7303209900856018,3.71551775932312,-0.5501636266708374,1.9450640678405762,4.032960414886475,0.3073746860027313,0.402446448802948,-0.24887733161449432,1.0618669986724854
184,45458,45454,0.04154043644666672,-0.10642997920513153,0.9087321162223816,0.19965271651744843,-0.9557965397834778,0.013571442104876041,1.9453328847885132,4.032296657562256,0.30741235613822937,0.4183017313480377,-0.2458491027355194,1.055799126625061
185,45468,45464,0.014582764357328415,-0.019934792071580887,1.0061649084091187,-0.4701753556728363,-1.5634779930114746,0.08981207013130188,1.946540117263794,4.0317463874816895,0.3073676824569702,0.24042187631130219,-0.25374335050582886,1.059722661972046
186,45478,45474,0.012681277468800545,0.01995288021862507,1.037145733833313,-0.3121861517429352,-2.458681344985962,-0.49881547689437866,1.949553370475769,4.031919479370117,0.3102801740169525,0.3961775302886963,-0.264059841632843,1.0535873174667358
187,45488,45484,-0.0010569957084953785,0.04962778836488724,1.032495379447937,-0.41893258690834045,-1.6521387100219727,-0.47464239597320557,1.949946641921997,4.031915664672852,0.31053993105888367,0.4598196744918823,-0.2733970284461975,1.046641230583191
188,45498,45494,-0.018946660682559013,-0.009326016530394554,1.0199795961380005,-0.18588043749332428,-1.1493537425994873,-0.4805753827095032,1.9495447874069214,4.03185510635376,0.3107702136039734,0.43494728207588196,-0.2050032615661621,1.022862434387207
189,45508,45504,0.03762979432940483,-0.1407546103000641,1.0120766162872314,1.8044229745864868,0.6534821391105652,-0.9584437608718872,1.9505703449249268,4.031582355499268,0.3102754056453705,0.47254425287246704,-0.2775121033191681,1.0425704717636108
190,45518,45514,0.008520212955772877,0.06065156310796738,1.0296849012374878,1.8804326057434082,1.3075768947601318,-0.9678241014480591,1.9503288269042969,4.031545162200928,0.310502290725708,0.48687222599983215,-0.24803608655929565,1.0389719009399414
191,45528,45524,0.02566199004650116,-0.04442902281880379,0.9508377909660339,2.185713291168213,0.1151699349284172,-0.6628785133361816,1.949832558631897,4.032345771789551,0.310712069272995,0.42384451627731323,-0.21459737420082092,1.031016230583191
192,45538,45534,-0.02499234862625599,-0.12397342175245285,1.1066348552703857,2.0330970287323,-2.130436897277832,-0.19427473843097687,1.9505603313446045,4.031659126281738,0.31127697229385376,0.5325149893760681,-0.25511690974235535,1.0260173082351685
193,45548,45544,-0.03692949190735817,-0.27350401878356934,1.1109498739242554,2.6146843433380127,5.262403964996338,-1.8037846088409424,1.9495038986206055,4.032057285308838,0.3116699457168579,0.5300648808479309,-0.2313643991947174,1.0075297355651855
194,45558,45554,0.01550601702183485,-0.08074447512626648,1.0054248571395874,2.3623507022857666,3.6774401664733887,-1.3262890577316284,1.9509766101837158,4.031304359436035,0.3119506537914276,0.4627823829650879,-0.23389209806919098,0.9981929063796997
195,45568,45564,0.025656431913375854,0.010352857410907745,0.9778609275817871,2.623081922531128,6.525386810302734,-1.3793772459030151,1.9512748718261719,4.03111457824707,0.31126102805137634,0.3864336311817169,-0.18182215094566345,0.9742655158042908
196,45578,45574,0.08755601942539215,-0.013319050893187523,0.9129456281661987,2.756194591522217,2.74151873588562,-1.2955366373062134,1.952876329421997,4.030550956726074,0.31152307987213135,0.3989766836166382,-0.20590437948703766,0.9576446413993835
197,45588,45584,0.014788384549319744,-0.009196054190397263,0.9907553195953369,1.4553905725479126,4.801351547241211,-1.8023443222045898,1.9534687995910645,4.0299153327941895,0.31182733178138733,0.3445950746536255,-0.23262499272823334,0.9433417320251465
198,45598,45594,0.05963095650076866,-0.011742961592972279,1.0052376985549927,2.437995195388794,3.5615298748016357,-2.056790590286255,1.9544472694396973,4.0307440757751465,0.3120134770870209,0.2972410023212433,-0.18144911527633667,0.9395553469657898
199,45608,45604,0.03685421869158745,-0.020748965442180634,0.987517237663269,4.187840461730957,2.9071755409240723,-2.463914632797241,1.954821228981018,4.032749176025391,0.31362593173980713,0.19127768278121948,-0.11220666021108627,0.9494032859802246
200,45618,45614,-0.019138295203447342,0.05242769792675972,1.010068655014038,4.5433478355407715,2.9159042835235596,-2.5440118312835693,1.9554569721221924,4.033548355102539,0.3139370083808899,0.2453296035528183,-0.10507778823375702,0.9268966317176819
201,45628,45624,-0.03356298804283142,0.1089058369398117,0.9856054186820984,4.290349960327148,2.3439218997955322,-1.860915184020996,1.9542417526245117,4.033477783203125,0.3143438398838043,0.14434212446212769,-0.09304030239582062,0.9129894971847534
202,45638,45634,-0.02081400714814663,0.07777661830186844,0.9466326236724854,3.5252492427825928,1.4045217037200928,-1.4131625890731812,1.9555997848510742,4.033257007598877,0.3158372938632965,0.2102314680814743,-0.00976752769201994,0.8739163875579834
203,45648,45644,-0.05252920836210251,0.07213480770587921,1.0258997678756714,2.3536903858184814,2.0988104343414307,-2.07403564453125,1.9549429416656494,4.032288551330566,0.31626632809638977,0.26937201619148254,0.05326874181628227,0.8305636644363403
204,45658,45654,0.003095469670370221,-0.002107315929606557,0.9901670217514038,2.8058364391326904,-1.5532289743423462,-1.12676203250885,1.9550501108169556,4.031155586242676,0.3166438937187195,0.19184252619743347,0.10692068934440613,0.8091151714324951
205,45668,45664,-0.005867223720997572,-0.046241551637649536,1.0433040857315063,3.1053524017333984,2.9669339656829834,-1.6547883749008179,1.956549048423767,4.031140327453613,0.3176611661911011,0.25656744837760925,0.16300132870674133,0.7809462547302246
206,45678,45674,0.0027406327426433563,-0.0036776289343833923,1.0083023309707642,2.434063196182251,-0.19409245252609253,-1.4167544841766357,1.9559171199798584,4.030092716217041,0.31815776228904724,0.30526334047317505,0.13842147588729858,0.771568238735199
207,45688,45684,-0.0056351530365645885,-0.0761156678199768,0.9849881529808044,0.7970773577690125,5.428680896759033,-1.822319507598877,1.9562054872512817,4.03070068359375,0.31866222620010376,0.16609671711921692,0.1755545735359192,0.7553494572639465
208,45698,45694,0.0023464395198971033,-0.04103134945034981,0.9784297943115234,0.41749149560928345,5.827831268310547,-1.5880682468414307,1.957395076751709,4.030457019805908,0.319092720746994,0.22488506138324738,0.19577722251415253,0.735739529132843
209,45708,45704,-0.012797772884368896,0.009953530505299568,1.007749319076538,0.290729284286499,8.237981796264648,-1.5717761516571045,1.9571044445037842,4.030350208282471,0.3210161030292511,0.09992633014917374,0.13461022078990936,0.7294105887413025
210,45718,45714,0.046272099018096924,-0.017254777252674103,0.9695664644241333,0.4361688792705536,5.601834774017334,-1.5430341958999634,1.9583208560943604,4.030785083770752,0.3214651346206665,0.020816633477807045,0.13932034373283386,0.7138513922691345
211,45728,45724,0.07579313218593597,0.004042809829115868,0.937372624874115,-0.18383130431175232,5.185904502868652,-0.8175618648529053,1.958113431930542,4.030623435974121,0.3219534456729889,-0.02727571688592434,0.1689361035823822,0.6974020004272461
212,45738,45734,0.14752981066703796,-0.019924839958548546,0.9134953618049622,0.4655196964740753,3.0123894214630127,-1.8043218851089478,1.9591355323791504,4.030815601348877,0.3202725946903229,-0.09953348338603973,0.1809021681547165,0.6948615908622742
213,45748,45744,0.02076135016977787,-0.02888491004705429,0.9675621390342712,2.400089979171753,0.922214925289154,-1.4620269536972046,1.9595638513565063,4.0313897132873535,0.32052910327911377,-0.13343848288059235,0.21218347549438477,0.6755738854408264
214,45758,45754,-0.011620662175118923,-0.015480507165193558,0.9785478711128235,3.180096387863159,0.37808626890182495,-1.4116837978363037,1.9602465629577637,4.031111717224121,0.320695698261261,-0.1490306854248047,0.261970192193985,0.6568723320960999
215,45768,45764,0.010229199193418026,-0.023196890950202942,0.9478194713592529,1.5321279764175415,0.1165066584944725,-1.6216230392456055,1.9595775604248047,4.0304951667785645,0.3196074366569519,-0.07974432408809662,0.3049278259277344,0.6413487792015076
216,45778,45774,0.036138616502285004,-0.042557019740343094,0.9323204159736633,0.6956636309623718,1.9484151601791382,-2.281221866607666,1.9597235918045044,4.030365943908691,0.31971290707588196,-0.17972101271152496,0.3271382749080658,0.6221104860305786
217,45788,45784,0.05455414950847626,-0.026263011619448662,0.9113065004348755,-1.1290090084075928,1.355375051498413,-1.5958267450332642,1.9614179134368896,4.029419898986816,0.31964126229286194,-0.19621410965919495,0.33092206716537476,0.5969058275222778
218,45798,45794,-0.005234354175627232,-0.0020309111569076777,0.9682157635688782,-1.9584959745407104,5.314081192016602,-1.937102198600769,1.9612256288528442,4.030219554901123,0.3196808397769928,-0.17605066299438477,0.2969880998134613,0.5777692198753357
219,45808,45804,0.03194019943475723,0.023074764758348465,0.9124817252159119,-3.096579074859619,2.4550602436065674,-1.3303580284118652,1.961958408355713,4.0292158126831055,0.3203645348548889,-0.2126288115978241,0.2777728736400604,0.541930615901947
220,45818,45814,0.0805840790271759,0.03992617875337601,0.8967211246490479,-3.484851360321045,6.757675647735596,-1.7732231616973877,1.9627156257629395,4.029135227203369,0.32014593482017517,-0.35139521956443787,0.2258004993200302,0.5126453042030334
221,45828,45824,0.06378626078367233,0.05047009885311127,0.9493213891983032,-1.658376932144165,1.6977156400680542,-1.050563931465149,1.9633053541183472,4.028504371643066,0.3199225664138794,-0.30597835779190063,0.1643770933151245,0.5010701417922974
222,45838,45834,0.037661563605070114,-0.03526075556874275,0.9385067224502563,-0.22997216880321503,3.5075786113739014,-1.1516042947769165,1.9635673761367798,4.028652191162109,0.31825098395347595,-0.340054988861084,0.1509547084569931,0.5044088959693909
223,45848,45844,-0.00958147644996643,-0.05186944827437401,0.9763078093528748,0.3692832589149475,1.5654462575912476,-1.0631146430969238,1.9631412029266357,4.029295444488525,0.3178267776966095,-0.2928324043750763,0.1547001153230667,0.49628642201423645
224,45858,45854,0.07405992597341537,0.018544979393482208,0.9796679019927979,2.1715564727783203,-0.6818558573722839,-1.37990403175354,1.9628881216049194,4.029494762420654,0.3174275755882263,-0.32622435688972473,0.17600105702877045,0.49224451184272766
225,45868,45864,-0.01913936249911785,0.007786144036799669,1.0055948495864868,3.451382875442505,0.8813887238502502,-1.2093137502670288,1.9628185033798218,4.029315948486328,0.3203411102294922,-0.3423105478286743,0.22126278281211853,0.46533679962158203
226,45878,45874,-0.0802556723356247,-0.004909399896860123,0.9960074424743652,3.697983503341675,-2.2429912090301514,-0.7774429321289062,1.9632987976074219,4.02943229675293,0.3200434744358063,-0.40289726853370667,0.20422597229480743,0.4803464114665985
227,45888,45884,0.001938968664035201,-0.09585408121347427,1.0222523212432861,4.504916667938232,-2.4614598751068115,-0.40923669934272766,1.963646411895752,4.028983116149902,0.3197774887084961,-0.28891950845718384,0.27621451020240784,0.47407016158103943
228,45898,45894,0.10226260870695114,-0.1705828756093979,1.00551438331604,6.059829235076904,-6.111225128173828,-0.5017019510269165,1.9630250930786133,4.02953577041626,0.3193993866443634,-0.22794018685817719,0.2885451912879944,0.4687195122241974
229,45908,45904,0.056789297610521317,-0.16289818286895752,1.0807856321334839,7.87704610824585,-5.75000524520874,-0.7315452098846436,1.9623583555221558,4.028985023498535,0.31918442249298096,-0.14057372510433197,0.40802788734436035,0.45481249690055847
230,45918,45914,0.04227585345506668,-0.08746828138828278,0.999580979347229,8.157088279724121,-7.664022445678711,0.7523542642593384,1.96202552318573,4.0281453132629395,0.31903043389320374,-0.07229868322610855,0.4957408010959625,0.42306920886039734
231,45928,45924,-0.003437105333432555,-0.07556070387363434,1.0390104055404663,7.303185939788818,-4.661215305328369,2.3689119815826416,1.9622018337249756,4.027074337005615,0.31881555914878845,0.08011088520288467,0.6683437824249268,0.4605637490749359
232,45938,45934,0.04958843067288399,0.009537857957184315,0.9408528804779053,3.3387551307678223,1.5593868494033813,4.841518878936768,1.9613823890686035,4.025405406951904,0.31653809547424316,-0.13492920994758606,0.6670724153518677,0.45878416299819946
233,45948,45944,0.0949733704328537,0.006009687203913927,0.9401441216468811,-3.9169869422912598,7.655007839202881,7.335821628570557,1.9638495445251465,4.026074409484863,0.316522479057312,-0.11787696927785873,0.6453285217285156,0.5234653949737549
234,45958,45954,0.12185882776975632,-0.07670397311449051,0.9731349945068359,-9.280293464660645,6.705181121826172,8.197813034057617,1.964542269706726,4.026256084442139,0.3162219822406769,-0.19267113506793976,0.5849313139915466,0.6010506749153137
235,45968,45964,0.01389590185135603,-0.023185675963759422,1.0060611963272095,-13.428609848022461,7.956173896789551,7.7353620529174805,1.9651141166687012,4.027104377746582,0.31862881779670715,-0.2022227793931961,0.38256677985191345,0.6730176210403442
236,45978,45974,-0.01847938634455204,-0.0640726387500763,1.0022612810134888,-12.694844245910645,5.339556694030762,6.896273136138916,1.9651507139205933,4.027125835418701,0.31840381026268005,-0.38736939430236816,0.23996393382549286,0.760952353477478
237,45988,45984,-0.006578145548701286,0.020957445725798607,0.9738981127738953,-6.597374439239502,2.4461512565612793,7.423807144165039,1.9659466743469238,4.027153968811035,0.3181391656398773,-0.4389682412147522,0.08734786510467529,0.817905843257904
238,45998,45994,0.03948989510536194,0.048686377704143524,0.9930175542831421,0.7753405570983887,-3.272712230682373,8.382434844970703,1.9669148921966553,4.02663516998291,0.3192361295223236,-0.3268762230873108,0.05869769677519798,0.9010816216468811
239,46008,46004,0.055152229964733124,-0.0073609733954072,1.039034366607666,9.058195114135742,-8.431106567382812,9.571512222290039,1.966410517692566,4.025547981262207,0.31916019320487976,-0.43904709815979004,0.16392582654953003,0.9603647589683533
240,46018,46014,0.0407443642616272,-0.05029147490859032,1.0332802534103394,15.84839916229248,-10.084701538085938,9.715028762817383,1.969011902809143,4.024831771850586,0.3189502954483032,-0.24895821511745453,0.3877028822898865,1.0451740026474
241,46028,46024,0.021344488486647606,-0.031587231904268265,1.0064903497695923,17.26529884338379,-11.052289962768555,10.477621078491211,1.9689478874206543,4.0226826667785645,0.31891506910324097,-0.13770538568496704,0.555881142616272,1.1446342468261719
242,46038,46034,0.09059130400419235,-0.035799846053123474,0.9067394733428955,14.9299898147583,-9.574234962463379,10.94243335723877,1.9677925109863281,4.021367073059082,0.31894347071647644,0.10769719630479813,0.743905246257782,1.246791958808899
243,46048,46044,0.11650890856981277,-0.057325031608343124,1.0241845846176147,6.855428218841553,-6.881844997406006,10.643295288085938,1.97019624710083,4.022356986999512,0.3187849521636963,-0.060051728039979935,0.784209132194519,1.353592038154602
244,46058,46054,-0.04971142113208771,0.07755430042743683,1.0095038414001465,-2.983473777770996,-5.668886184692383,10.12279987335205,1.9689117670059204,4.020883560180664,0.31881824135780334,0.19550132751464844,0.8383897542953491,1.4527307748794556
245,46068,46064,-0.025556139647960663,-0.06834787130355835,1.0221585035324097,-16.42532730102539,6.270955562591553,8.92481803894043,1.9694066047668457,4.021134853363037,0.31913840770721436,0.2071039080619812,0.7158485651016235,1.5402319431304932
246,46078,46074,-0.00885654054582119,-0.02962685562670231,1.019289493560791,-22.765756607055664,11.32845401763916,8.729507446289062,1.969751238822937,4.022639751434326,0.31907856464385986,0.15826933085918427,0.4647783935070038,1.6550899744033813
247,46088,46084,-0.03485342860221863,-0.0366225466132164,1.0586317777633667,-22.17734718322754,19.137195587158203,7.747450351715088,1.970090389251709,4.023179531097412,0.31902986764907837,-0.008888274431228638,0.1444036215543747,1.7221970558166504
248,46098,46094,-0.011748142540454865,0.002427844563499093,1.0502798557281494,-13.827914237976074,16.68359375,8.405220985412598,1.9715051651000977,4.021765232086182,0.31798067688941956,-0.29967987537384033,0.07697144895792007,1.7828353643417358
249,46108,46104,0.02234961837530136,-0.08924533426761627,1.0304126739501953,-4.326974868774414,12.104132652282715,9.163674354553223,1.9725450277328491,4.019835948944092,0.3179020285606384,-0.4509355127811432,0.0041949013248085976,1.8479233980178833
250,46118,46114,0.05282207205891609,-0.09729426354169846,0.9803241491317749,4.060437202453613,7.075259208679199,9.143292427062988,1.9732129573822021,4.019626617431641,0.31789860129356384,-0.5535546541213989,-0.005618956405669451,1.943981409072876
251,46128,46124,0.0531599223613739,-0.023110581561923027,0.9882426261901855,8.64738941192627,0.20918969810009003,9.098422050476074,1.973770260810852,4.018330097198486,0.31793591380119324,-0.5535088181495667,0.08095052093267441,2.0174965858459473
252,46138,46134,0.08060503751039505,-0.08898777514696121,0.9816220998764038,7.782215118408203,-4.817396640777588,8.367384910583496,1.972933292388916,4.017813205718994,0.31911802291870117,-0.4446788430213928,0.20551635324954987,2.0907535552978516
253,46148,46144,0.0037492848932743073,0.10003030300140381,1.005435585975647,5.578103065490723,-8.046202659606934,5.928935527801514,1.972416877746582,4.016102313995361,0.3192158043384552,-0.2924126982688904,0.29359981417655945,2.1560449600219727
254,46158,46154,0.05455976724624634,-0.04335227608680725,0.8774821162223816,-0.9247711896896362,-10.985458374023438,5.952346324920654,1.972551941871643,4.014092922210693,0.31927400827407837,-0.19894717633724213,0.3055679202079773,2.185628890991211
255,46168,46164,0.0007987982826307416,-0.06266669929027557,0.9559565186500549,-4.3281569480896,-4.679226875305176,5.977198600769043,1.9731007814407349,4.0144171714782715,0.3191952109336853,-0.1703544557094574,0.22513411939144135,2.2485365867614746
256,46178,46174,-0.013792944140732288,0.005170121788978577,0.9746407866477966,-5.472531795501709,0.5691339373588562,5.4312214851379395,1.9741822481155396,4.015754222869873,0.3191126883029938,-0.14408138394355774,0.17496389150619507,2.3364481925964355
257,46188,46184,0.03450518473982811,0.021391194313764572,0.9916412234306335,-6.415661811828613,7.308200359344482,4.882969379425049,1.9754201173782349,4.015169620513916,0.31892862915992737,-0.1593306064605713,0.07429614663124084,2.3702433109283447
258,46198,46194,-0.0029548145830631256,-0.012971791438758373,0.9883685111999512,-5.219686985015869,12.678206443786621,5.9143805503845215,1.9750051498413086,4.015774250030518,0.32122135162353516,-0.3553115129470825,0.11557218432426453,2.4529623985290527
259,46208,46204,-0.0038835539016872644,-0.01977151446044445,0.9581564664840698,-5.742499351501465,14.692340850830078,6.635097026824951,1.9755274057388306,4.014546871185303,0.32123345136642456,-0.4350828528404236,0.07205826789140701,2.545041561126709
260,46218,46214,-0.05949867516756058,0.029054934158921242,1.059579849243164,-8.993037223815918,13.207402229309082,6.818503379821777,1.975528597831726,4.0152201652526855,0.32124900817871094,-0.5822972655296326,-0.008086350746452808,2.608457326889038
261,46228,46224,-0.013221866451203823,-0.03460448980331421,0.921373724937439,-11.075395584106445,9.004144668579102,6.376339435577393,1.9759691953659058,4.014383792877197,0.32122641801834106,-0.5355024933815002,-0.20453239977359772,2.6665544509887695
262,46238,46234,0.021341390907764435,-0.04317934438586235,0.941304624080658,-12.423622131347656,3.2013628482818604,5.449466228485107,1.9749786853790283,4.015228271484375,0.3223123252391815,-0.6432561874389648,-0.2707745134830475,2.7063097953796387
263,46248,46244,0.017881887033581734,-0.01024867407977581,0.9599316120147705,-9.800833702087402,-4.322961330413818,4.589819431304932,1.9754326343536377,4.0132856369018555,0.32227709889411926,-0.6512181758880615,-0.3883916139602661,2.7688920497894287
264,46258,46254,-0.06800772994756699,0.1087164431810379,1.0031189918518066,-5.542907238006592,-5.697279453277588,5.727884769439697,1.9743597507476807,4.011636257171631,0.32232096791267395,-0.37668466567993164,-0.3756617605686188,2.8088340759277344
265,46268,46264,-0.0223398357629776,-0.004940408281981945,1.033684253692627,-1.5496644973754883,-5.385089874267578,6.252251148223877,1.9744541645050049,4.012372970581055,0.32288894057273865,-0.31348079442977905,-0.4171684682369232,2.882427453994751
266,46278,46274,0.014980209991335869,-0.029361523687839508,0.9836081266403198,3.308070659637451,-2.4952316284179688,5.5523200035095215,1.9756265878677368,4.011997699737549,0.32282835245132446,-0.2878081500530243,-0.30287373065948486,2.9698262214660645
267,46288,46284,-0.016941972076892853,0.0417950414121151,1.0205310583114624,3.221675157546997,3.70151686668396,5.1829142570495605,1.974807620048523,4.011361122131348,0.3228569030761719,-0.2870301604270935,-0.2680143415927887,3.023956060409546
268,46298,46294,-0.027823196724057198,0.002598751103505492,0.942479133605957,2.2159042358398438,10.183364868164062,4.7791290283203125,1.975073218345642,4.012450695037842,0.324558824300766,-0.3361838757991791,-0.2589193880558014,3.108747720718384
269,46308,46304,0.030088623985648155,0.03182176873087883,0.9921759963035583,-0.17011451721191406,16.46152687072754,4.174213409423828,1.9765812158584595,4.0123677253723145,0.3245818018913269,-0.6016364097595215,-0.28159135580062866,3.135077953338623
270,46318,46314,0.037229273468256,-0.09334080666303635,1.0712175369262695,-1.021927833557129,15.437766075134277,3.9864554405212402,1.9776240587234497,4.01100492477417,0.32455432415008545,-0.8607228398323059,-0.3700949549674988,3.1775238513946533
271,46328,46324,0.04180461913347244,-0.1739070862531662,0.9110133647918701,-4.5050950050354,13.925986289978027,4.486008644104004,1.9778788089752197,4.010921955108643,0.323391854763031,-0.8010438680648804,-0.4448258876800537,3.1964824199676514
272,46338,46334,0.0008020778768695891,-0.15194706618785858,0.9858430624008179,-7.24088191986084,9.435256958007812,4.545180320739746,1.9768764972686768,4.011595249176025,0.3235357701778412,-0.9344980120658875,-0.41240194439888,3.2489571571350098
273,46348,46344,0.015018566511571407,-0.16616693139076233,0.979151725769043,-6.0187835693359375,6.132561683654785,3.767784595489502,1.9773701429367065,4.010894298553467,0.3234507143497467,-1.0015736818313599,-0.5452056527137756,3.294203281402588
274,46358,46354,-0.08529148250818253,-0.013637160882353783,0.9790539741516113,-5.155991554260254,0.13883352279663086,3.2586557865142822,1.9773904085159302,4.010984420776367,0.3233656585216522,-1.0188684463500977,-0.6019555330276489,3.33200740814209
275,46368,46364,0.05458682402968407,-0.11553435772657394,0.9884918928146362,-5.356130123138428,-2.1181750297546387,3.1616854667663574,1.9769002199172974,4.010864734649658,0.32493191957473755,-0.9528791308403015,-0.6263333559036255,3.3712918758392334
276,46378,46374,0.05764290317893028,0.0883333683013916,1.0243273973464966,-2.2344107627868652,-8.097145080566406,1.1235631704330444,1.9766169786453247,4.009890556335449,0.32489293813705444,-0.9741491675376892,-0.623435914516449,3.4047939777374268
277,46388,46384,0.0342259556055069,0.008570857346057892,0.9458727240562439,0.7543094754219055,-9.645723342895508,-0.2511666417121887,1.9774304628372192,4.009771823883057,0.32485392689704895,-0.830256462097168,-0.6512932777404785,3.386984348297119
278,46398,46394,-0.02204579859972,-0.017012683674693108,1.0543171167373657,2.0053985118865967,-9.258668899536133,-1.3748929500579834,1.9773948192596436,4.009966850280762,0.3235284090042114,-0.5932777523994446,-0.6364285349845886,3.398484706878662
279,46408,46404,0.039438072592020035,-0.05445316433906555,0.9634711742401123,0.1720919907093048,-7.213772296905518,-1.178478717803955,1.9766879081726074,4.009891510009766,0.3234632611274719,-0.5045541524887085,-0.6232464909553528,3.383873701095581
280,46418,46414,0.07782110571861267,-0.23041605949401855,1.0143195390701294,-1.6916769742965698,-0.7136805653572083,-1.9160982370376587,1.9775787591934204,4.00988245010376,0.3233133554458618,-0.6084383130073547,-0.603161096572876,3.3898937702178955
281,46428,46424,0.03279571980237961,-0.20998921990394592,0.9838263988494873,-4.382788181304932,0.1135483831167221,-2.3684349060058594,1.978147029876709,4.0084004402160645,0.32375505566596985,-0.7272137999534607,-0.6898818612098694,3.3471784591674805
282,46438,46434,-0.10043420642614365,0.0634506568312645,0.9555359482765198,-8.007688522338867,0.5871210098266602,-2.6305999755859375,1.9793726205825806,4.008483409881592,0.32360443472862244,-0.725554883480072,-0.7436304688453674,3.312046766281128
283,46448,46444,-0.09248965978622437,0.09809385985136032,0.9364606142044067,-10.709898948669434,0.5833816528320312,-2.800004243850708,1.9797497987747192,4.007430076599121,0.3234480023384094,-0.6594244241714478,-0.9266973733901978,3.2508392333984375
284,46458,46454,-0.012924539856612682,-0.039744798094034195,0.9668136239051819,-10.422948837280273,-3.275838613510132,-4.065841197967529,1.9790996313095093,4.008068561553955,0.3233577609062195,-0.6483827829360962,-1.0355165004730225,3.1972103118896484
285,46468,46464,0.020631326362490654,0.007366958539932966,0.9959995746612549,-6.066115379333496,-6.051706790924072,-4.687448024749756,1.9789985418319702,4.0084228515625,0.32160523533821106,-0.554128110408783,-1.143402338027954,3.1561450958251953
286,46478,46474,0.012576086446642876,-0.020498009398579597,1.0077221393585205,-0.24625302851200104,-4.6537041664123535,-5.402230262756348,1.9804047346115112,4.008131980895996,0.3212415277957916,-0.47551605105400085,-1.0921560525894165,3.142895221710205
287,46488,46484,0.007601808290928602,-0.03282834589481354,0.9527087807655334,7.108734130859375,-2.3746752738952637,-6.315806865692139,1.9804980754852295,4.008252143859863,0.32092520594596863,-0.5163365602493286,-0.9290345907211304,3.095456123352051
288,46498,46494,0.04587399959564209,-0.014669637195765972,0.9144785404205322,14.197221755981445,1.213050365447998,-6.538297653198242,1.9814742803573608,4.00712251663208,0.3206762671470642,-0.5339189767837524,-0.8853891491889954,3.0259506702423096
289,46508,46504,0.029640428721904755,-0.018200978636741638,0.9722501039505005,16.223636627197266,5.408729553222656,-6.030479431152344,1.9822142124176025,4.0076680183410645,0.3202241361141205,-0.5286107063293457,-0.7002590894699097,2.9439427852630615
290,46518,46514,0.07741155475378036,-0.1151786595582962,0.9717008471488953,13.982626914978027,7.091162204742432,-5.33952522277832,1.9823094606399536,4.006704807281494,0.31973758339881897,-0.5896151065826416,-0.5479772686958313,2.887331247329712
291,46528,46524,0.05565069615840912,-0.1250515729188919,1.0290727615356445,8.459602355957031,8.6227388381958,-5.658700466156006,1.9826737642288208,4.0060296058654785,0.3181154131889343,-0.659196138381958,-0.43107515573501587,2.839528799057007
292,46538,46534,0.06174466758966446,-0.0775459036231041,0.9583391547203064,1.8446695804595947,6.903173923492432,-5.707932949066162,1.9824941158294678,4.007083892822266,0.3175348937511444,-0.7375527024269104,-0.41869550943374634,2.7796709537506104
293,46548,46544,-0.0088498555123806,0.06746809184551239,0.9385961890220642,-2.9719502925872803,4.710808753967285,-4.7297749519348145,1.982600450515747,4.008007049560547,0.31693074107170105,-0.7320353388786316,-0.5092030763626099,2.7205264568328857
294,46558,46554,-0.017627641558647156,0.06531888246536255,1.016398549079895,-4.572454452514648,2.1926400661468506,-4.4510722160339355,1.982932448387146,4.0082783699035645,0.31280723214149475,-0.7546044588088989,-0.5310406684875488,2.721808910369873
295,46568,46564,0.04582954943180084,0.03788704052567482,0.9044287204742432,-3.5705907344818115,-1.9179686307907104,-3.9081616401672363,1.983939290046692,4.009003639221191,0.3118889629840851,-0.8502839207649231,-0.586172878742218,2.6752707958221436
296,46578,46574,-0.007706564385443926,0.08847818523645401,1.0284786224365234,-2.130535840988159,-4.8802714347839355,-3.432971715927124,1.98516047000885,4.007929801940918,0.31075814366340637,-0.7515689730644226,-0.6304355263710022,2.596506118774414
297,46588,46584,0.041553907096385956,-0.007772815879434347,0.9972032308578491,-2.4751038551330566,-8.862504959106445,-2.6549932956695557,1.984682321548462,4.007734298706055,0.30988746881484985,-0.7282244563102722,-0.6567005515098572,2.5542473793029785
298,46598,46594,-0.017075704410672188,0.0949905663728714,0.992986798286438,-0.9656631946563721,-9.578585624694824,-1.0934959650039673,1.9860048294067383,4.00787353515625,0.30857858061790466,-0.5938957333564758,-0.6696529984474182,2.5301578044891357
299,46608,46604,0.016476497054100037,0.055524662137031555,0.9820829629898071,-0.364450067281723,-9.597800254821777,-0.0990886390209198,1.9861222505569458,4.008439064025879,0.30762094259262085,-0.4967110753059387,-0.6838688254356384,2.501657009124756
300,46618,46614,-0.013228065334260464,0.04661917686462402,1.079545259475708,-1.4000945091247559,-8.775742530822754,0.6363731026649475,1.9879666566848755,4.0089874267578125,0.3065243661403656,-0.5709247589111328,-0.6722326278686523,2.558614492416382
301,46628,46624,0.03680301085114479,-0.012317522428929806,0.990342915058136,-3.443023443222046,-6.5649518966674805,0.748504638671875,1.9874681234359741,4.008686542510986,0.307565838098526,-0.35175707936286926,-0.6765922904014587,2.5506222248077393
302,46638,46634,0.008787283673882484,-0.04345230385661125,0.9844710826873779,-4.990657806396484,-3.5560619831085205,2.042297601699829,1.9881073236465454,4.009589195251465,0.3067110776901245,-0.34276506304740906,-0.718696653842926,2.5742721557617188
303,46648,46644,0.041432879865169525,-0.12347329407930374,1.0775249004364014,-7.138278484344482,-3.0546700954437256,2.723196268081665,1.9886934757232666,4.010422706604004,0.3058512210845947,-0.3197263777256012,-0.804682731628418,2.607633113861084
304,46658,46654,0.0714225247502327,-0.2269337773323059,1.1388421058654785,-4.4235944747924805,-1.837684988975525,1.654563069343567,1.989253044128418,4.011076927185059,0.30401861667633057,-0.2830969989299774,-0.8703133463859558,2.62727427482605
305,46668,46664,0.05353361740708351,-0.08730784058570862,1.0101004838943481,-2.676725149154663,0.04488588869571686,1.166441798210144,1.9899203777313232,4.010789394378662,0.3032599091529846,-0.24536220729351044,-0.9125012755393982,2.6286063194274902
306,46678,46674,-0.016138087958097458,0.0018615609733387828,1.0384857654571533,-1.090527057647705,0.7364256381988525,1.1037874221801758,1.9906560182571411,4.011000156402588,0.30257049202919006,-0.39435848593711853,-0.9988386034965515,2.6286184787750244
307,46688,46684,0.0498105064034462,-0.004425728693604469,1.0447654724121094,1.4694980382919312,-1.251343011856079,1.1357879638671875,1.9928927421569824,4.011061668395996,0.3017643988132477,-0.3682843744754791,-1.0443726778030396,2.6361398696899414
308,46698,46694,0.06252283602952957,0.006156145595014095,1.057544231414795,2.4631123542785645,-3.434359073638916,1.0131254196166992,1.9936734437942505,4.012038707733154,0.302267462015152,-0.3982017934322357,-1.1297008991241455,2.662370204925537
309,46708,46704,-0.03595636039972305,0.07546203583478928,1.0986216068267822,5.96617317199707,-7.469775199890137,2.0011394023895264,1.9948447942733765,4.013139724731445,0.3016294240951538,-0.3685246706008911,-1.1051067113876343,2.6650149822235107
310,46718,46714,-0.057949673384428024,0.08433610945940018,1.0208781957626343,8.095193862915039,-5.572500228881836,2.3836116790771484,1.9960964918136597,4.012890338897705,0.3011438250541687,-0.22245897352695465,-0.9278037548065186,2.6902425289154053
311,46728,46724,0.009556363336741924,0.016236644238233566,1.0411171913146973,10.019723892211914,-6.142438888549805,2.1458253860473633,1.9958053827285767,4.013309955596924,0.3025857210159302,-0.3392084240913391,-0.9692643284797668,2.728036880493164
312,46738,46734,0.03431633487343788,-0.034579865634441376,1.1001789569854736,12.961844444274902,-8.955452919006348,1.6406893730163574,1.9974738359451294,4.015056610107422,0.3021910786628723,-0.09829729050397873,-0.721663773059845,2.7438008785247803
313,46748,46744,0.000660153164062649,-0.01778651587665081,1.1199318170547485,15.098845481872559,-6.59806489944458,1.7047233581542969,1.9971529245376587,4.014634132385254,0.3023678660392761,0.05597637966275215,-0.5232484936714172,2.769083023071289
314,46758,46754,-0.011306533589959145,-0.013140568509697914,1.0611083507537842,14.716697692871094,-6.7239813804626465,2.1422438621520996,1.9969382286071777,4.014225006103516,0.2998194992542267,-0.04059883579611778,-0.6240049600601196,2.808051824569702
315,46768,46764,0.005820992402732372,-0.026219047605991364,1.0210466384887695,14.02681827545166,-8.675152778625488,3.2664525508880615,1.9990769624710083,4.016301155090332,0.29961666464805603,0.19532811641693115,-0.4641841650009155,2.7992849349975586
316,46778,46774,0.04917587339878082,-0.055622175335884094,1.0285875797271729,9.742315292358398,-4.730715274810791,2.0306010246276855,1.998632788658142,4.017207145690918,0.2996983826160431,0.2385665625333786,-0.34710317850112915,2.8028817176818848
317,46788,46784,-0.00411971053108573,-0.17796139419078827,1.0400410890579224,7.371127128601074,-5.161109924316406,2.255910873413086,1.9996416568756104,4.0170817375183105,0.2996327579021454,0.26372411847114563,-0.27642354369163513,2.832228660583496
318,46798,46794,0.01107059046626091,-0.16891460120677948,1.0490508079528809,6.780406951904297,-1.6494437456130981,2.2681210041046143,2.0008304119110107,4.017430782318115,0.3015064299106598,0.33851227164268494,-0.08178076893091202,2.825451612472534
319,46808,46804,0.010443425737321377,-0.07669002562761307,0.913327157497406,4.90632963180542,2.984574317932129,2.531543493270874,2.001598834991455,4.017405986785889,0.30171799659729004,0.3527258336544037,-0.07302593439817429,2.852354049682617
320,46818,46814,0.01801852136850357,-0.11273893713951111,0.961243212223053,4.853337287902832,2.472017288208008,3.2468433380126953,2.0029733180999756,4.018585681915283,0.3018455505371094,0.403438001871109,0.0016913270810618997,2.864250659942627
321,46828,46824,0.06349813938140869,-0.2040487676858902,1.0628538131713867,7.078538417816162,2.517613410949707,2.8707504272460938,2.003354787826538,4.019078254699707,0.30129724740982056,0.28166383504867554,0.005715657025575638,2.8775887489318848
322,46838,46834,0.07140764594078064,-0.22528044879436493,0.9539960026741028,9.401826858520508,5.486077308654785,2.0468027591705322,2.004948139190674,4.019472599029541,0.3012818396091461,0.3143846392631531,0.05200955271720886,2.907351016998291
323,46848,46844,-0.009203656576573849,-0.019742971286177635,1.018389105796814,12.736797332763672,4.710170745849609,2.5324997901916504,2.005094528198242,4.0195722579956055,0.30135414004325867,0.16456195712089539,0.3021875023841858,2.9039645195007324
324,46858,46854,-0.003110852325335145,-0.044678036123514175,1.0216115713119507,15.199397087097168,6.3645477294921875,2.2790989875793457,2.006673812866211,4.01924467086792,0.300889253616333,0.16721534729003906,0.4258121848106384,2.9285686016082764
325,46868,46864,0.013956400565803051,-0.0025213873013854027,1.030737280845642,16.363191604614258,6.99587869644165,2.174022912979126,2.0071144104003906,4.020187854766846,0.3009735941886902,0.11386808007955551,0.5729167461395264,2.9707794189453125
326,46878,46874,0.00017968476458918303,-0.019364695996046066,1.0021448135375977,14.940285682678223,6.836552619934082,2.534574031829834,2.006897211074829,4.022662162780762,0.3011111617088318,0.1971423178911209,0.5384896993637085,3.0136213302612305
327,46888,46884,0.014405571855604649,-0.008851167745888233,0.9979451894760132,12.444799423217773,5.793825626373291,2.7884466648101807,2.0069003105163574,4.022963047027588,0.30133169889450073,0.1256544440984726,0.6904454827308655,3.038945198059082
328,46898,46894,0.004249998833984137,0.020840715616941452,1.0108516216278076,11.292652130126953,5.165186405181885,3.163374185562134,2.007763624191284,4.0228376388549805,0.30133506655693054,-0.030193503946065903,0.8818135261535645,3.06288743019104
329,46908,46904,-0.044905222952365875,0.0767516940832138,1.0578545331954956,10.816847801208496,4.1339898109436035,2.638735055923462,2.0095057487487793,4.023915767669678,0.3013555109500885,-0.030087605118751526,0.9799715876579285,3.0989956855773926
330,46918,46914,-0.12413712590932846,0.07873236387968063,1.0516756772994995,6.678552150726318,2.5719282627105713,3.037440061569214,2.0095276832580566,4.02409553527832,0.3015234172344208,-0.009412337094545364,1.1983985900878906,3.0914430618286133
331,46928,46924,-0.00794130377471447,0.017046503722667694,1.058240532875061,1.6200096607208252,2.2522594928741455,2.336277723312378,2.0094008445739746,4.023446559906006,0.3011797070503235,-0.20954382419586182,1.1792083978652954,3.103907585144043
332,46938,46934,0.06391368061304092,0.038716066628694534,1.0581470727920532,-3.2587337493896484,2.3826234340667725,1.3274378776550293,2.0122692584991455,4.025332450866699,0.30130377411842346,-0.21933883428573608,1.207743525505066,3.1477017402648926
333,46948,46944,0.0630543902516365,-0.01917518489062786,0.9958882927894592,-5.9993896484375,2.0728654861450195,-0.1505947858095169,2.011885404586792,4.026219367980957,0.3016538619995117,-0.1694832742214203,1.1362565755844116,3.1643922328948975
334,46958,46954,-0.011808562092483044,-0.05446093901991844,1.0527839660644531,-6.348020553588867,3.597900390625,-1.2180109024047852,2.01200008392334,4.027490615844727,0.3005363643169403,-0.21438491344451904,1.0399346351623535,3.1921770572662354
335,46968,46964,-0.010749253444373608,-0.041533563286066055,0.9975149631500244,-4.259246349334717,3.542665958404541,-2.3861165046691895,2.0134618282318115,4.027914047241211,0.3007355034351349,-0.18485422432422638,1.006662130355835,3.1823575496673584
336,46978,46974,0.07292219251394272,-0.07143593579530716,0.9971046447753906,0.5825415849685669,5.976098537445068,-2.9841790199279785,2.0130739212036133,4.028083324432373,0.3010441064834595,-0.33998388051986694,1.0168166160583496,3.130220413208008
337,46988,46984,0.015653027221560478,-0.006102431565523148,1.0105881690979004,4.961519718170166,8.834406852722168,-3.4679102897644043,2.0154173374176025,4.02806282043457,0.3004283010959625,-0.39907655119895935,1.0148316621780396,3.1036558151245117
338,46998,46994,0.023406866937875748,-0.15139950811862946,0.9507994651794434,10.30635929107666,10.181431770324707,-3.6002278327941895,2.016040802001953,4.027697563171387,0.30061712861061096,-0.4366035759449005,1.1035826206207275,3.064458131790161
339,47008,47004,0.007036998402327299,-0.1350884884595871,0.9245895147323608,12.65287971496582,9.425344467163086,-3.362163543701172,2.0163285732269287,4.02787971496582,0.30078011751174927,-0.5389411449432373,1.1973158121109009,3.0380795001983643
340,47018,47014,0.0459924042224884,-0.1330820918083191,0.96043461561203,12.057491302490234,5.103442192077637,-2.875185251235962,2.0169103145599365,4.027865409851074,0.3009093403816223,-0.5935165882110596,1.2944622039794922,2.9839670658111572
341,47028,47024,0.01869194768369198,-0.05104536935687065,1.0902557373046875,9.848907470703125,3.5415375232696533,-3.0092926025390625,2.0168540477752686,4.027838230133057,0.3041952848434448,-0.5753199458122253,1.4592825174331665,2.9702160358428955
342,47038,47034,-0.0191488116979599,0.033739205449819565,0.9975767135620117,5.866445541381836,2.080256938934326,-2.5363030433654785,2.0172159671783447,4.028329849243164,0.3045145869255066,-0.6366897225379944,1.4961674213409424,2.9457571506500244
343,47048,47044,-0.007145855110138655,0.03890185058116913,0.9835897088050842,0.8804376125335693,2.5557196140289307,-2.5753238201141357,2.019045114517212,4.029721260070801,0.30476808547973633,-0.6582948565483093,1.5605984926223755,2.926973581314087
344,47058,47054,-0.03824299946427345,0.07403326779603958,1.0260472297668457,-3.997302532196045,3.4500324726104736,-2.867802858352661,2.019991636276245,4.0297770500183105,0.30267149209976196,-0.6941683292388916,1.6096179485321045,2.905050277709961
345,47068,47064,-0.10951779782772064,0.08208632469177246,1.125065803527832,-7.249020099639893,2.5444066524505615,-3.306082248687744,2.020174026489258,4.02947473526001,0.3029199242591858,-0.6400769948959351,1.560969591140747,2.8627161979675293
346,47078,47074,-0.0883408635854721,0.1533491313457489,1.036557912826538,-8.97336483001709,3.1727304458618164,-2.663632869720459,2.0224521160125732,4.02996301651001,0.30302172899246216,-0.739184558391571,1.426061987876892,2.770632743835449
347,47088,47084,-0.04104071855545044,0.06219230964779854,1.0177206993103027,-8.23679256439209,3.436946392059326,-1.8631770610809326,2.022663116455078,4.0297369956970215,0.303956538438797,-0.7745794057846069,1.3060234785079956,2.7403342723846436
348,47098,47094,0.019554277881979942,-0.005212120246142149,0.979701578617096,-6.258022785186768,1.7259604930877686,-2.0026519298553467,2.0234742164611816,4.030193328857422,0.30430829524993896,-0.7988924980163574,1.206498146057129,2.6915175914764404
349,47108,47104,-0.004510279279202223,-0.019027169793844223,0.9957807064056396,-4.909783840179443,0.2744806706905365,-1.53667151927948,2.0241539478302,4.029820919036865,0.30470457673072815,-0.8149733543395996,1.1433156728744507,2.673388719558716
350,47118,47114,0.03568302467465401,-0.08227230608463287,0.9100732803344727,-1.2098852396011353,-1.00404953956604,-0.7096779942512512,2.0270256996154785,4.028764247894287,0.3049464821815491,-0.9134621024131775,1.2452335357666016,2.63126802444458
351,47128,47124,0.012322911992669106,-0.01873057149350643,0.9771523475646973,-0.8648045659065247,-4.094533443450928,-0.12070917338132858,2.0278611183166504,4.029026985168457,0.30560773611068726,-0.7691842913627625,1.228008508682251,2.6622533798217773
352,47138,47134,0.07629044353961945,-0.06710613518953323,1.0587141513824463,-4.041085243225098,-6.195162773132324,-0.23562590777873993,2.027738571166992,4.028416633605957,0.3060430586338043,-0.8277660608291626,1.196317434310913,2.6038143634796143
353,47148,47144,0.09549602121114731,-0.052351873368024826,0.9490082859992981,-7.319226264953613,-6.002469062805176,-1.2505654096603394,2.0289065837860107,4.0282111167907715,0.3062836825847626,-0.7617517709732056,1.1519043445587158,2.558797597885132
354,47158,47154,0.04099779203534126,0.002884931629523635,0.8870370388031006,-10.97188949584961,-7.312436580657959,-1.3820570707321167,2.032432794570923,4.0284037590026855,0.30655279755592346,-0.8452752232551575,1.0328561067581177,2.5312373638153076
355,47168,47164,0.040373217314481735,-0.009838067926466465,0.9272329807281494,-11.433351516723633,-7.550869464874268,-1.379534363746643,2.033332347869873,4.028655529022217,0.30691707134246826,-0.5897946357727051,1.00472092628479,2.580817222595215
356,47178,47174,-0.004185020457953215,0.016611943021416664,1.0279951095581055,-10.286209106445312,-8.6806640625,-2.328732967376709,2.032449722290039,4.028589725494385,0.3072991967201233,-0.7282798886299133,0.8157269954681396,2.511920928955078
357,47188,47184,-0.01759687252342701,-0.01218927651643753,0.9892678260803223,-8.651263236999512,-8.434734344482422,-3.0574722290039062,2.0363221168518066,4.029221057891846,0.3071857690811157,-0.5290489792823792,0.8114135265350342,2.5043342113494873
358,47198,47194,0.009790848009288311,-0.22209814190864563,0.9752023220062256,-7.2058868408203125,-8.489537239074707,-3.828538179397583,2.0366954803466797,4.028548240661621,0.30746588110923767,-0.5804880261421204,0.6643044352531433,2.429420232772827
359,47208,47204,-0.010388721711933613,-0.05858291685581207,0.9720655083656311,-6.497460842132568,-6.829878807067871,-4.301355361938477,2.0396440029144287,4.0289459228515625,0.3074698746204376,-0.6256247758865356,0.6200017929077148,2.3794267177581787
360,47218,47214,0.040337152779102325,-0.08326487988233566,1.0165064334869385,-5.503205299377441,-6.252302169799805,-4.372503280639648,2.0422005653381348,4.027883529663086,0.30688154697418213,-0.5581988096237183,0.5531150102615356,2.3159966468811035
361,47228,47224,0.056711986660957336,-0.17355866730213165,1.0227923393249512,-3.54705548286438,-5.54320764541626,-4.464198589324951,2.0417368412017822,4.028314590454102,0.30716314911842346,-0.30131796002388,0.5319420099258423,2.31337308883667
362,47238,47234,0.011822165921330452,-0.13926252722740173,0.9571661949157715,-3.3833465576171875,-6.964012622833252,-5.317447185516357,2.042329788208008,4.027871131896973,0.3072040379047394,-0.36505043506622314,0.4971619248390198,2.2672486305236816
363,47248,47244,0.016227642074227333,-0.1549493819475174,0.9233711361885071,-4.033741474151611,-6.780922889709473,-6.532986164093018,2.044614791870117,4.028050899505615,0.30709025263786316,-0.2974131107330322,0.46505919098854065,2.18540096282959
364,47258,47254,-0.016791898757219315,-0.0205672699958086,0.9838572144508362,-5.859867095947266,-4.790067195892334,-7.241515636444092,2.0438952445983887,4.026888847351074,0.3036639988422394,-0.12279592454433441,0.4749331772327423,2.137721061706543
365,47268,47264,-0.024369457736611366,-0.00903709139674902,1.070896029472351,-4.5157294273376465,-8.209502220153809,-7.2005157470703125,2.045726776123047,4.025669574737549,0.30334168672561646,-0.05416887626051903,0.42273643612861633,2.0415728092193604
366,47278,47274,0.010553807951509953,-0.09282537549734116,1.0388054847717285,-4.562261581420898,-4.798892021179199,-6.25811243057251,2.046780586242676,4.0255045890808105,0.3031339645385742,0.05398673564195633,0.39862021803855896,1.9628301858901978
367,47288,47284,0.02186148427426815,-0.15580397844314575,1.0642619132995605,-4.846809387207031,-1.5037086009979248,-5.6120734214782715,2.048679828643799,4.024590492248535,0.3049023747444153,0.026695329695940018,0.4450346529483795,1.917603850364685
368,47298,47294,0.029055356979370117,-0.3247925639152527,1.065874695777893,-3.687382459640503,1.3493181467056274,-6.020552158355713,2.049198865890503,4.0250115394592285,0.30496716499328613,0.08691775053739548,0.35115206241607666,1.8323107957839966
369,47308,47304,-0.008167145773768425,-0.0192886870354414,1.0701833963394165,-1.828363060951233,-2.368342399597168,-6.180546283721924,2.050901174545288,4.023589611053467,0.30499041080474854,0.07691647857427597,0.3150605857372284,1.7737590074539185
370,47318,47314,0.08163537830114365,-0.018543345853686333,0.872455358505249,-1.086926817893982,-9.672780990600586,-5.5479865074157715,2.051781415939331,4.023718357086182,0.3047756850719452,0.2805509567260742,0.22189557552337646,1.7050095796585083
371,47328,47324,0.0467073880136013,-0.03152131289243698,0.9251540899276733,-1.8308753967285156,-14.820192337036133,-3.874138593673706,2.0515685081481934,4.023495197296143,0.304868221282959,0.3772502839565277,0.21221396327018738,1.6407209634780884
372,47338,47334,0.06984532624483109,-0.17653053998947144,0.9768000245094299,-1.3889038562774658,-18.6092472076416,-2.581226348876953,2.0545220375061035,4.02232027053833,0.30470412969589233,0.4562552869319916,0.19280175864696503,1.5582187175750732
373,47348,47344,0.029207248240709305,0.011866774410009384,0.9388511776924133,-2.474332809448242,-17.582035064697266,-1.9439650774002075,2.0548996925354004,4.022311210632324,0.30470705032348633,0.6383336186408997,0.17873406410217285,1.491586685180664
374,47358,47354,-0.002284635789692402,0.011758232489228249,1.0407323837280273,-4.235646724700928,-13.872259140014648,-2.0851147174835205,2.0571372509002686,4.020912170410156,0.29962602257728577,0.669880747795105,0.18493495881557465,1.4637142419815063
375,47368,47364,0.07909590750932693,-0.09054765105247498,0.8327811360359192,-6.3421173095703125,-6.314794540405273,-2.836941957473755,2.057687997817993,4.019854545593262,0.2992350161075592,0.8818399906158447,0.1679178923368454,1.4171011447906494
376,47378,47374,0.05201505497097969,-0.00666401069611311,0.9353342652320862,-7.8142194747924805,-2.0832812786102295,-2.514298677444458,2.0587425231933594,4.019563674926758,0.29872560501098633,0.94948810338974,0.10645882785320282,1.389976978302002
377,47388,47384,0.06960902363061905,-0.2234393060207367,0.9957471489906311,-9.891197204589844,7.6902055740356445,-2.265702962875366,2.059800386428833,4.018091678619385,0.2999122440814972,0.9966767430305481,0.06426886469125748,1.307152271270752
378,47398,47394,0.009572899900376797,-0.16227683424949646,1.0234911441802979,-11.252851486206055,13.619640350341797,-2.5625247955322266,2.0603106021881104,4.017261981964111,0.29943522810935974,0.913923442363739,-0.034891799092292786,1.2793128490447998
379,47408,47404,0.03064396046102047,-0.3243621289730072,1.015187382698059,-13.18733024597168,14.22000503540039,-4.202935218811035,2.0617103576660156,4.018187046051025,0.2989242970943451,0.7417283654212952,-0.2618662118911743,1.29920494556427
380,47418,47414,0.0005162218003533781,-0.08123192191123962,1.0604649782180786,-12.048521041870117,13.60153579711914,-5.832498550415039,2.062671661376953,4.017929553985596,0.29847845435142517,0.603577196598053,-0.3550063967704773,1.2263706922531128
381,47428,47424,0.02280067652463913,-0.013099717907607555,1.05411958694458,-9.984662055969238,7.486760139465332,-5.7144975662231445,2.0634348392486572,4.017787456512451,0.29807040095329285,0.4802236258983612,-0.5177567601203918,1.2025905847549438
382,47438,47434,0.02342046983540058,0.04203609377145767,1.0807074308395386,-7.770328998565674,-0.45157817006111145,-6.580673694610596,2.06486439704895,4.017551422119141,0.297716349363327,0.3780202865600586,-0.5349520444869995,1.1058562994003296
383,47448,47444,0.01604553312063217,-0.02239673212170601,1.03654146194458,-4.664205074310303,-5.540512561798096,-6.8331193923950195,2.066354274749756,4.016542434692383,0.29738786816596985,0.38123494386672974,-0.6124101281166077,1.0416498184204102
384,47458,47454,-0.035280317068099976,0.10671550780534744,1.0572481155395508,-1.542335033416748,-6.091379642486572,-8.007424354553223,2.0674636363983154,4.016073703765869,0.2962377667427063,0.5241168141365051,-0.6606435775756836,0.9262453317642212
385,47468,47464,0.0029442186933010817,-0.021711193025112152,0.993139922618866,-0.45721009373664856,-7.548699378967285,-7.510477066040039,2.0663671493530273,4.014469146728516,0.2960398495197296,0.584587812423706,-0.6739173531532288,0.8296437859535217
386,47478,47474,0.03467616066336632,-0.05172998085618019,1.071221947669983,4.659011363983154,2.6204028129577637,-9.023855209350586,2.06646728515625,4.012921333312988,0.29584193229675293,0.6627746820449829,-0.5488669872283936,0.7400711178779602
387,47488,47484,-0.006182192359119654,0.03863097354769707,1.0446155071258545,4.952322006225586,8.944525718688965,-9.875699996948242,2.065842390060425,4.01129150390625,0.2967281639575958,0.6809658408164978,-0.5797492265701294,0.5969900488853455
388,47498,47494,-0.01715344749391079,-0.03442217782139778,1.0091253519058228,0.6207478046417236,13.825003623962402,-9.136975288391113,2.0663766860961914,4.0115885734558105,0.2966980040073395,0.5982655882835388,-0.5306350588798523,0.4265870153903961
389,47508,47504,0.009332380257546902,0.041939057409763336,1.00982666015625,-5.525965690612793,12.569648742675781,-8.415565490722656,2.066537857055664,4.00929594039917,0.29650524258613586,0.39585161209106445,-0.5542876124382019,0.32144948840141296
390,47518,47514,-0.05160880088806152,0.023836730048060417,1.0005229711532593,-8.332982063293457,9.242159843444824,-6.966153144836426,2.0654008388519287,4.0080366134643555,0.2965874969959259,0.29141736030578613,-0.6683070659637451,0.1478433609008789
391,47528,47524,0.015505854040384293,0.05579093471169472,1.0127753019332886,-5.499422073364258,4.063168525695801,-4.16588020324707,2.0652449131011963,4.008909702301025,0.2965753376483917,0.24752438068389893,-0.8939548134803772,0.13605356216430664
392,47538,47534,0.002992760855704546,0.009207024239003658,1.0399519205093384,1.4293148517608643,-1.9685755968093872,-2.4123589992523193,2.064544200897217,4.0081987380981445,0.2966146171092987,0.3017791509628296,-0.897797167301178,0.07118325680494308
393,47548,47544,0.05925803631544113,-0.04662702605128288,1.0010108947753906,10.012465476989746,-4.087604999542236,0.015206931158900261,2.065939426422119,4.008068561553955,0.2960011959075928,0.3834312856197357,-0.7933562994003296,0.006854164879769087
394,47558,47554,-0.01698143221437931,-0.05234050378203392,1.0140154361724854,14.012175559997559,-4.906790256500244,1.621558666229248,2.0656001567840576,4.006221294403076,0.29608649015426636,0.42663708329200745,-0.6932896971702576,-0.027954719960689545
395,47568,47564,-0.00019349499780219048,0.009861599653959274,1.0051829814910889,13.094529151916504,-1.895064115524292,3.779686689376831,2.066756010055542,4.005047798156738,0.2960478365421295,0.35882365703582764,-0.4637015163898468,-0.0011115808738395572
396,47578,47574,-0.03464078530669212,0.07686987519264221,1.040188193321228,7.895627975463867,2.014427900314331,4.440288543701172,2.066898822784424,4.0051140785217285,0.2960541546344757,0.4186086654663086,-0.4116266667842865,0.024153385311365128
397,47588,47584,-0.001646505668759346,-0.059450894594192505,0.9971007108688354,1.9734771251678467,6.037678241729736,4.942202091217041,2.068246841430664,4.005234241485596,0.2956562936306,0.301003098487854,-0.45434367656707764,0.055483438074588776
398,47598,47594,0.05304104462265968,-0.18196547031402588,0.9917020797729492,-2.0575473308563232,7.693417072296143,5.188951015472412,2.0693929195404053,4.00539493560791,0.295642614364624,0.20401716232299805,-0.43146535754203796,0.09668608009815216
399,47608,47604,0.009293794631958008,-0.19010525941848755,1.046755075454712,-0.9810357689857483,6.606868743896484,6.137288570404053,2.0695505142211914,4.005373954772949,0.29567286372184753,0.13440720736980438,-0.46682611107826233,0.15515296161174774
400,47618,47614,0.033273641020059586,-0.07376463711261749,0.9589840173721313,2.5172629356384277,5.480512619018555,6.562434196472168,2.0705320835113525,4.005082130432129,0.29613232612609863,0.0659799799323082,-0.4762258529663086,0.1631702184677124
401,47628,47624,-0.03420637175440788,0.04267272725701332,1.0715867280960083,6.7607421875,1.6617507934570312,7.605063438415527,2.0709714889526367,4.005127429962158,0.2962406873703003,0.06982257962226868,-0.49459871649742126,0.24070687592029572
402,47638,47634,-0.003189992858096957,-0.12488218396902084,1.0258830785751343,12.058722496032715,0.1376446634531021,8.601204872131348,2.070500135421753,4.003507614135742,0.2963505685329437,0.1334247589111328,-0.4293997585773468,0.22723866999149323
403,47648,47644,0.027032462880015373,0.0520913302898407,1.005983591079712,15.005441665649414,-1.7853076457977295,10.030309677124023,2.0718233585357666,4.003255844116211,0.2948300838470459,0.038049113005399704,-0.2715333104133606,0.3192833960056305
404,47658,47654,-0.09642014652490616,0.08942176401615143,1.147270917892456,16.89875602722168,-3.977152109146118,11.002678871154785,2.0723073482513428,4.001224994659424,0.29480233788490295,0.012737221084535122,-0.07688485085964203,0.3662581741809845
405,47668,47664,-0.1388208121061325,0.07226349413394928,1.0749698877334595,13.558051109313965,-0.21129034459590912,12.015901565551758,2.0722289085388184,4.000978469848633,0.2950628101825714,0.1028224378824234,0.07772134989500046,0.3691388964653015
406,47678,47674,-0.05893523246049881,0.18012259900569916,1.0179872512817383,4.321857929229736,-1.9826091527938843,11.720416069030762,2.072093963623047,4.000391960144043,0.29523220658302307,0.11348066478967667,0.19499899446964264,0.5469734072685242
407,47688,47684,-0.02971869520843029,0.11826016008853912,1.0405573844909668,-5.791912078857422,-5.366949081420898,11.057161331176758,2.0725417137145996,4.001780986785889,0.2947573959827423,0.1694074273109436,0.09260284900665283,0.6538380980491638
408,47698,47694,-0.07515925168991089,0.06790898740291595,1.0392112731933594,-13.41142463684082,-9.399633407592773,10.35265827178955,2.0717999935150146,4.002281188964844,0.29511138796806335,0.3660429120063782,-0.007208956405520439,0.7672370672225952
409,47708,47704,-0.09377231448888779,0.08608453720808029,1.000714898109436,-15.330933570861816,-11.184727668762207,10.687788963317871,2.0726706981658936,4.001622200012207,0.2953980565071106,0.45849013328552246,-0.13433530926704407,0.8465421199798584
410,47718,47714,-0.048077940940856934,0.2053779661655426,1.0283761024475098,-12.298550605773926,-8.515247344970703,10.756422996520996,2.074553966522217,4.003183364868164,0.29377368092536926,0.34047192335128784,-0.36554259061813354,0.9185230135917664
411,47728,47724,-0.008065396919846535,0.2310294210910797,0.9640028476715088,-2.680992603302002,-3.725428819656372,10.616251945495605,2.074380874633789,4.002559185028076,0.29387378692626953,0.39838656783103943,-0.5227062702178955,1.045892596244812
412,47738,47734,0.030662216246128082,0.10203550010919571,0.9501321315765381,9.044046401977539,-2.33406400680542,12.3778657913208,2.07442307472229,4.0023064613342285,0.29408320784568787,0.512849748134613,-0.3943532407283783,1.161201000213623
413,47748,47744,-0.030411722138524055,0.04124259948730469,0.9114862084388733,15.270574569702148,0.5002229809761047,12.879023551940918,2.0746920108795166,4.0022969245910645,0.2942439615726471,0.5260991454124451,-0.2976662218570709,1.2912695407867432
414,47758,47754,-0.006207322236150503,-0.06138724833726883,0.9378156065940857,13.818330764770508,3.159585475921631,12.415329933166504,2.074458122253418,4.001979827880859,0.2943391501903534,0.5230967402458191,-0.08868015557527542,1.4207255840301514
415,47768,47764,-0.0033456648234277964,-0.054012738168239594,1.0278807878494263,4.978341102600098,5.098384380340576,10.880326271057129,2.0769784450531006,4.004152774810791,0.29426395893096924,0.29261332750320435,-0.17018961906433105,1.5370535850524902
416,47778,47774,0.07733985781669617,-0.048207204788923264,1.046920895576477,-6.8170270919799805,3.051988124847412,7.943456649780273,2.076695680618286,4.003195285797119,0.29453545808792114,0.4453950822353363,-0.09450613707304001,1.6211438179016113
417,47788,47784,0.0732496827840805,-0.13927097618579865,0.9940636157989502,-16.270105361938477,1.9972997903823853,5.44531774520874,2.0768775939941406,4.003674030303955,0.294458270072937,0.39784449338912964,-0.2638275623321533,1.6559487581253052
418,47798,47794,0.02456711232662201,-0.12852619588375092,1.0636610984802246,-17.25369644165039,1.7493114471435547,3.4463746547698975,2.077300548553467,4.003936767578125,0.29456907510757446,0.372691810131073,-0.4314880967140198,1.7062385082244873
419,47808,47804,0.03801043704152107,-0.04268619418144226,1.0008858442306519,-12.150250434875488,4.3153510093688965,1.0019739866256714,2.0771427154541016,4.005057334899902,0.2946665287017822,0.3227091133594513,-0.6002405285835266,1.7884416580200195
420,47818,47814,0.005246560089290142,-0.04981018602848053,0.9899113774299622,-2.288424015045166,5.782074451446533,-1.267511010169983,2.0771820545196533,4.0045857429504395,0.29215916991233826,0.2671181857585907,-0.5733588337898254,1.8049004077911377
421,47828,47824,-0.0232233889400959,-0.028765615075826645,1.0272541046142578,9.271785736083984,8.56350040435791,-3.0294764041900635,2.0780515670776367,4.004457950592041,0.29212889075279236,0.22318653762340546,-0.48289477825164795,1.761472225189209
422,47838,47834,-0.011729182675480843,-0.003935354296118021,1.0467681884765625,18.395736694335938,11.532727241516113,-4.503197193145752,2.0780816078186035,4.003751277923584,0.29220908880233765,0.12646524608135223,-0.450479656457901,1.7302253246307373
423,47848,47844,0.00902059767395258,-0.046193525195121765,0.9773868918418884,21.727502822875977,13.248770713806152,-6.310998439788818,2.0782763957977295,4.004429817199707,0.29357850551605225,0.0039725154638290405,-0.25871264934539795,1.6809207201004028
424,47858,47854,0.019092924892902374,-0.03245304524898529,1.0438926219940186,22.206117630004883,11.159506797790527,-8.722393989562988,2.078972578048706,4.003756523132324,0.2937217354774475,-0.05024729296565056,0.011961406096816063,1.6065480709075928
425,47868,47864,0.0583164244890213,-0.04399798810482025,0.9033608436584473,17.647310256958008,10.835502624511719,-10.564482688903809,2.078711748123169,4.004227638244629,0.2939424216747284,-0.18254220485687256,0.07136853039264679,1.510564923286438
426,47878,47874,0.05911969393491745,-0.1381089836359024,0.9387389421463013,9.16049861907959,11.18507194519043,-12.484301567077637,2.0791406631469727,4.006396293640137,0.29186689853668213,-0.3303012549877167,0.346252977848053,1.4337371587753296
427,47888,47884,0.056285396218299866,-0.21289211511611938,1.0188575983047485,2.5951459407806396,10.019787788391113,-15.081768035888672,2.0798346996307373,4.006102085113525,0.29177799820899963,-0.43423253297805786,0.41658520698547363,1.2771987915039062
428,47898,47894,-0.007456385064870119,0.03792903572320938,1.0777091979980469,0.5144871473312378,9.087445259094238,-16.40128517150879,2.0796353816986084,4.006654739379883,0.2917988896369934,-0.5375917553901672,0.3805040419101715,1.1411694288253784
429,47908,47904,0.00992665160447359,0.026929570361971855,0.8833929300308228,1.2518302202224731,7.999912261962891,-17.191831588745117,2.079841136932373,4.00547981262207,0.2915933132171631,-0.6174749135971069,0.43551358580589294,0.921122133731842
430,47918,47914,-0.02752402052283287,0.04217007756233215,1.0254099369049072,5.647595405578613,8.315057754516602,-16.211532592773438,2.079482316970825,4.005610942840576,0.2903899848461151,-0.689911425113678,0.5275313854217529,0.7731359601020813
431,47928,47924,-0.00795386079698801,-0.06828775256872177,1.0473147630691528,10.58505916595459,7.866071701049805,-14.739883422851562,2.0795679092407227,4.005480766296387,0.29020002484321594,-0.7548790574073792,0.5939791798591614,0.62831050157547
432,47938,47934,-0.0439738966524601,-0.02269791252911091,1.1255345344543457,14.090120315551758,6.319549083709717,-13.265128135681152,2.07956600189209,4.005516052246094,0.28987324237823486,-0.7838841676712036,0.6201639175415039,0.41434305906295776
433,47948,47944,-0.03640149533748627,-0.032658904790878296,1.0831395387649536,14.601533889770508,5.963467121124268,-11.484968185424805,2.0799431800842285,4.005639553070068,0.29165059328079224,-0.7969363927841187,0.8995311856269836,0.32568949460983276
434,47958,47954,-0.027249624952673912,-0.004327978938817978,1.015845775604248,9.776859283447266,3.3779959678649902,-9.906939506530762,2.0787851810455322,4.003047943115234,0.291618287563324,-0.7287657260894775,0.9579265117645264,0.18064485490322113
435,47968,47964,0.03787408396601677,0.024401189759373665,0.9898747205734253,5.006619453430176,1.2357043027877808,-8.198848724365234,2.0787549018859863,4.004690170288086,0.29206714034080505,-0.7646417617797852,1.043641209602356,0.07416626811027527
436,47978,47974,-0.08943523466587067,0.07214424759149551,1.021697998046875,-2.4446887969970703,1.3671084642410278,-5.976795196533203,2.0793018341064453,4.004103183746338,0.2916361689567566,-0.8927454352378845,1.0457862615585327,-0.03650462254881859
437,47988,47984,0.0010962786618620157,-0.04908802732825279,0.9555225968360901,-5.849437713623047,-1.1751080751419067,-4.030739784240723,2.078937530517578,4.004087448120117,0.2919372618198395,-0.8612439632415771,0.9360846281051636,-0.18320727348327637
438,47998,47994,-0.0005029992898926139,0.06592631340026855,0.9568493366241455,-3.2979512214660645,-7.435457229614258,-2.273876667022705,2.0785324573516846,4.003844261169434,0.2919371724128723,-0.8538098931312561,0.8754832148551941,-0.19070327281951904
439,48008,48004,0.023172222077846527,-0.01934843137860298,0.9714280366897583,0.5364154577255249,-14.662187576293945,-0.31066399812698364,2.0790505409240723,4.003747463226318,0.2921229898929596,-0.7118743658065796,0.8603161573410034,-0.1725568324327469
440,48018,48014,-0.03571637347340584,0.01922919973731041,1.0517704486846924,0.6622812747955322,-16.98027801513672,2.170344591140747,2.0789003372192383,4.004927635192871,0.29250022768974304,-0.5384075045585632,0.8958621621131897,-0.14476652443408966
441,48028,48024,0.022959016263484955,-0.09781717509031296,1.0394333600997925,-2.38769793510437,-12.799546241760254,3.18322491645813,2.08038592338562,4.005433559417725,0.29271426796913147,-0.4194867014884949,0.9190991520881653,-0.10048086196184158
442,48038,48034,-0.007971732877194881,-0.07906059920787811,1.0871793031692505,-3.3436434268951416,-5.719034194946289,2.90090012550354,2.0796847343444824,4.0056986808776855,0.29276925325393677,-0.20724669098854065,0.8969674110412598,-0.09273125231266022
443,48048,48044,-0.008053099736571312,-0.1549026221036911,1.0165140628814697,-4.742279052734375,-0.26590827107429504,2.844487428665161,2.0814342498779297,4.0053911209106445,0.2922724187374115,-0.3031570613384247,0.84959876537323,-0.0651051327586174
444,48058,48054,-0.005975620821118355,-0.02768068015575409,0.9921163320541382,-8.314977645874023,5.194598197937012,3.3148820400238037,2.081021308898926,4.005624771118164,0.29255345463752747,-0.24118229746818542,0.776533842086792,-0.01940743811428547
445,48068,48064,0.014049392193555832,-0.033748988062143326,0.9924851059913635,-10.822964668273926,7.38076114654541,4.01083517074585,2.082339286804199,4.006194114685059,0.2927975356578827,-0.4274333417415619,0.6384809017181396,-0.005427222233265638
446,48078,48074,0.05320977792143822,0.01019086129963398,0.9559444785118103,-8.937325477600098,4.710785388946533,4.438170909881592,2.0838840007781982,4.0064616203308105,0.2942359149456024,-0.6261503100395203,0.48057880997657776,0.02236502431333065
447,48088,48084,0.019244331866502762,0.0507841631770134,1.0229005813598633,-5.835339069366455,1.334721565246582,4.7852559089660645,2.0842134952545166,4.006103992462158,0.2945879101753235,-0.6037749648094177,0.4352976679801941,-0.046222105622291565
448,48098,48094,-0.0163306575268507,-0.02717406116425991,1.0212674140930176,-1.5578765869140625,-3.137734889984131,6.590484142303467,2.0839755535125732,4.004344463348389,0.2948077917098999,-0.5871700644493103,0.37494826316833496,0.011446156539022923
449,48108,48104,0.025116007775068283,0.008181941695511341,1.004543662071228,2.0997154712677,-5.245497703552246,6.922093868255615,2.083616256713867,4.0043044090271,0.2952239215373993,-0.4196036159992218,0.3783334493637085,0.062334395945072174
450,48118,48114,-0.007233514916151762,0.05326540768146515,1.000378966331482,4.161133766174316,-9.97532844543457,6.390580177307129,2.0850870609283447,4.003713607788086,0.29469382762908936,-0.3494347631931305,0.5238255262374878,0.15794715285301208
451,48128,48124,-0.023801499977707863,0.01574501395225525,1.0098443031311035,2.9743363857269287,-6.529634475708008,5.147672653198242,2.085843324661255,4.003233432769775,0.29524585604667664,-0.1850166767835617,0.596354067325592,0.2220378965139389
452,48138,48134,-0.02209213562309742,-0.0018305390840396285,0.9792975187301636,2.1631264686584473,-2.0698139667510986,2.483745574951172,2.0848474502563477,4.003236770629883,0.2953033745288849,-0.02086990512907505,0.6407731175422668,0.17741425335407257
453,48148,48144,0.02474534511566162,-0.12724719941616058,0.9705456495285034,0.1881946325302124,1.2699170112609863,1.065239429473877,2.085620403289795,4.00093936920166,0.2989901900291443,-0.1572474092245102,0.6663481593132019,0.1861603707075119
454,48158,48154,-0.01410407293587923,-0.016877004876732826,1.0498857498168945,-1.8954466581344604,3.9466984272003174,-0.5057994723320007,2.086496353149414,4.000998020172119,0.29947713017463684,-0.1885836273431778,0.6624386310577393,0.15361416339874268
455,48168,48164,-0.02587602473795414,0.018361413851380348,1.002988338470459,-2.8727176189422607,2.4444828033447266,-2.0193982124328613,2.0871424674987793,3.9997968673706055,0.29999786615371704,-0.1690114140510559,0.6980615258216858,0.15652278065681458
456,48178,48174,-0.10255251079797745,0.07761361449956894,0.9951229691505432,-3.1239283084869385,3.8160552978515625,-2.6673424243927,2.0884838104248047,3.9993960857391357,0.29899099469184875,-0.3005751967430115,0.6351293325424194,0.09559468179941177
457,48188,48184,-0.102630116045475,0.07683443278074265,1.02688467502594,-4.457949638366699,3.120614528656006,-2.9617483615875244,2.0887908935546875,3.9995980262756348,0.29946115612983704,-0.2697451114654541,0.5653745532035828,0.06566518545150757
458,48198,48194,-0.012057480402290821,0.005820717196911573,1.0430421829223633,-5.744119167327881,-0.025773093104362488,-3.4722673892974854,2.089240312576294,3.9997522830963135,0.29998666048049927,-0.21335287392139435,0.4779106676578522,0.025841297581791878
459,48208,48204,-0.0002139038551831618,0.03621404245495796,1.1158413887023926,-6.332582950592041,1.3762925863265991,-3.7715282440185547,2.0897648334503174,3.9993300437927246,0.3004550635814667,-0.20968888700008392,0.4526410400867462,0.011710414662957191
460,48218,48214,-0.017408914864063263,-0.028834255412220955,1.0333179235458374,-5.051693439483643,0.9672390222549438,-3.466172695159912,2.0899112224578857,3.999767780303955,0.3009490668773651,-0.23303747177124023,0.3390810787677765,-0.02770714834332466
461,48228,48224,-0.03018903359770775,-0.017162121832370758,1.023870587348938,-1.6797510385513306,0.8686198592185974,-2.954516887664795,2.0903499126434326,3.9997758865356445,0.30154961347579956,-0.25070643424987793,0.25622525811195374,-0.07042358815670013
462,48238,48234,-0.0024540452286601067,-0.04554440453648567,0.9673126339912415,3.1857717037200928,-1.6946427822113037,-2.4080581665039062,2.09120512008667,3.9998676776885986,0.30219414830207825,-0.2522454261779785,0.24204793572425842,-0.09917078912258148
463,48248,48244,-0.0020631456281989813,-0.05910312756896019,0.9887000918388367,4.8337836265563965,-0.6174759864807129,-2.0664021968841553,2.091840982437134,3.9991393089294434,0.3019097149372101,-0.2420772910118103,0.300555944442749,-0.1635625809431076
464,48258,48254,-0.11299477517604828,0.09280964732170105,1.05631685256958,3.0994982719421387,-3.0220699310302734,-1.9425811767578125,2.0922224521636963,3.9977364540100098,0.3025345206260681,-0.18558187782764435,0.45830273628234863,-0.2409382462501526
465,48268,48264,-0.08263852447271347,0.06620273739099503,1.0067634582519531,-1.655892252922058,6.064199447631836,-1.830546498298645,2.0924434661865234,3.9973721504211426,0.3031959533691406,-0.09872841089963913,0.4785192906856537,-0.2294589877128601
466,48278,48274,-0.037259791046381,0.12417121231555939,0.9812407493591309,-6.4916276931762695,11.541563987731934,-1.5718811750411987,2.0942835807800293,3.996748924255371,0.30319103598594666,-0.3091042637825012,0.4176369607448578,-0.3053663969039917
467,48288,48284,-0.008469987660646439,0.01922750659286976,0.9409095644950867,-11.304476737976074,14.558424949645996,-1.791852355003357,2.094219923019409,3.9961998462677,0.3038635849952698,-0.35601210594177246,0.3546280562877655,-0.3280251622200012
468,48298,48294,-0.01767331175506115,0.09748661518096924,0.9301592111587524,-12.311687469482422,14.83001708984375,-2.590700387954712,2.0951383113861084,3.995431423187256,0.30442285537719727,-0.5396461486816406,0.21523714065551758,-0.38207611441612244
469,48308,48304,-0.013673163019120693,0.07501796633005142,0.9325070977210999,-10.705389022827148,15.611570358276367,-2.597231864929199,2.0956952571868896,3.9948155879974365,0.3081928491592407,-0.7028359174728394,0.1414581835269928,-0.46364763379096985
470,48318,48314,-0.025525683537125587,0.09238609671592712,0.9855446815490723,-4.6891655921936035,7.755916595458984,-1.7195782661437988,2.0955049991607666,3.994274854660034,0.30906766653060913,-0.676177978515625,-0.03774365037679672,-0.4871915578842163
471,48328,48324,-0.09609709680080414,0.058500707149505615,1.073822259902954,-2.3311100006103516,5.25832986831665,-2.0603764057159424,2.0968661308288574,3.9940829277038574,0.30967527627944946,-0.7802799940109253,-0.038304343819618225,-0.510944664478302
472,48338,48334,-0.1366882175207138,0.06269077956676483,1.086105227470398,-2.537273645401001,1.3851816654205322,-2.3586056232452393,2.096222162246704,3.9939188957214355,0.31044596433639526,-0.6753214597702026,-0.08756958693265915,-0.5397694706916809
473,48348,48344,-0.08748943358659744,0.04662730172276497,1.0147876739501953,-2.4908125400543213,1.558029055595398,-3.5500717163085938,2.0964133739471436,3.992763042449951,0.3100641071796417,-0.6431666612625122,-0.06910554319620132,-0.5837470889091492
474,48358,48354,-0.035327889025211334,0.01677764393389225,0.9191451072692871,-0.5529103875160217,-0.12058266252279282,-4.32648229598999,2.0973589420318604,3.993246555328369,0.31072109937667847,-0.6819630861282349,-0.12041657418012619,-0.6307478547096252
475,48368,48364,-0.09912692755460739,0.09840033203363419,0.9477699995040894,-0.14480842649936676,0.1370154321193695,-4.889729022979736,2.0979580879211426,3.992921829223633,0.3113795816898346,-0.68978351354599,-0.06139865517616272,-0.6446457505226135
476,48378,48374,-0.09796730428934097,0.09066994488239288,0.9530168771743774,-0.8543275594711304,0.2525786757469177,-4.953028678894043,2.0989203453063965,3.9925878047943115,0.30894240736961365,-0.69016033411026,-0.08412929624319077,-0.7236766815185547
477,48388,48384,-0.10322654992341995,0.08012509346008301,0.953798234462738,-1.7003378868103027,-0.7073992490768433,-4.306236267089844,2.0989692211151123,3.9925012588500977,0.3093576729297638,-0.6108909845352173,-0.12048252671957016,-0.7826807498931885
478,48398,48394,-0.1017722561955452,0.08006492257118225,0.9555816650390625,-3.0146684646606445,-0.365728497505188,-4.435781002044678,2.0990052223205566,3.9918344020843506,0.3097359240055084,-0.5245927572250366,-0.17188501358032227,-0.8773128390312195
479,48408,48404,-0.0960492491722107,0.08938083052635193,0.961788535118103,-2.3339648246765137,0.5654502511024475,-3.4560532569885254,2.098851203918457,3.9918224811553955,0.3093845844268799,-0.4425341784954071,-0.2373332679271698,-0.9759169220924377
480,48418,48414,-0.09601012617349625,0.10014782845973969,0.9760709404945374,0.45265886187553406,3.299577474594116,-2.950350284576416,2.0993356704711914,3.991338014602661,0.30961379408836365,-0.4627164900302887,-0.19598640501499176,-0.953464686870575
481,48428,48424,-0.06589367985725403,-0.04360644891858101,0.986316978931427,2.307037353515625,4.466911315917969,-3.449592113494873,2.099522113800049,3.9906344413757324,0.30982714891433716,-0.48391470313072205,-0.19317027926445007,-0.9735798835754395
