,timestamp_start,timestamp_end,acc.x,acc.y,acc.z,gyro.x,gyro.y,gyro.z,stateEstimate.x,stateEstimate.y,stateEstimate.z,stabilizer.pitch,stabilizer.roll,stabilizer.yaw
0,36908,36892,-0.0602249875664711,0.5056972503662109,1.0177228450775146,28.491193771362305,-22.835308074951172,-7.19979190826416,1.8087029457092285,3.822221279144287,0.16299453377723694,-1.538090467453003,0.9489614367485046,3.0569026470184326
1,36918,36902,-0.025748947635293007,0.2223658263683319,0.8860991597175598,21.581010818481445,-17.881912231445312,-5.8628363609313965,1.8100641965866089,3.8278183937072754,0.16599150002002716,-1.5386993885040283,1.3357200622558594,2.963913917541504
2,36928,36912,-0.017287179827690125,-0.1610998660326004,0.8681906461715698,5.978847980499268,-13.046152114868164,-6.483615875244141,1.8133518695831299,3.8300681114196777,0.16493821144104004,-1.4369149208068848,1.3539313077926636,2.8276686668395996
3,36938,36922,0.032826680690050125,-0.09486345946788788,0.9690178036689758,-3.719045639038086,-18.304807662963867,-7.0503997802734375,1.8149739503860474,3.8302767276763916,0.1663174033164978,-1.3316954374313354,1.47701096534729,2.7584781646728516
4,36948,36932,-0.1451611965894699,0.1271105855703354,1.0127145051956177,-8.171804428100586,-23.638931274414062,-6.182494640350342,1.8163906335830688,3.832212209701538,0.1681930273771286,-1.2477256059646606,1.522376537322998,2.6798784732818604
5,36958,36942,0.0736585333943367,-0.020335271954536438,0.85384601354599,-8.282792091369629,-29.359905242919922,-5.990230560302734,1.817516565322876,3.8352138996124268,0.16890685260295868,-1.1885559558868408,1.4743258953094482,2.5819320678710938
6,36968,36952,0.01254807785153389,-0.034402474761009216,0.9016685485839844,-6.325666427612305,-34.77933120727539,-5.454700946807861,1.8197613954544067,3.8355796337127686,0.1704476773738861,-1.0258132219314575,1.4743337631225586,2.506352186203003
7,36978,36962,0.02070709690451622,0.17384053766727448,0.9372122883796692,-0.2616226077079773,-36.50403594970703,-4.87951135635376,1.8214324712753296,3.8373806476593018,0.17155732214450836,-0.9470251202583313,1.4221434593200684,2.3890204429626465
8,36988,36972,0.0333070233464241,0.1797965168952942,1.0535095930099487,3.62758469581604,-40.9661750793457,-2.806009292602539,1.8238699436187744,3.837181806564331,0.17240943014621735,-0.4390765428543091,1.4640718698501587,2.379922866821289
9,36998,36982,0.03941408544778824,1.0243204832077026,1.0441975593566895,4.0884108543396,-38.283409118652344,-3.9878957271575928,1.8267195224761963,3.837303400039673,0.1732001006603241,-0.26398321986198425,1.554539442062378,2.2859396934509277
10,37008,36992,0.009416336193680763,1.2487438917160034,1.0510451793670654,1.0062586069107056,-34.419219970703125,-3.5743675231933594,1.827224612236023,3.8358685970306396,0.1754826009273529,0.26104244589805603,1.6154695749282837,2.277907609939575
11,37018,37002,-0.044578567147254944,0.4493868350982666,1.0404682159423828,-2.494136333465576,-30.6182918548584,-4.066639423370361,1.8298901319503784,3.834333658218384,0.17631426453590393,0.7768885493278503,1.62166428565979,2.276677370071411
12,37028,37012,-0.06867366284132004,-0.04920905828475952,1.0324357748031616,-7.7472052574157715,-27.626699447631836,-4.06441593170166,1.8309060335159302,3.83518648147583,0.17822223901748657,0.6629679799079895,1.5703849792480469,2.1199841499328613
13,37038,37022,0.07115232199430466,-0.10112396627664566,1.0055596828460693,-12.027327537536621,-24.091720581054688,-3.3371429443359375,1.8304595947265625,3.835416316986084,0.18026103079319,1.1551374197006226,1.5798707008361816,2.130265474319458
14,37048,37032,0.19188982248306274,-0.1515321135520935,0.9255477786064148,-15.082189559936523,-22.689525604248047,-3.1341302394866943,1.8343276977539062,3.834876298904419,0.18163424730300903,1.104589819908142,1.3595000505447388,2.0150585174560547
15,37058,37042,0.08584378659725189,-0.1665337085723877,0.9662615656852722,-13.821154594421387,-22.469871520996094,-2.2922141551971436,1.8341212272644043,3.8329498767852783,0.18387432396411896,1.5050156116485596,1.2661750316619873,2.026674270629883
16,37068,37052,0.16131806373596191,-0.31900554895401,0.8191803693771362,-10.484681129455566,-24.236494064331055,-2.288052558898926,1.836260437965393,3.831509590148926,0.1852811723947525,1.9729572534561157,1.1226845979690552,2.067082405090332
17,37078,37062,0.042171310633420944,-0.13858895003795624,0.9664220213890076,-5.690316200256348,-21.04545021057129,-2.183483123779297,1.8365694284439087,3.8310980796813965,0.18736249208450317,1.9723691940307617,1.0305413007736206,1.984544038772583
18,37088,37072,0.08343038707971573,-0.20574545860290527,0.9165078997612,-3.0464093685150146,-20.08550262451172,-1.0347052812576294,1.83467435836792,3.8308560848236084,0.1875920295715332,2.4838178157806396,1.0589547157287598,2.0057716369628906
19,37098,37082,0.005334639921784401,-0.15279795229434967,0.9432535171508789,-1.0694371461868286,-15.226273536682129,-1.5804884433746338,1.8375860452651978,3.8308563232421875,0.18904034793376923,2.3646554946899414,1.2079280614852905,1.877001404762268
20,37108,37092,0.11371771991252899,-0.1079743281006813,0.9120474457740784,-4.834795951843262,-9.276477813720703,-0.46120548248291016,1.8347947597503662,3.827651023864746,0.19063086807727814,2.6632068157196045,1.1224827766418457,1.9156972169876099
21,37118,37102,0.037947990000247955,-0.194055438041687,0.9547062516212463,-8.654610633850098,-7.870949745178223,-0.44073712825775146,1.8377265930175781,3.8249595165252686,0.19330939650535583,2.7632503509521484,0.9793905019760132,1.9439908266067505
22,37128,37112,0.11117520928382874,-0.14051185548305511,0.9052507281303406,-12.545716285705566,-3.1834123134613037,-1.7377837896347046,1.837984323501587,3.825115442276001,0.19489261507987976,2.9824063777923584,1.005107045173645,1.9331504106521606
23,37138,37122,0.01527336984872818,-0.12502247095108032,0.9641803503036499,-16.777088165283203,-2.333678960800171,-2.0584847927093506,1.8392494916915894,3.8249733448028564,0.19632083177566528,3.1156837940216064,0.8725950121879578,1.9409931898117065
24,37148,37132,0.06553825736045837,-0.23355865478515625,0.8804053664207458,-19.823646545410156,-0.5220868587493896,-1.9065498113632202,1.8390331268310547,3.8240442276000977,0.19753800332546234,3.2255961894989014,0.746179461479187,1.923551082611084
25,37158,37142,0.03919914737343788,-0.1968950629234314,0.9454799294471741,-14.790013313293457,6.26410436630249,-1.197619080543518,1.8391481637954712,3.824963331222534,0.19728583097457886,3.1424176692962646,0.44073960185050964,1.9534169435501099
26,37168,37152,0.01826840080320835,-0.19573359191417694,0.9669701457023621,-14.261666297912598,10.235896110534668,-1.514624834060669,1.8390611410140991,3.824674367904663,0.19821390509605408,2.8627562522888184,0.34242507815361023,1.8785709142684937
27,37178,37162,0.0220782570540905,-0.13117758929729462,0.8855971097946167,-13.5332670211792,12.557055473327637,-1.37890625,1.8408904075622559,3.8283815383911133,0.19937387108802795,2.847346782684326,0.33943578600883484,1.8100271224975586
28,37188,37172,0.01934538036584854,-0.21962571144104004,0.9031789898872375,-14.687716484069824,13.092103004455566,-0.8624666929244995,1.843777060508728,3.827488422393799,0.20390218496322632,2.7476165294647217,0.1036875993013382,1.8484708070755005
29,37198,37182,0.04603496566414833,-0.00904504768550396,1.038640022277832,-15.174461364746094,8.637771606445312,0.5246971845626831,1.8444632291793823,3.827033519744873,0.20493793487548828,2.6986093521118164,-0.06978768855333328,1.8621039390563965
30,37208,37192,0.0023485617712140083,0.02293073758482933,0.9914861917495728,-15.326031684875488,4.650042533874512,0.0031996951438486576,1.8445603847503662,3.825979709625244,0.20604418218135834,2.62172794342041,-0.08765123784542084,1.8014190196990967
31,37218,37202,0.10952061414718628,-0.07069725543260574,0.9185846447944641,-14.562743186950684,3.646728038787842,-0.6983067393302917,1.8436110019683838,3.8256068229675293,0.20913460850715637,2.594531536102295,-0.2702840566635132,1.827107310295105
32,37228,37212,0.022769000381231308,-0.07055354863405228,0.9697915315628052,-11.40733528137207,-1.9016821384429932,1.5581955909729004,1.8441588878631592,3.82517671585083,0.21022149920463562,2.7544796466827393,-0.5047917366027832,1.882702112197876
33,37238,37222,-0.05261046066880226,0.06627430766820908,1.0923494100570679,-8.70046329498291,-1.939266562461853,2.47143292427063,1.8451820611953735,3.8296971321105957,0.21135754883289337,2.8064489364624023,-0.6126378774642944,1.8881886005401611
34,37248,37232,0.0072935172356665134,0.11190137267112732,1.112578272819519,-5.465501308441162,3.725404739379883,2.2917678356170654,1.842887043952942,3.8299763202667236,0.2125500738620758,2.830801248550415,-0.7375056147575378,1.9286783933639526
35,37258,37242,0.020493119955062866,0.021269172430038452,1.0480751991271973,-2.2668328285217285,8.006265640258789,3.208813190460205,1.8427389860153198,3.828228235244751,0.21632754802703857,2.912994146347046,-0.7989881634712219,1.9468904733657837
36,37268,37252,0.012122333981096745,-0.007441055960953236,1.0451929569244385,0.8488203883171082,12.432368278503418,3.7719311714172363,1.8426148891448975,3.8285229206085205,0.21777236461639404,2.9340085983276367,-0.8121533393859863,1.9668828248977661
37,37278,37262,-0.09006483107805252,-0.02632461115717888,1.0185389518737793,2.8068361282348633,19.84003448486328,4.308963775634766,1.8410308361053467,3.827040910720825,0.21913251280784607,2.704455614089966,-0.8587191104888916,2.0391573905944824
38,37288,37272,-0.07258627563714981,0.03598242998123169,1.1049091815948486,1.9984205961227417,26.241748809814453,3.0718436241149902,1.8399029970169067,3.8268089294433594,0.22215566039085388,2.3664886951446533,-0.8584950566291809,2.1051414012908936
39,37298,37282,-0.06866823881864548,-0.05106235668063164,1.03910231590271,0.18455670773983002,27.82878303527832,3.4601211547851562,1.841270923614502,3.828148365020752,0.22406387329101562,2.2156949043273926,-0.8677945733070374,2.147913694381714
40,37308,37292,-0.00987163558602333,-0.03493037819862366,0.9677461385726929,-3.2182061672210693,24.742366790771484,3.5716817378997803,1.8423724174499512,3.8302392959594727,0.22598668932914734,2.11500883102417,-0.7569715976715088,2.1267764568328857
41,37318,37302,-0.015423008240759373,0.020365342497825623,0.9408559203147888,-5.022842884063721,19.47193145751953,4.216403484344482,1.8413902521133423,3.830536127090454,0.22960150241851807,2.0748064517974854,-0.8564156293869019,2.176987409591675
42,37328,37312,-0.0588696226477623,-0.03928253799676895,0.9471651315689087,-5.936807632446289,14.986438751220703,3.8882784843444824,1.8406040668487549,3.8332765102386475,0.23139728605747223,1.866782784461975,-0.8346549272537231,2.2023067474365234
43,37338,37322,-0.038080908358097076,-0.04533988982439041,1.0298393964767456,-5.389161586761475,15.164498329162598,3.632558584213257,1.838120698928833,3.832275867462158,0.23303404450416565,1.565348744392395,-0.9627205729484558,2.2881805896759033
44,37348,37332,0.06412068754434586,-0.2975069582462311,0.8861254453659058,-3.6577861309051514,16.388351440429688,3.2892909049987793,1.8376635313034058,3.832967519760132,0.23492422699928284,1.6978075504302979,-0.9062463045120239,2.2597038745880127
45,37358,37342,0.03011479601264,-0.26017552614212036,0.8288213014602661,-0.4669964611530304,18.652721405029297,3.368731737136841,1.8374223709106445,3.8335330486297607,0.23756448924541473,1.5430384874343872,-0.9821199774742126,2.3027267456054688
46,37368,37352,0.03200797736644745,-0.17936968803405762,0.9043700098991394,0.49034836888313293,21.009044647216797,3.4372851848602295,1.8338406085968018,3.8310656547546387,0.23904170095920563,1.4625171422958374,-1.0082072019577026,2.3336589336395264
47,37378,37362,-0.005379241891205311,-0.10456729680299759,0.9355732798576355,1.4367425441741943,27.240659713745117,3.2502505779266357,1.8325971364974976,3.8311402797698975,0.2405606061220169,1.1149709224700928,-1.0114467144012451,2.39648175239563
48,37388,37372,0.08921630680561066,-0.12815378606319427,0.8753659725189209,0.7962360978126526,28.560701370239258,3.1331100463867188,1.8300726413726807,3.8287158012390137,0.24345868825912476,0.7172449231147766,-1.0004029273986816,2.4451115131378174
49,37398,37382,0.03965926170349121,-0.06756086647510529,0.9477653503417969,2.35363507270813,25.514503479003906,3.1204185485839844,1.829768180847168,3.8300693035125732,0.2451539784669876,0.6595422625541687,-0.9981579184532166,2.4438371658325195
50,37408,37392,-0.09392767399549484,0.28771916031837463,0.9914855360984802,2.291095733642578,21.932119369506836,2.835817337036133,1.8298003673553467,3.8307042121887207,0.24665437638759613,0.3138493597507477,-0.9885658025741577,2.4888439178466797
51,37418,37402,-0.22665166854858398,0.8928595185279846,1.1290709972381592,0.5421067476272583,16.222797393798828,2.19759464263916,1.8274800777435303,3.8312532901763916,0.24775061011314392,0.16803106665611267,-1.0552589893341064,2.5093801021575928
52,37428,37412,-0.32683295011520386,1.0568240880966187,1.1532137393951416,2.8461952209472656,13.909008026123047,3.2796435356140137,1.8281680345535278,3.8308019638061523,0.2492789775133133,-0.2141152024269104,-1.0353695154190063,2.560870409011841
53,37438,37422,-0.1621922254562378,0.501075029373169,1.0484144687652588,4.747066974639893,11.292025566101074,2.7792391777038574,1.8263949155807495,3.8303816318511963,0.25080251693725586,0.012677972204983234,-1.0466923713684082,2.5358827114105225
54,37448,37432,-0.06021394953131676,0.4179218113422394,0.9670019745826721,6.46959924697876,6.997101306915283,3.14485239982605,1.8272920846939087,3.830078601837158,0.25253814458847046,-0.13241906464099884,-0.9529511332511902,2.566742420196533
55,37458,37442,0.05262068286538124,0.020787594839930534,0.8912577033042908,9.079444885253906,6.791200637817383,3.01456356048584,1.8224327564239502,3.8306264877319336,0.25357338786125183,-0.25779038667678833,-1.0828946828842163,2.602113723754883
56,37468,37452,0.047391440719366074,-0.08890405297279358,0.937854528427124,8.70429801940918,7.3196516036987305,3.075810432434082,1.8210222721099854,3.8303186893463135,0.25512754917144775,-0.3603641092777252,-0.9184198379516602,2.6317098140716553
57,37478,37462,-0.03887016698718071,0.04926566779613495,1.0246559381484985,8.852744102478027,10.1134614944458,1.651168942451477,1.8210502862930298,3.8334908485412598,0.2565383017063141,-0.49503475427627563,-0.741559624671936,2.6700942516326904
58,37488,37472,0.11307564377784729,-0.14556194841861725,0.843238353729248,6.573880672454834,11.851853370666504,0.7788543105125427,1.8202341794967651,3.8330891132354736,0.2559782564640045,-0.6338618397712708,-0.7343475222587585,2.6850407123565674
59,37498,37482,0.04777631536126137,0.8406620621681213,0.9387838244438171,3.8529505729675293,4.835452079772949,-0.0180683434009552,1.8201807737350464,3.8330399990081787,0.2572360932826996,-0.5433048605918884,-0.5570446252822876,2.6772618293762207
60,37508,37492,-0.07839842885732651,0.5770273804664612,0.995963454246521,5.468282222747803,14.282686233520508,1.0409635305404663,1.81917142868042,3.833038806915283,0.25834882259368896,-0.8052401542663574,-0.464115709066391,2.710966110229492
61,37518,37502,-0.17097187042236328,0.2257852554321289,0.9876105189323425,3.273871660232544,15.280265808105469,0.9866071939468384,1.8169137239456177,3.833322048187256,0.26101505756378174,-0.9859756231307983,-0.44533291459083557,2.7217214107513428
62,37528,37512,0.052146922796964645,0.3464411795139313,0.8873757719993591,2.030526876449585,13.360492706298828,1.0416682958602905,1.819610357284546,3.836122512817383,0.2623450756072998,-1.1897300481796265,-0.5388544797897339,2.719665050506592
63,37538,37522,-0.0266104768961668,0.25106576085090637,1.0300129652023315,0.8314232230186462,8.145796775817871,0.7933380007743835,1.8190679550170898,3.837305784225464,0.26346948742866516,-1.3009580373764038,-0.503771185874939,2.728055238723755
64,37548,37532,0.03362659364938736,0.46712058782577515,0.9855434894561768,0.5281396508216858,4.6653900146484375,0.7054658532142639,1.8182238340377808,3.839340925216675,0.26508796215057373,-1.5947617292404175,-0.4822339415550232,2.7531802654266357
65,37558,37542,0.03373739868402481,0.19775895774364471,1.0153647661209106,5.933529376983643,-3.0306406021118164,0.6294050812721252,1.8166141510009766,3.838949680328369,0.26621612906455994,-1.719709038734436,-0.43032315373420715,2.774589776992798
66,37568,37552,-0.05089090019464493,0.06599131226539612,0.9835324287414551,6.704513072967529,-5.081655502319336,-0.015379778109490871,1.8175268173217773,3.839221954345703,0.26733800768852234,-1.6714236736297607,-0.45493000745773315,2.7591419219970703
67,37578,37562,-0.03655257448554039,0.8010868430137634,0.9791201949119568,8.3851957321167,-9.290009498596191,-0.01947270892560482,1.8171484470367432,3.8396401405334473,0.26839402318000793,-1.5626230239868164,-0.3494066894054413,2.761362075805664
68,37588,37572,0.044998813420534134,0.7602488994598389,0.9307656288146973,9.190481185913086,-11.945781707763672,-0.21942324936389923,1.8165007829666138,3.841423749923706,0.26855963468551636,-1.4556962251663208,-0.2177729308605194,2.7699787616729736
69,37598,37582,0.07984179258346558,0.4814639687538147,0.8905465006828308,10.962818145751953,-13.814651489257812,-0.5569212436676025,1.814962387084961,3.8412623405456543,0.2695685625076294,-1.3107560873031616,-0.1736312061548233,2.7500391006469727
70,37608,37592,0.05601231008768082,0.9584001898765564,0.873927891254425,9.860980987548828,-8.453110694885254,-0.5076115727424622,1.8152625560760498,3.8451263904571533,0.2705170810222626,-1.1674691438674927,-0.07386021316051483,2.744704246520996
71,37618,37602,0.057510051876306534,0.4006788730621338,0.8967605829238892,8.376306533813477,-3.4322428703308105,0.8843557834625244,1.814857006072998,3.846626043319702,0.27285924553871155,-1.0574438571929932,0.06972270458936691,2.7555010318756104
72,37628,37612,0.005891632754355669,-0.01188927236944437,0.9099720120429993,5.125792026519775,2.193107843399048,-0.3662603199481964,1.8132988214492798,3.8461263179779053,0.27360689640045166,-1.1017873287200928,0.20904406905174255,2.780182361602783
73,37638,37622,-0.07698767632246017,0.033002059906721115,0.9228059649467468,1.2453856468200684,7.125879287719727,-0.9074356555938721,1.8123427629470825,3.8462700843811035,0.2743210792541504,-1.270455241203308,0.043474823236465454,2.723325729370117
74,37648,37632,-0.12327279150485992,0.3032817244529724,1.093634009361267,-1.9621055126190186,4.951624393463135,-1.2098332643508911,1.8131284713745117,3.8459489345550537,0.2773128151893616,-1.349779725074768,0.08046870678663254,2.7248988151550293
75,37658,37642,-0.2159598171710968,0.7829399704933167,1.0051922798156738,-2.6060667037963867,1.7704252004623413,-1.2362349033355713,1.8138585090637207,3.8481452465057373,0.2781674861907959,-1.4418689012527466,0.08970009535551071,2.722357749938965
76,37668,37652,-0.11561935395002365,0.2645890414714813,0.9299797415733337,1.1703402996063232,-2.165534734725952,-1.0480809211730957,1.8138654232025146,3.8487203121185303,0.27901849150657654,-1.480323314666748,0.12291939556598663,2.725611925125122
77,37678,37662,-0.014171728864312172,-0.09142614156007767,0.9369710683822632,3.8195979595184326,-6.99402379989624,-1.2686015367507935,1.8138009309768677,3.8505096435546875,0.27981504797935486,-1.3964126110076904,0.04798552766442299,2.691556453704834
78,37688,37672,0.05656123906373978,-0.1207849308848381,0.8953137993812561,5.7121052742004395,-10.31360149383545,-0.8047478199005127,1.8133372068405151,3.8505077362060547,0.2813842296600342,-1.2722502946853638,0.1597530096769333,2.7020721435546875
79,37698,37682,0.035441797226667404,-0.006649194750934839,0.9421234726905823,6.821170806884766,-12.373712539672852,-1.0991772413253784,1.812280297279358,3.852435350418091,0.28211528062820435,-1.0987684726715088,0.16085268557071686,2.6772820949554443
80,37708,37692,0.029300956055521965,-0.022187577560544014,0.8129211068153381,7.310642242431641,-11.670065879821777,-1.440685749053955,1.8113105297088623,3.853215217590332,0.28284698724746704,-0.9258307814598083,0.1876009702682495,2.6570446491241455
81,37718,37702,0.0342840850353241,0.14033521711826324,0.8217962384223938,9.485624313354492,-6.504451751708984,-1.629068374633789,1.8099336624145508,3.8548080921173096,0.28371965885162354,-0.7274923920631409,0.3993198871612549,2.6825809478759766
82,37728,37712,-0.051140204071998596,0.6029840707778931,0.9840777516365051,8.3169584274292,-3.2828118801116943,-0.9554200172424316,1.8092520236968994,3.8569562435150146,0.28406721353530884,-0.7203117609024048,0.520510196685791,2.6696388721466064
83,37738,37722,-0.1756342053413391,0.44080114364624023,0.8845743536949158,3.2391281127929688,-1.1999951601028442,-1.9689130783081055,1.8088756799697876,3.8569843769073486,0.2843886613845825,-0.7666668891906738,0.48014071583747864,2.6248841285705566
84,37748,37732,-0.29419124126434326,0.2202373743057251,1.0198965072631836,1.4615479707717896,1.6854678392410278,-0.8301599621772766,1.808746099472046,3.8567543029785156,0.28516313433647156,-0.8648483753204346,0.4646751284599304,2.5904674530029297
85,37758,37742,-0.1669561117887497,0.6566842198371887,1.1441541910171509,1.26664400100708,1.3087053298950195,-1.1034834384918213,1.8085168600082397,3.857649326324463,0.2854686379432678,-0.9452148079872131,0.3578466773033142,2.548682928085327
86,37768,37752,-0.011835334822535515,0.777953565120697,1.0893514156341553,0.8260700106620789,-5.837023735046387,0.02409966289997101,1.80924654006958,3.859285593032837,0.285835862159729,-0.9179755449295044,0.4412144124507904,2.557100534439087
87,37778,37762,0.010216382332146168,0.19191546738147736,0.9646354913711548,1.712489128112793,-7.30610466003418,-0.8935225009918213,1.809948444366455,3.8604705333709717,0.28111106157302856,-0.8527628779411316,0.5013464093208313,2.5656208992004395
88,37788,37772,0.03469159081578255,-0.03335895016789436,0.9991493225097656,2.9939751625061035,-14.155401229858398,-0.43187057971954346,1.8094685077667236,3.860304117202759,0.28126123547554016,-0.9280619621276855,0.5839038491249084,2.5604536533355713
89,37798,37782,0.11748861521482468,0.6472529768943787,0.9242530465126038,6.369223117828369,-11.016973495483398,-0.07745306938886642,1.809201717376709,3.8591716289520264,0.28132566809654236,-0.7598625421524048,0.5249707698822021,2.538972854614258
90,37808,37792,0.07822996377944946,0.5145206451416016,1.0288972854614258,6.082871913909912,-5.556385040283203,-0.0009267277782782912,1.8104143142700195,3.859473466873169,0.2813225984573364,-0.7047632932662964,0.6034247875213623,2.536935567855835
91,37818,37802,0.17513366043567657,0.09831545501947403,0.9329782128334045,5.3900146484375,1.7366576194763184,0.06914371997117996,1.8088750839233398,3.8600785732269287,0.28085172176361084,-0.705801784992218,0.6969444751739502,2.5362448692321777
92,37828,37812,0.10069531947374344,-0.02538670040667057,0.9290106296539307,3.2244460582733154,7.384850978851318,0.16702374815940857,1.8090126514434814,3.8599822521209717,0.28075528144836426,-0.7265317440032959,0.7553821206092834,2.5390477180480957
93,37838,37822,0.020415451377630234,-0.03728172555565834,0.9562824964523315,-1.954664945602417,14.203995704650879,-0.9901357889175415,1.8100436925888062,3.859955072402954,0.2807437777519226,-0.8375023603439331,0.7437238097190857,2.5299739837646484
94,37848,37832,0.01074493583291769,-0.1128382459282875,0.8916004300117493,-3.326474189758301,11.641707420349121,-0.7126204967498779,1.810488224029541,3.859846591949463,0.28069764375686646,-1.0295555591583252,0.7302125692367554,2.5184431076049805
95,37858,37842,0.05939029902219772,-0.019941572099924088,0.9133692979812622,-4.19717264175415,7.809354305267334,-0.3039454519748688,1.811841368675232,3.862140655517578,0.2805112600326538,-1.1673229932785034,0.7234236598014832,2.516451120376587
96,37868,37852,-0.14691710472106934,0.4547485411167145,1.2186951637268066,-1.1277121305465698,2.985909938812256,0.1941116601228714,1.8122552633285522,3.86433744430542,0.28013575077056885,-1.2272593975067139,0.6291202306747437,2.504034996032715
97,37878,37862,-0.08312930166721344,0.10794194787740707,1.054254412651062,-1.147841453552246,1.288819670677185,-1.1324325799942017,1.8124518394470215,3.8642866611480713,0.28149181604385376,-1.2217233180999756,0.6432983875274658,2.5107920169830322
98,37888,37872,0.010484415106475353,-0.023699264973402023,0.9911977648735046,1.7600971460342407,-4.0292205810546875,-1.2758855819702148,1.8127764463424683,3.8655331134796143,0.28142720460891724,-1.2279095649719238,0.685210108757019,2.508265972137451
99,37898,37882,-0.0034984557423740625,0.07743043452501297,1.1369303464889526,4.837386131286621,-9.439316749572754,-0.3707173466682434,1.81181800365448,3.864701509475708,0.2814103662967682,-0.9806572794914246,0.7578376531600952,2.526252508163452
100,37908,37892,-0.033550284802913666,-2.307396243850235e-05,1.0764575004577637,4.6636505126953125,-6.8798723220825195,-0.6629576683044434,1.8124476671218872,3.865427017211914,0.2814139425754547,-0.8658544421195984,0.7183395028114319,2.5051212310791016
101,37918,37902,0.0007658807444386184,-0.06147843971848488,0.9618538022041321,2.0971877574920654,-4.189709186553955,-0.6461753249168396,1.8110371828079224,3.865969657897949,0.28041666746139526,-0.7668293118476868,0.825395405292511,2.5112054347991943
102,37928,37912,-0.01683281548321247,-0.23420138657093048,0.9329463243484497,-1.5615350008010864,1.3962092399597168,-1.3392612934112549,1.8097201585769653,3.866482973098755,0.28050217032432556,-0.6993380784988403,0.8948834538459778,2.517328977584839
103,37938,37922,0.12444648146629333,-0.3513577878475189,0.8268010020256042,-2.5117998123168945,7.338443279266357,-0.5528507828712463,1.8098526000976562,3.8663792610168457,0.28057658672332764,-0.8696421980857849,0.9038332104682922,2.493084192276001
104,37948,37932,0.05927765741944313,-0.2723063826560974,0.8449686765670776,-4.521777153015137,4.635923385620117,-0.14664064347743988,1.8100782632827759,3.867722272872925,0.27901384234428406,-0.881900429725647,0.8585790991783142,2.492885112762451
105,37958,37942,-0.03163022920489311,-0.11313209682703018,0.9969065189361572,-6.43760871887207,12.672219276428223,-0.3312670886516571,1.8120054006576538,3.868920087814331,0.2787383794784546,-1.0503742694854736,0.7225977182388306,2.4640889167785645
106,37968,37952,-0.005749223288148642,0.12439439445734024,0.989909827709198,-7.337276458740234,12.153366088867188,-0.9771013259887695,1.8123481273651123,3.868936538696289,0.278420090675354,-1.1677660942077637,0.6366917490959167,2.4589662551879883
107,37978,37962,-0.04248892143368721,-0.05865582823753357,0.9548192620277405,-4.467696189880371,5.9460554122924805,-0.7458191514015198,1.8134310245513916,3.8691790103912354,0.27995631098747253,-1.1451700925827026,0.7323690056800842,2.4929463863372803
108,37988,37972,0.09528906643390656,-0.2436249703168869,0.9231244325637817,-1.3964351415634155,0.033337730914354324,-0.6684260368347168,1.814566731452942,3.8705015182495117,0.2796664237976074,-1.2347755432128906,0.623216450214386,2.474529504776001
109,37998,37982,0.15819261968135834,-0.2501903474330902,0.8692138195037842,0.1221739873290062,-4.655912399291992,-0.3694845139980316,1.8129159212112427,3.868220806121826,0.27951785922050476,-1.336724877357483,0.6398581266403198,2.4582149982452393
110,38008,37992,0.10047098249197006,-0.13409796357154846,0.9484261274337769,1.7765023708343506,-4.511382579803467,-0.3441530168056488,1.8131228685379028,3.868903398513794,0.27911248803138733,-1.3042155504226685,0.6610060930252075,2.4499409198760986
111,38018,38002,0.0328904390335083,-0.023681430146098137,0.9971970319747925,1.0205663442611694,-8.194503784179688,0.8324736952781677,1.8146982192993164,3.8694236278533936,0.2779613435268402,-1.2361295223236084,0.6834584474563599,2.4517390727996826
112,38028,38012,0.000522070040460676,-0.10714162141084671,0.9848687052726746,-2.045977830886841,-7.737721920013428,0.015616885386407375,1.8147622346878052,3.8683345317840576,0.2773248553276062,-1.235763669013977,0.6962640881538391,2.4496052265167236
113,38038,38022,0.015485397540032864,-0.03626497834920883,1.0769151449203491,-2.3867623805999756,-6.778839111328125,0.40384986996650696,1.8146429061889648,3.869220495223999,0.27677059173583984,-1.1663753986358643,0.6562013030052185,2.447730779647827
114,38048,38032,-0.017792949452996254,0.01233250368386507,1.0601521730422974,-4.693117141723633,-6.774385452270508,-0.28814780712127686,1.815029501914978,3.868415117263794,0.27810096740722656,-1.1305068731307983,0.6123076677322388,2.4407811164855957
115,38058,38042,0.03770315647125244,0.25758737325668335,1.1059470176696777,-5.5676116943359375,-5.830235481262207,-0.06990636885166168,1.8156973123550415,3.869252920150757,0.27776360511779785,-1.0732072591781616,0.5077481865882874,2.425591230392456
116,38068,38052,-0.09292725473642349,0.1524185687303543,1.1651655435562134,-7.9611358642578125,-1.99576735496521,-0.9868147373199463,1.81607186794281,3.8690710067749023,0.27747204899787903,-1.0500483512878418,0.4175526797771454,2.4162023067474365
117,38078,38062,-0.06681927293539047,0.08673390746116638,1.1677700281143188,-5.746572017669678,-1.4424660205841064,-0.09465759247541428,1.816470742225647,3.8686249256134033,0.2771885395050049,-0.9832497239112854,0.38405197858810425,2.421586513519287
118,38088,38072,-0.059768907725811005,0.11485547572374344,1.1402409076690674,-2.406816005706787,0.02675875835120678,-0.397895485162735,1.8174092769622803,3.8695764541625977,0.27715232968330383,-0.9008495807647705,0.30140039324760437,2.4217348098754883
119,38098,38082,-0.02851732075214386,0.09679069370031357,1.0729589462280273,-0.9858334064483643,3.9054691791534424,-0.9865687489509583,1.8189235925674438,3.870466709136963,0.2774091064929962,-0.9270449876785278,0.34152859449386597,2.42484974861145
120,38108,38092,-0.02230028808116913,0.0950590968132019,1.051777720451355,0.8058162331581116,-2.3667991161346436,-0.7936832904815674,1.819799780845642,3.871306896209717,0.28235194087028503,-0.7917260527610779,0.33327704668045044,2.429935932159424
121,38118,38102,-0.017587732523679733,0.05277067795395851,0.987364649772644,3.4204001426696777,-1.7816509008407593,-0.7192250490188599,1.8211206197738647,3.870983123779297,0.28296488523483276,-0.7151265740394592,0.36187610030174255,2.429584503173828
122,38128,38112,0.034380022436380386,-0.2061099410057068,0.9350613355636597,1.9627306461334229,-3.391537666320801,-0.6273764371871948,1.8202157020568848,3.870438814163208,0.2837432622909546,-1.0803090333938599,0.42608508467674255,2.4028396606445312
123,38138,38122,0.0943884551525116,-0.1847907304763794,0.965333104133606,0.5651422739028931,-5.665562152862549,0.020299633964896202,1.820902943611145,3.8705875873565674,0.2844252586364746,-0.973193347454071,0.37747687101364136,2.3922314643859863
124,38148,38132,0.039499372243881226,-0.09099754691123962,0.9940916895866394,-2.7416114807128906,-7.925230503082275,-0.40894877910614014,1.8247849941253662,3.870108127593994,0.285541832447052,-0.8155912756919861,0.37253639101982117,2.3941831588745117
125,38158,38142,0.06895524263381958,-0.07221052050590515,0.9638494253158569,-4.660693645477295,-11.215310096740723,-0.12583103775978088,1.824928879737854,3.8701422214508057,0.28622549772262573,-0.7932124733924866,0.2436891496181488,2.3752031326293945
126,38168,38152,0.014723505824804306,-0.0760590136051178,0.9816815257072449,-6.047128677368164,-14.096027374267578,-0.5795689821243286,1.8253816366195679,3.8704042434692383,0.2869492173194885,-0.6438230872154236,0.1645718514919281,2.368446111679077
127,38178,38162,-0.012681161053478718,-0.04132356494665146,1.0136830806732178,-5.088488578796387,-7.711056709289551,-0.11940088123083115,1.8271396160125732,3.8714349269866943,0.289981871843338,-0.8101633787155151,0.0844883918762207,2.3483951091766357
128,38188,38172,0.035742614418268204,-0.001469198614358902,1.036016821861267,-2.7435853481292725,-6.56815242767334,-0.7275232672691345,1.827944278717041,3.8725168704986572,0.2907174825668335,-0.6844751834869385,0.028047246858477592,2.3458127975463867
129,38198,38182,0.020181043073534966,-0.06684774905443192,0.9773460030555725,-0.28151005506515503,-4.5547075271606445,-1.2657968997955322,1.831084966659546,3.872875213623047,0.29120802879333496,-0.5833097100257874,0.07951603829860687,2.3406262397766113
130,38208,38192,-0.018888354301452637,-0.077654629945755,0.9466962814331055,2.209991216659546,-7.981300354003906,-1.1679760217666626,1.831955075263977,3.8737268447875977,0.293020099401474,-0.5223046541213989,0.09590395539999008,2.3296525478363037
131,38218,38202,0.11518729478120804,-0.04996076598763466,0.8879255652427673,3.6975157260894775,-5.60776948928833,-1.4368443489074707,1.8324658870697021,3.8718161582946777,0.2938179671764374,-0.39001983404159546,0.14792443811893463,2.3209283351898193
132,38228,38212,-0.0021551165264099836,0.10072354227304459,1.027969241142273,2.7722702026367188,-7.164231300354004,-1.4607793092727661,1.8331254720687866,3.870694398880005,0.29451534152030945,-0.5881370902061462,0.2004109025001526,2.3028500080108643
133,38238,38222,0.0017627765191718936,0.005913406144827604,1.033469319343567,2.524772882461548,-7.472519397735596,-2.234530210494995,1.8330661058425903,3.8706045150756836,0.29521316289901733,-0.30839571356773376,0.2458759844303131,2.299889326095581
134,38248,38232,-0.026714829728007317,-0.07029852271080017,0.9997949600219727,-0.03458127751946449,-7.976016521453857,-1.6174678802490234,1.836286187171936,3.8710379600524902,0.299304723739624,-0.4024273157119751,0.26835545897483826,2.2781639099121094
135,38258,38242,0.06391170620918274,-0.16413161158561707,0.9091029167175293,-1.1752984523773193,-11.850578308105469,-1.4344183206558228,1.835422396659851,3.8708884716033936,0.3004995882511139,-0.08653458952903748,0.18816910684108734,2.2767302989959717
136,38268,38252,0.07787418365478516,-0.027070026844739914,1.0118699073791504,-3.8524603843688965,-12.258366584777832,-2.1036503314971924,1.837860345840454,3.8715665340423584,0.3012292683124542,0.07367486506700516,0.18057313561439514,2.2778284549713135
137,38278,38262,0.06983382254838943,0.3044978678226471,0.9135103821754456,2.6343934535980225,-9.552922248840332,-1.8220195770263672,1.8372572660446167,3.873263120651245,0.30262452363967896,0.09220841526985168,0.16108320653438568,2.2643630504608154
138,38288,38272,-0.042997460812330246,0.22313779592514038,1.0722976922988892,0.9162707924842834,-7.708799362182617,-2.2288968563079834,1.8382525444030762,3.875835657119751,0.30345994234085083,0.38634300231933594,0.350931853055954,2.2459020614624023
139,38298,38282,-0.07711804658174515,0.3456166982650757,0.8228902220726013,2.281306028366089,1.8757697343826294,-2.8618428707122803,1.8398526906967163,3.875441551208496,0.30416423082351685,0.28678426146507263,0.37087517976760864,2.2148475646972656
140,38308,38292,0.017198920249938965,-0.004506486468017101,0.9010348916053772,-2.4355812072753906,7.958126544952393,-3.232187032699585,1.8391317129135132,3.873671054840088,0.30337193608283997,0.33664682507514954,0.37632322311401367,2.193323850631714
141,38318,38302,0.01963341049849987,-0.16524778306484222,0.9720805287361145,-2.9438421726226807,2.008108139038086,-4.199682235717773,1.840641975402832,3.8734617233276367,0.30379948019981384,0.2664826512336731,0.31302812695503235,2.17057466506958
142,38328,38312,0.051638465374708176,-0.14801211655139923,0.8876675367355347,-3.0476255416870117,6.8101887702941895,-2.708075761795044,1.8410565853118896,3.872915744781494,0.3042316734790802,0.28387752175331116,0.23953896760940552,2.132345676422119
143,38338,38322,-0.04272105172276497,-0.02612309157848358,0.9650831818580627,-8.623546600341797,1.9739264249801636,-3.3251450061798096,1.842516303062439,3.8743643760681152,0.3045649528503418,0.28120625019073486,0.12557560205459595,2.106539249420166
144,38348,38332,0.050434909760951996,-0.1022072359919548,0.9490671753883362,-10.784743309020996,-2.7003931999206543,-3.763946056365967,1.8427598476409912,3.8734023571014404,0.30747491121292114,0.2580011188983917,-0.056266333907842636,2.0645179748535156
145,38358,38342,-0.009801086969673634,0.05606810003519058,0.9631772041320801,-7.384278774261475,-6.041487693786621,-3.843714475631714,1.842415452003479,3.8745028972625732,0.3079710006713867,0.40953707695007324,-0.1441505253314972,2.0243916511535645
146,38368,38352,0.05195526406168938,0.12205759435892105,1.0425114631652832,-2.2257533073425293,-4.879129886627197,-4.090398788452148,1.842963695526123,3.8740015029907227,0.30835896730422974,0.5142791867256165,-0.2239294946193695,1.99873948097229
147,38378,38362,-0.030637210234999657,0.20664991438388824,1.126610279083252,4.423701286315918,-2.952611207962036,-4.5229387283325195,1.843774676322937,3.8749706745147705,0.309301495552063,0.6123727560043335,-0.14296454191207886,1.9481579065322876
148,38388,38372,0.006446229759603739,0.004498769994825125,0.9274272918701172,6.6001152992248535,3.270972490310669,-3.327939987182617,1.8440911769866943,3.87599778175354,0.30984652042388916,0.576789140701294,-0.06265529245138168,1.8933182954788208
149,38398,38382,-0.007321257144212723,-0.21178151667118073,0.7799067497253418,8.461190223693848,6.648808002471924,-4.211489200592041,1.8443706035614014,3.874366521835327,0.3104799687862396,0.30642780661582947,-0.012617804110050201,1.857216715812683
150,38408,38392,-0.13413496315479279,0.26360681653022766,1.0099000930786133,6.157987117767334,6.01609468460083,-3.9166531562805176,1.8455429077148438,3.874037027359009,0.3119891285896301,0.22906918823719025,0.10453855991363525,1.8119643926620483
151,38418,38402,-0.009214130230247974,0.13695675134658813,0.9122626185417175,2.310971260070801,6.179588317871094,-4.094920635223389,1.8482638597488403,3.8736653327941895,0.31238019466400146,0.3172370195388794,0.05107580125331879,1.7863460779190063
152,38428,38412,0.007423632778227329,0.03424544259905815,1.0060380697250366,0.6480515599250793,5.783968925476074,-3.3836777210235596,1.849349021911621,3.8729088306427,0.3127666115760803,0.2298574596643448,0.11091306060552597,1.7439970970153809
153,38438,38422,0.059481337666511536,-0.08081615716218948,0.9295634031295776,-2.126009225845337,4.083437442779541,-3.8437740802764893,1.8482779264450073,3.873915195465088,0.3164830803871155,0.23412072658538818,0.12637504935264587,1.7119673490524292
154,38448,38432,0.05257542058825493,-0.01894187554717064,0.8831849694252014,-2.7421045303344727,1.4514822959899902,-3.5270328521728516,1.8487905263900757,3.8726494312286377,0.31700998544692993,0.28910887241363525,0.10897529125213623,1.6656497716903687
155,38458,38442,-0.10668207705020905,-0.03443174809217453,0.8148407936096191,-4.922558307647705,5.364966869354248,-4.733741760253906,1.8486156463623047,3.8729279041290283,0.3174718916416168,0.3552975654602051,0.06069151684641838,1.6406574249267578
156,38468,38452,-0.09507957845926285,-0.17693044245243073,0.9570930004119873,-1.8099550008773804,2.0860183238983154,-4.141044616699219,1.8478394746780396,3.8726446628570557,0.3178338408470154,0.24749723076820374,0.04013768956065178,1.6291855573654175
157,38478,38462,-0.01937692053616047,0.11366990953683853,1.026235580444336,2.6485207080841064,3.084155559539795,-3.3106765747070312,1.8479353189468384,3.873228073120117,0.3162974715232849,0.23006314039230347,0.04867307469248772,1.5909929275512695
158,38488,38472,-0.032209403812885284,0.16211622953414917,1.0389950275421143,3.6187403202056885,3.4734902381896973,-2.9323465824127197,1.8500462770462036,3.8756396770477295,0.31635767221450806,0.22403033077716827,0.11971315741539001,1.5482463836669922
159,38498,38482,-8.613255340605974e-05,-0.05147363245487213,0.9292420148849487,2.4002938270568848,7.625314235687256,-3.073843240737915,1.8493688106536865,3.8733925819396973,0.31635627150535583,0.19999966025352478,0.17774434387683868,1.4918196201324463
160,38508,38492,0.029230890795588493,-0.04347943514585495,0.9107218980789185,0.565335750579834,9.33729362487793,-3.2709405422210693,1.8499878644943237,3.8733577728271484,0.31690651178359985,0.08722733706235886,0.20650739967823029,1.4796814918518066
161,38518,38502,-0.08470429480075836,0.2108805775642395,1.0290032625198364,0.550728976726532,4.81341552734375,-3.1429758071899414,1.8499090671539307,3.872666358947754,0.31688588857650757,0.23913878202438354,0.10519590973854065,1.4505506753921509
162,38528,38512,-0.2098502516746521,0.3951651155948639,1.0554755926132202,0.19652101397514343,4.682854175567627,-2.3817598819732666,1.8509366512298584,3.8730759620666504,0.31684744358062744,0.19628159701824188,0.12192582339048386,1.4324302673339844
163,38538,38522,-0.12624920904636383,0.2156696319580078,1.0661712884902954,0.8384979963302612,3.565453290939331,-3.121473550796509,1.8495830297470093,3.874634027481079,0.319013386964798,0.07737244665622711,0.13235358893871307,1.4270751476287842
164,38548,38532,-0.0760173425078392,-0.015400205738842487,0.9712541699409485,0.18980979919433594,4.830298900604248,-2.2202022075653076,1.849672555923462,3.874392509460449,0.3192465603351593,0.048532769083976746,0.13320502638816833,1.3979617357254028
165,38558,38542,-0.053322382271289825,0.05054172873497009,0.9769240021705627,2.1122961044311523,3.752319574356079,-1.8021066188812256,1.8508330583572388,3.8758881092071533,0.31949982047080994,0.010226818732917309,0.07484286278486252,1.4006456136703491
166,38568,38552,-0.09776955842971802,0.3252641558647156,1.0996743440628052,1.6727807521820068,8.305435180664062,-2.3926446437835693,1.8506227731704712,3.87599515914917,0.3197501599788666,-0.019753972068428993,0.04333317652344704,1.382727861404419
167,38578,38562,-0.12402762472629547,0.4872038960456848,1.095239520072937,1.0489733219146729,9.725769996643066,-0.5173189043998718,1.851952314376831,3.877593517303467,0.32045799493789673,-0.1408074051141739,0.06377411633729935,1.3601348400115967
168,38588,38572,-0.020519660785794258,0.19838762283325195,0.9902390837669373,2.814290761947632,11.71395492553711,0.5876054763793945,1.851898431777954,3.8780224323272705,0.3208281695842743,-0.19959492981433868,0.022324342280626297,1.3585642576217651
169,38598,38582,-0.06944702565670013,0.22272181510925293,1.0727390050888062,5.887944221496582,12.926281929016113,0.929631769657135,1.8522038459777832,3.8773744106292725,0.3212226629257202,-0.3587898910045624,0.11682907491922379,1.3632824420928955
170,38608,38592,-0.04418560490012169,0.18141894042491913,1.093679666519165,6.416130065917969,15.085944175720215,1.4682215452194214,1.8518608808517456,3.87788987159729,0.31831008195877075,-0.5742681622505188,0.22858984768390656,1.3691091537475586
171,38618,38602,-0.0014117724495008588,0.0019343120511621237,0.9452528953552246,2.6053924560546875,10.522221565246582,1.3807159662246704,1.8526424169540405,3.877211809158325,0.3186568021774292,-0.6712716221809387,0.2340463101863861,1.3692303895950317
172,38628,38612,0.0017035683849826455,0.10701156407594681,1.023163080215454,-2.0270729064941406,7.214381694793701,1.9340180158615112,1.854038953781128,3.876901388168335,0.319003701210022,-0.7346541285514832,0.261080801486969,1.38334059715271
173,38638,38622,0.10799368470907211,0.10659539699554443,0.8801957368850708,-8.78714656829834,3.8233518600463867,0.8963295817375183,1.8539823293685913,3.8764100074768066,0.3168993890285492,-0.9817892909049988,0.18143361806869507,1.3927940130233765
174,38648,38632,0.11568760126829147,0.4886229336261749,1.0129212141036987,-9.590734481811523,-2.990513324737549,2.592902183532715,1.8542877435684204,3.8763155937194824,0.3171132802963257,-0.9389940500259399,0.025532806292176247,1.4064128398895264
175,38658,38642,0.19625455141067505,0.025476796552538872,0.8333985209465027,-9.016799926757812,-7.630608558654785,2.530179500579834,1.8571105003356934,3.876600742340088,0.31711068749427795,-0.9285404682159424,-0.11439791321754456,1.4322052001953125
176,38668,38652,-0.009824195876717567,-0.03642772138118744,0.9751864671707153,-3.5041139125823975,-5.530671119689941,2.529658317565918,1.8576580286026,3.8767058849334717,0.3172381520271301,-0.836819052696228,-0.19575689733028412,1.4334582090377808
177,38678,38662,-0.061373863369226456,0.4106799066066742,0.9337074756622314,0.7209786176681519,-7.990884304046631,2.0301644802093506,1.8584392070770264,3.8778598308563232,0.31563428044319153,-0.6682382225990295,-0.12971627712249756,1.4707000255584717
178,38688,38672,-0.008631047792732716,0.5531107187271118,0.9111595153808594,7.7268500328063965,-4.232347011566162,2.0684468746185303,1.8584169149398804,3.877481698989868,0.3154537081718445,-0.8072156310081482,-0.021274663507938385,1.4885132312774658
179,38698,38682,-0.08403905481100082,0.2887386083602905,1.0510457754135132,12.376616477966309,-0.42263415455818176,2.1838111877441406,1.8580254316329956,3.8763575553894043,0.315347284078598,-0.7306387424468994,0.0847279280424118,1.518430471420288
180,38708,38692,-0.013748309575021267,0.009153369814157486,0.9827614426612854,10.6231050491333,1.7193599939346313,1.9159148931503296,1.860707402229309,3.8748106956481934,0.3124198317527771,-0.6520162224769592,0.21934209764003754,1.5360924005508423
181,38718,38702,0.01660344935953617,-0.029409682378172874,0.9773918390274048,7.544491291046143,2.3576436042785645,1.3363757133483887,1.8614201545715332,3.875377893447876,0.3120410442352295,-0.6897817850112915,0.30559661984443665,1.5550789833068848
182,38728,38712,0.01913805678486824,-0.0005475592915900052,0.9768567085266113,0.2776295840740204,1.8461889028549194,0.19153013825416565,1.8613834381103516,3.8752071857452393,0.3116661310195923,-0.7141067385673523,0.3959011733531952,1.5732747316360474
183,38738,38722,0.0661858469247818,-0.0495334230363369,0.9224058985710144,-5.2580084800720215,-0.38690122961997986,0.7814731597900391,1.8624614477157593,3.876008987426758,0.3070368468761444,-0.7381309866905212,0.3435046970844269,1.5870578289031982
184,38748,38732,0.034569695591926575,-0.09789790213108063,0.907627522945404,-6.840816020965576,-3.0025410652160645,1.0934960842132568,1.8632458448410034,3.8758792877197266,0.3062049150466919,-0.6412602066993713,0.33244815468788147,1.6024922132492065
185,38758,38742,0.06137314811348915,-0.13781987130641937,1.0153229236602783,-6.3847975730896,-3.6832146644592285,0.9843271970748901,1.864072561264038,3.876934051513672,0.30526068806648254,-0.7554436326026917,0.14315111935138702,1.6002943515777588
186,38768,38752,0.1424470692873001,-0.21833060681819916,0.952486515045166,-6.79218053817749,-3.883587121963501,0.636656641960144,1.8631821870803833,3.875190496444702,0.30434104800224304,-0.6252025365829468,0.04260643199086189,1.5944204330444336
187,38778,38762,0.11387426406145096,-0.19395075738430023,0.8729798197746277,-4.905689716339111,-9.91669750213623,1.9113924503326416,1.8648816347122192,3.877269983291626,0.30099862813949585,-0.4075086712837219,-0.038377802819013596,1.612798810005188
188,38788,38772,-0.01548630092293024,-0.04296167567372322,0.9714478850364685,2.202984094619751,-7.077630043029785,2.287062168121338,1.8647488355636597,3.8767287731170654,0.29983508586883545,-0.593247652053833,-0.06120283901691437,1.6279181241989136
189,38798,38782,-0.019520578905940056,-0.08632805943489075,1.0657212734222412,8.809020042419434,-8.651972770690918,3.235482692718506,1.864168405532837,3.8775315284729004,0.29866823554039,-0.410597026348114,-0.034785326570272446,1.6527900695800781
190,38808,38792,-0.04732772707939148,-0.016172247007489204,1.086540937423706,12.752479553222656,-6.7711639404296875,3.2713394165039062,1.8666224479675293,3.8766582012176514,0.298737108707428,-0.32448795437812805,0.08350204676389694,1.684918761253357
191,38818,38802,-0.02649568021297455,0.05372653156518936,1.129613995552063,15.174870491027832,-2.3406500816345215,5.5241546630859375,1.8665766716003418,3.87738037109375,0.29773151874542236,-0.1252889484167099,0.26112601161003113,1.7118446826934814
192,38828,38812,-0.04157964512705803,0.03531526029109955,1.1075243949890137,12.198161125183105,0.37671035528182983,4.355247497558594,1.8679214715957642,3.8777666091918945,0.29676657915115356,-0.08235906809568405,0.4403137266635895,1.7725526094436646
193,38838,38822,-0.0321928896009922,0.062497809529304504,1.0814411640167236,2.5559909343719482,9.774877548217773,3.7780425548553467,1.8673406839370728,3.8767921924591064,0.2960357367992401,-0.20900461077690125,0.4379126727581024,1.7846240997314453
194,38848,38832,-0.009870105423033237,0.06914326548576355,1.0547833442687988,-8.400459289550781,6.575712203979492,3.8871219158172607,1.8680310249328613,3.877408981323242,0.29530805349349976,-0.24695876240730286,0.4143083393573761,1.832956314086914
195,38858,38842,0.06357128173112869,-0.2149311751127243,0.9603368043899536,-19.70838165283203,4.67871618270874,2.2408273220062256,1.8690800666809082,3.8772366046905518,0.29458630084991455,-0.3580995202064514,0.19389931857585907,1.883872628211975
196,38868,38852,0.08701957017183304,-0.2704879939556122,0.9453358054161072,-24.012672424316406,-4.958178997039795,2.446054697036743,1.8697937726974487,3.8789753913879395,0.29432421922683716,-0.3609279990196228,-0.1846427470445633,1.8842066526412964
197,38878,38862,0.032786425203084946,-0.10279348492622375,0.993279755115509,-20.407846450805664,-5.982145309448242,0.05652720481157303,1.870578646659851,3.880112886428833,0.29361429810523987,-0.1851537972688675,-0.3714667856693268,1.899831771850586
198,38888,38872,0.0032518282532691956,-0.022037280723452568,1.062502384185791,-8.902521133422852,-7.463222980499268,-0.4400901794433594,1.8710201978683472,3.8808374404907227,0.2927398085594177,-0.1472688615322113,-0.5092576146125793,1.9189903736114502
199,38898,38882,0.02124558389186859,0.016909778118133545,1.0845600366592407,5.078225135803223,-5.83404016494751,0.16435641050338745,1.8703389167785645,3.880704879760742,0.29218965768814087,-0.08686230331659317,-0.34351155161857605,1.9279780387878418
200,38908,38892,-0.013807279989123344,0.015492326579988003,1.024800181388855,15.553199768066406,-2.629549503326416,-0.2558642029762268,1.8718845844268799,3.8820769786834717,0.29008373618125916,-0.08532170206308365,-0.23757794499397278,1.9243757724761963
201,38918,38902,0.006608486641198397,-0.004220351576805115,1.0959969758987427,23.146718978881836,-1.4786503314971924,-1.251915693283081,1.8725477457046509,3.8808047771453857,0.2895771563053131,-0.0531616173684597,0.04016847908496857,1.9171974658966064
202,38928,38912,-0.031069133430719376,-0.09284098446369171,1.0244992971420288,23.808443069458008,-5.378786563873291,-1.946606993675232,1.8734276294708252,3.880614995956421,0.2889575958251953,-0.03308696672320366,0.14992551505565643,1.8997656106948853
203,38938,38922,-0.010542151518166065,-0.053432997316122055,1.050368309020996,17.783069610595703,-3.4593589305877686,-3.559321403503418,1.8730669021606445,3.879199504852295,0.28899261355400085,0.1109856516122818,0.448783278465271,1.8845231533050537
204,38948,38932,-0.008369949646294117,-0.04329737275838852,1.0150892734527588,6.186101913452148,-4.216568470001221,-5.3470458984375,1.8737658262252808,3.881211519241333,0.2885590195655823,0.2667023837566376,0.5182315707206726,1.8606904745101929
205,38958,38942,-0.004800867289304733,-0.02027846686542034,1.077838659286499,-4.929993152618408,-7.949667930603027,-7.38247537612915,1.8734745979309082,3.8816046714782715,0.28821104764938354,0.1323958784341812,0.4135640263557434,1.815997838973999
206,38968,38952,0.018794450908899307,0.015174300409853458,1.1170085668563843,-13.315770149230957,-4.780653953552246,-8.591938972473145,1.8730287551879883,3.8825700283050537,0.28794923424720764,0.3954274654388428,0.34745147824287415,1.7357971668243408
207,38978,38962,-0.0013909080298617482,0.14856936037540436,1.1379363536834717,-12.130908966064453,-0.5753236413002014,-8.996152877807617,1.8757730722427368,3.8846890926361084,0.2876990735530853,0.4338805675506592,0.24816082417964935,1.6692968606948853
208,38988,38972,-0.062274400144815445,0.10895519703626633,1.2001075744628906,-9.389169692993164,5.518843173980713,-11.328330993652344,1.874495029449463,3.885099411010742,0.2877034842967987,0.47871971130371094,0.07582096755504608,1.5743107795715332
209,38998,38982,-0.07476735860109329,0.12581223249435425,1.118460774421692,-3.059084892272949,14.6600923538208,-11.723060607910156,1.8751195669174194,3.885571241378784,0.2877960801124573,0.26435521245002747,0.07808975875377655,1.4470890760421753
210,39008,38992,-0.018947236239910126,0.004953830037266016,1.0931241512298584,4.058159351348877,19.843360900878906,-11.906681060791016,1.8742281198501587,3.8856287002563477,0.2866814434528351,0.06060759350657463,0.11933013796806335,1.3134117126464844
211,39018,39002,0.03836578130722046,-0.2425776869058609,0.9388511180877686,10.648423194885254,18.891252517700195,-12.639409065246582,1.8762588500976562,3.8854784965515137,0.2869756519794464,-0.2121845930814743,0.28827276825904846,1.190208077430725
212,39028,39012,0.011509726755321026,-0.22050584852695465,0.9620533585548401,8.84776782989502,14.146726608276367,-13.361950874328613,1.8770403861999512,3.8854639530181885,0.287288635969162,-0.36326053738594055,0.3885192275047302,1.0708811283111572
213,39038,39022,0.07013369351625443,-0.06746295839548111,0.9308735728263855,7.351192951202393,3.301486015319824,-12.946688652038574,1.8782328367233276,3.8848884105682373,0.29016777873039246,-0.4339817464351654,0.3714422583580017,0.9446823596954346
214,39048,39032,0.03527160361409187,0.013215910643339157,1.0473582744598389,5.450580596923828,-2.9033172130584717,-13.140692710876465,1.8791264295578003,3.885695219039917,0.290490984916687,-0.37981483340263367,0.4324559271335602,0.8412889242172241
215,39058,39042,-0.047352828085422516,0.0510636568069458,1.1275080442428589,3.7729597091674805,-6.612856864929199,-14.539620399475098,1.8794763088226318,3.887575626373291,0.2908453047275543,-0.2126656323671341,0.44774436950683594,0.7123875021934509
216,39068,39052,-0.03703855723142624,0.12064690887928009,1.0602774620056152,0.33370667695999146,-10.01391887664795,-14.279269218444824,1.8794677257537842,3.887752056121826,0.2915633022785187,-0.3400362432003021,0.49263420701026917,0.5724530816078186
217,39078,39062,-0.008123857900500298,0.048386555165052414,1.051615834236145,-3.2373719215393066,1.1399827003479004,-15.956828117370605,1.8789857625961304,3.8887991905212402,0.2921798527240753,-0.23043496906757355,0.48496201634407043,0.4171014726161957
218,39088,39072,0.007414373103529215,-0.16793571412563324,1.000101923942566,-6.380059242248535,6.327920436859131,-16.63819122314453,1.8808231353759766,3.8872787952423096,0.2926265299320221,-0.32585009932518005,0.4135165810585022,0.2337232381105423
219,39098,39082,-0.035403281450271606,-0.13233119249343872,0.8906183242797852,-8.09069538116455,7.693645000457764,-17.28469467163086,1.880696415901184,3.8885855674743652,0.29455798864364624,-0.38329076766967773,0.379730761051178,0.07779037207365036
220,39108,39092,0.026354745030403137,-0.060101769864559174,0.9362937211990356,-5.555929183959961,10.748114585876465,-16.706024169921875,1.881070613861084,3.888200521469116,0.29510098695755005,-0.5799460411071777,0.2780212461948395,-0.10843541473150253
221,39118,39102,0.057920776307582855,-0.0331069640815258,1.0196363925933838,0.26593926548957825,-0.3636462986469269,-14.319615364074707,1.8811752796173096,3.8877205848693848,0.2955905497074127,-0.636260986328125,0.2731684446334839,-0.26012927293777466
222,39128,39112,0.0075953141786158085,-0.07456519454717636,1.0105547904968262,4.204049110412598,-7.925529956817627,-14.091304779052734,1.8820065259933472,3.8878228664398193,0.29602277278900146,-0.5948991775512695,0.3246466815471649,-0.3863370418548584
223,39138,39122,0.018866760656237602,0.024207601323723793,0.9854645133018494,8.15310001373291,-14.307090759277344,-12.950486183166504,1.8829025030136108,3.8885035514831543,0.2979409396648407,-0.27344441413879395,0.44527989625930786,-0.5347822308540344
224,39148,39132,0.02720433659851551,0.06436798721551895,1.0309133529663086,10.465226173400879,-7.847882270812988,-12.59826946258545,1.8839291334152222,3.888676404953003,0.2985251247882843,-0.3050784766674042,0.4437495470046997,-0.5415470600128174
225,39158,39142,-0.016353370621800423,0.09580528736114502,1.008399248123169,12.473505020141602,-2.5123541355133057,-12.483054161071777,1.8825856447219849,3.887118101119995,0.29932135343551636,-0.08710344135761261,0.47883445024490356,-0.6861770153045654
226,39168,39152,-0.03480619564652443,0.08399123698472977,0.9784051179885864,11.932035446166992,1.5854003429412842,-12.463996887207031,1.8833049535751343,3.8868801593780518,0.2989121675491333,-0.05070530250668526,0.5285215973854065,-0.7946715950965881
227,39178,39162,-0.029713664203882217,-0.0213864054530859,0.9613835215568542,11.090639114379883,8.530529975891113,-12.243868827819824,1.882979393005371,3.8878509998321533,0.2994603216648102,0.04328746721148491,0.7599482536315918,-0.9034579992294312
228,39188,39172,-0.07879900932312012,0.06331479549407959,1.032304048538208,8.494474411010742,13.883370399475098,-12.447164535522461,1.8838708400726318,3.8887789249420166,0.3000117242336273,-0.13873574137687683,0.7816145420074463,-1.033808708190918
229,39198,39182,0.04628654196858406,-0.09397206455469131,0.9500744938850403,2.9694674015045166,12.608782768249512,-9.835478782653809,1.8832999467849731,3.888887405395508,0.29896193742752075,-0.29060742259025574,0.9056555032730103,-1.1336458921432495
230,39208,39192,0.016557788476347923,0.3851071000099182,1.0700517892837524,0.5927268862724304,3.265751600265503,-8.177008628845215,1.883603811264038,3.8889057636260986,0.299349844455719,-0.41552823781967163,0.9653175473213196,-1.223840594291687
231,39218,39202,0.06039658933877945,0.7617091536521912,1.0316675901412964,-2.854604959487915,-4.492415428161621,-6.060900688171387,1.8841981887817383,3.8891401290893555,0.2997964024543762,-0.31319448351860046,0.9618919491767883,-1.3042219877243042
232,39228,39212,-0.08438833057880402,0.7008315920829773,1.0920525789260864,0.4962289333343506,-1.2423139810562134,-4.756230354309082,1.883794903755188,3.8888707160949707,0.30024072527885437,-0.3139379024505615,0.9504717588424683,-1.3599071502685547
233,39238,39222,-0.06770988553762436,0.1860940307378769,1.0902750492095947,1.7276921272277832,-4.175830841064453,-3.7276833057403564,1.882557988166809,3.887913703918457,0.30221691727638245,-0.20895634591579437,0.9689423441886902,-1.4039911031723022
234,39248,39232,-0.045336443930864334,0.05504181981086731,1.02752685546875,0.37129828333854675,-5.152401447296143,-2.3631486892700195,1.883232831954956,3.8889858722686768,0.30295196175575256,-0.16514982283115387,0.9846431016921997,-1.424444556236267
235,39258,39242,-0.030145609751343727,-0.03554310277104378,0.9019558429718018,1.614824891090393,-2.552266836166382,-0.7358571290969849,1.8829318284988403,3.8892030715942383,0.3037768602371216,-0.015160131268203259,1.0181282758712769,-1.4316043853759766
236,39268,39252,0.0489114448428154,-0.19748806953430176,0.9027567505836487,-1.3256372213363647,-3.570974826812744,-0.29530325531959534,1.8833043575286865,3.8892195224761963,0.31018495559692383,-0.10595406591892242,1.1002027988433838,-1.441985011100769
237,39278,39262,0.009703398682177067,-0.18468810617923737,0.7730648517608643,0.0015524278860539198,11.517725944519043,0.613109290599823,1.8826751708984375,3.8896374702453613,0.3111080229282379,-0.1809091418981552,1.059995412826538,-1.493821620941162
238,39288,39272,-0.07007085531949997,0.21744437515735626,0.9633549451828003,2.4666907787323,8.16148567199707,1.2384330034255981,1.8840305805206299,3.8877882957458496,0.31183674931526184,-0.27532958984375,1.0672117471694946,-1.5146700143814087
239,39298,39282,0.10611717402935028,-0.0037129735574126244,0.7785263061523438,1.8300375938415527,5.907808303833008,3.677049160003662,1.885300874710083,3.8871355056762695,0.3135235905647278,-0.26189878582954407,1.0873163938522339,-1.5164077281951904
240,39308,39292,0.07927598804235458,-0.15733672678470612,0.802118182182312,1.0802366733551025,5.334925174713135,4.4256391525268555,1.8844529390335083,3.8846211433410645,0.3139459192752838,-0.19881030917167664,1.0902055501937866,-1.479282021522522
241,39318,39302,0.12897175550460815,-0.2032499760389328,0.8593059778213501,2.767932653427124,6.16401481628418,5.709275245666504,1.884367823600769,3.884495258331299,0.31430551409721375,-0.3721464276313782,1.109087586402893,-1.432120442390442
242,39328,39312,-0.011411490850150585,-0.048577968031167984,0.9888249635696411,-1.7393214702606201,8.402402877807617,6.291808128356934,1.8834738731384277,3.88456392288208,0.3145226836204529,-0.4251653552055359,1.1119476556777954,-1.3994359970092773
243,39338,39322,-0.04712938144803047,-0.10905386507511139,0.8950740694999695,-2.3269073963165283,6.174777507781982,8.126093864440918,1.8840184211730957,3.88303804397583,0.312477707862854,-0.732694149017334,1.0616304874420166,-1.340999722480774
244,39348,39332,0.019165674224495888,-0.24791888892650604,0.8253015279769897,-4.633639812469482,9.668869972229004,7.751657009124756,1.884749412536621,3.883727788925171,0.31240391731262207,-0.8006097674369812,0.97471022605896,-1.2657501697540283
245,39358,39342,-0.005309147760272026,-0.2640319764614105,0.8219031095504761,-5.135295391082764,1.871679425239563,8.096367835998535,1.8875669240951538,3.8830018043518066,0.31199538707733154,-0.8218148946762085,0.8670979142189026,-1.1382406949996948
246,39368,39352,-0.003695456078276038,0.10345800220966339,0.9721145033836365,-1.5701491832733154,1.450372338294983,9.029009819030762,1.88869047164917,3.884763717651367,0.311620831489563,-0.6771303415298462,0.7844290733337402,-1.0293900966644287
247,39378,39362,0.008684003725647926,0.1207689717411995,0.9683401584625244,0.8253840208053589,-5.4305877685546875,9.468441009521484,1.8876423835754395,3.8861560821533203,0.31119000911712646,-0.7074349522590637,0.7567107677459717,-0.9557802081108093
248,39388,39372,-0.04204292595386505,0.032432470470666885,0.962648868560791,3.3212382793426514,-12.470123291015625,10.195650100708008,1.8860186338424683,3.885206460952759,0.31089913845062256,-0.5218577980995178,0.923314094543457,-0.8401013016700745
249,39398,39382,0.02041437104344368,-0.020597996190190315,0.9396576881408691,1.7897403240203857,-10.452194213867188,11.752909660339355,1.8865528106689453,3.885162353515625,0.31357118487358093,-0.443857342004776,1.0106757879257202,-0.7494344711303711
250,39408,39392,-0.010406439192593098,-0.08098486810922623,1.035641074180603,1.2409309148788452,-9.972138404846191,12.580256462097168,1.8856310844421387,3.8824918270111084,0.31329113245010376,-0.30225008726119995,1.0004663467407227,-0.648829460144043
251,39418,39402,-0.05623817443847656,0.048006754368543625,1.0698060989379883,-4.98839807510376,-11.712911605834961,13.786259651184082,1.8862169981002808,3.881967544555664,0.3128964304924011,-0.3304484486579895,1.0831066370010376,-0.5143143534660339
252,39428,39412,-0.02550189383327961,0.1593000739812851,0.9423974752426147,-7.479522705078125,-2.581775665283203,15.387405395507812,1.885615587234497,3.8817801475524902,0.312918096780777,-0.2619151473045349,0.9364816546440125,-0.3649010956287384
253,39438,39422,-0.1953231394290924,0.5271175503730774,1.1604288816452026,-12.652616500854492,12.005311012268066,14.976258277893066,1.8873775005340576,3.8804755210876465,0.3133825361728668,-0.2627413868904114,0.8974848985671997,-0.21187865734100342
254,39448,39432,-0.2810658812522888,0.7760338187217712,1.1677435636520386,-18.294071197509766,20.595258712768555,14.67662239074707,1.8882255554199219,3.8815407752990723,0.31326666474342346,-0.465250164270401,0.6891657710075378,-0.09206178039312363
255,39458,39442,-0.16089200973510742,0.6338154077529907,1.1093789339065552,-17.865802764892578,28.417827606201172,12.965462684631348,1.8892483711242676,3.880042314529419,0.3131880462169647,-0.7888866662979126,0.5224391222000122,0.05353056639432907
256,39468,39452,-0.033262938261032104,0.22240325808525085,1.1510976552963257,-18.39289665222168,24.77205467224121,12.482030868530273,1.8904250860214233,3.880509614944458,0.3169454336166382,-1.0564876794815063,0.5059524178504944,0.20875953137874603
257,39478,39462,5.385304393712431e-05,0.056284062564373016,1.008331298828125,-18.73870277404785,20.281736373901367,10.29329776763916,1.8910620212554932,3.8807642459869385,0.3172398805618286,-1.355542778968811,0.2954990863800049,0.3188212811946869
258,39488,39472,-0.013670352287590504,0.2842973470687866,0.9921924471855164,-15.255457878112793,13.257010459899902,9.692057609558105,1.892012119293213,3.8787786960601807,0.3177289664745331,-1.5104080438613892,0.11899103969335556,0.44278764724731445
259,39498,39482,0.027889152988791466,0.3125484585762024,1.0646541118621826,-8.435186386108398,1.532025694847107,10.235517501831055,1.8932193517684937,3.878464460372925,0.31876254081726074,-1.6179935932159424,0.009948390536010265,0.561492383480072
260,39508,39492,0.055865466594696045,0.14532536268234253,1.102981686592102,-2.601731061935425,-3.765176773071289,9.90147876739502,1.8938748836517334,3.877479314804077,0.3193618357181549,-1.5015779733657837,-0.06391030550003052,0.669186532497406
261,39518,39502,0.0227171890437603,0.06733348220586777,1.0846887826919556,2.0197911262512207,-13.30274486541748,10.119075775146484,1.894665241241455,3.8770532608032227,0.3200479745864868,-1.4317033290863037,-0.05056295916438103,0.8168503046035767
262,39528,39512,0.009956594556570053,-0.04450942948460579,0.9474122524261475,4.423705577850342,-20.094640731811523,9.828868865966797,1.8941364288330078,3.877089262008667,0.32095614075660706,-1.2219610214233398,-0.06412690877914429,0.8950345516204834
263,39538,39522,0.08815176784992218,-0.15748420357704163,0.8911292552947998,1.96094810962677,-15.450177192687988,9.070956230163574,1.8952865600585938,3.876857042312622,0.3217741549015045,-1.2099848985671997,-0.05401371046900749,1.0122590065002441
264,39548,39532,0.12505917251110077,-0.11031226813793182,0.9110646843910217,1.0278549194335938,-16.514671325683594,9.7006196975708,1.895533800125122,3.8764688968658447,0.3226458728313446,-1.0338584184646606,-0.061360787600278854,1.1134785413742065
265,39558,39542,0.09332896769046783,-0.0026683255564421415,0.990353524684906,-6.826317310333252,-4.187279224395752,8.521571159362793,1.8982067108154297,3.8758950233459473,0.3232158422470093,-1.0042976140975952,0.15529024600982666,1.264074444770813
266,39568,39552,-0.011924376711249352,-0.11610327661037445,0.8759987354278564,-6.89337158203125,-1.2234680652618408,7.94596529006958,1.8990259170532227,3.87715482711792,0.323576956987381,-0.9713407754898071,0.05007291957736015,1.3177322149276733
267,39578,39562,-0.09240292012691498,0.05227753520011902,0.8543424010276794,-13.980814933776855,8.713719367980957,7.7779035568237305,1.901112675666809,3.8746440410614014,0.32399114966392517,-0.9094424247741699,-0.18224653601646423,1.374157428741455
268,39588,39572,-0.13803255558013916,0.7637720704078674,1.0008219480514526,-19.702312469482422,14.585248947143555,8.079136848449707,1.902185320854187,3.8737595081329346,0.32443931698799133,-1.0565788745880127,-0.2885619103908539,1.4596291780471802
269,39598,39582,-0.0553867369890213,0.5053786635398865,0.9901725649833679,-16.68206787109375,12.30300235748291,8.00935173034668,1.902855396270752,3.874473810195923,0.3277561068534851,-1.1653391122817993,-0.5429784059524536,1.5308876037597656
270,39608,39592,-0.012560868635773659,0.5259982943534851,1.0693622827529907,-16.29469108581543,0.18883824348449707,6.016843795776367,1.904754877090454,3.8735501766204834,0.328212708234787,-1.3841798305511475,-0.7042871117591858,1.6180304288864136
271,39618,39602,0.283107727766037,0.5949414968490601,0.8730762004852295,-4.759438514709473,-8.424371719360352,7.150819301605225,1.9057058095932007,3.8736038208007812,0.32875627279281616,-1.3563951253890991,-0.7227098941802979,1.6855558156967163
272,39628,39612,-0.2353876233100891,1.1987553834915161,1.0729612112045288,3.563234806060791,-13.746746063232422,4.787008762359619,1.908183217048645,3.872967004776001,0.32731881737709045,-1.1533528566360474,-0.6889957189559937,1.7662885189056396
273,39638,39622,0.047706324607133865,0.15235109627246857,0.8780381679534912,6.392662048339844,-19.499557495117188,3.756770372390747,1.9095022678375244,3.871384620666504,0.32772964239120483,-0.9371638298034668,-0.6953350901603699,1.8010966777801514
274,39648,39632,-0.010086866095662117,0.07352796196937561,0.9900863766670227,6.683061122894287,-18.617359161376953,2.029700756072998,1.9099295139312744,3.8703858852386475,0.3282872438430786,-0.6347925066947937,-0.6536597609519958,1.823152780532837
275,39658,39642,-0.0821060836315155,0.4718777537345886,0.9432331323623657,4.453800201416016,-20.62076759338379,1.8628294467926025,1.9105652570724487,3.8699543476104736,0.32871395349502563,-0.6982073783874512,-0.6015141606330872,1.8648496866226196
276,39668,39652,0.08292951434850693,0.1559334397315979,0.9526134133338928,-0.5780287384986877,-9.759028434753418,0.8683468699455261,1.9101849794387817,3.8691611289978027,0.32692116498947144,-0.39375466108322144,-0.5979029536247253,1.8388056755065918
277,39678,39662,-0.08129804581403732,0.3364619016647339,0.9305951595306396,-3.0288872718811035,-18.505104064941406,1.2324434518814087,1.9140844345092773,3.8680148124694824,0.32687366008758545,-0.033890124410390854,-0.6504582762718201,1.79503333568573
278,39688,39672,-0.06863846629858017,0.5858603715896606,0.9354678988456726,-5.169264316558838,-21.901399612426758,1.5230051279067993,1.9152438640594482,3.867777109146118,0.3270018398761749,-0.04473542794585228,-0.5198866724967957,1.8542088270187378
279,39698,39682,-0.006620863452553749,0.07303884625434875,0.9157539010047913,-6.979862689971924,-12.026721000671387,0.9104592800140381,1.9146100282669067,3.867192268371582,0.32198238372802734,0.16978661715984344,-0.7200011014938354,1.834396243095398
280,39708,39692,0.026175087317824364,-0.13301576673984528,0.9058424830436707,-15.629642486572266,2.496774673461914,-0.8411946892738342,1.9174836874008179,3.8653037548065186,0.32146406173706055,0.19001369178295135,-0.7186294794082642,1.8512464761734009
281,39718,39702,0.08213271200656891,-0.05338726192712784,0.8997610211372375,-13.481346130371094,9.271039962768555,-1.0412977933883667,1.9181283712387085,3.865715265274048,0.32102373242378235,0.25881004333496094,-0.9323211908340454,1.831385612487793
282,39728,39712,-0.1469910740852356,0.42514768242836,1.116539716720581,-7.978596210479736,11.579533576965332,-2.1865651607513428,1.9203391075134277,3.864579916000366,0.3205956220626831,0.1992015689611435,-1.1463254690170288,1.7861270904541016
283,39738,39722,-0.06674553453922272,0.16885562241077423,1.0071324110031128,-3.700770616531372,8.659751892089844,-2.3940324783325195,1.9203919172286987,3.8647472858428955,0.32009291648864746,0.06021338328719139,-1.1101350784301758,1.7940293550491333
284,39748,39732,0.17008256912231445,0.388933390378952,1.0299806594848633,7.413793563842773,0.32180896401405334,-1.8916213512420654,1.9212979078292847,3.8648459911346436,0.31953656673431396,0.13891951739788055,-1.1379157304763794,1.7886587381362915
285,39758,39742,0.07118171453475952,0.630837619304657,1.0438061952590942,10.851856231689453,-3.408799886703491,-2.5031797885894775,1.9228047132492065,3.863579750061035,0.3176742196083069,0.05088108032941818,-1.0531806945800781,1.7831047773361206
286,39768,39752,0.04425396770238876,0.251925528049469,1.0067760944366455,11.802868843078613,-10.945443153381348,-1.2971251010894775,1.921738624572754,3.864306688308716,0.31711700558662415,0.20639833807945251,-0.9182419180870056,1.7770689725875854
287,39778,39762,0.03915349766612053,-0.12320934981107712,0.8662943840026855,6.550482749938965,-4.033782005310059,-1.9081146717071533,1.9235583543777466,3.8643927574157715,0.31642603874206543,0.35285136103630066,-0.7777180075645447,1.7489837408065796
288,39788,39772,0.08447609841823578,-0.30373674631118774,0.8207126259803772,3.5219228267669678,-12.16600227355957,-1.7850176095962524,1.9239280223846436,3.864348888397217,0.31590935587882996,0.3423309326171875,-0.7226496338844299,1.739729642868042
289,39798,39782,0.014614677987992764,0.1316489428281784,0.9864715933799744,-0.35020291805267334,-6.801785469055176,-1.007391095161438,1.9241293668746948,3.863389730453491,0.3161504864692688,0.4542485773563385,-0.7505081295967102,1.7207263708114624
290,39808,39792,-0.12658627331256866,0.07835162431001663,1.0963295698165894,-7.622811317443848,0.7330766320228577,-1.0168839693069458,1.925647258758545,3.86246919631958,0.3152528703212738,0.3525215983390808,-0.775467574596405,1.7459110021591187
291,39818,39802,-0.0705660730600357,0.00413957703858614,0.9919053316116333,-9.73903751373291,-0.18370111286640167,-2.5015485286712646,1.9268627166748047,3.862907886505127,0.3144473731517792,0.34760794043540955,-0.962562620639801,1.7514632940292358
292,39828,39812,-0.08900576084852219,0.09107476472854614,1.0100829601287842,-8.597023010253906,4.87178373336792,-2.211841106414795,1.9293301105499268,3.8622539043426514,0.31234675645828247,0.414725124835968,-1.061984658241272,1.6743879318237305
293,39838,39822,-0.19603489339351654,0.12701502442359924,1.2018979787826538,-4.733818054199219,2.0823588371276855,-2.004926919937134,1.9302111864089966,3.863835573196411,0.31152161955833435,0.36306071281433105,-1.1322895288467407,1.6900010108947754
294,39848,39832,0.019420066848397255,0.12508314847946167,1.0931740999221802,3.182316780090332,-7.431894779205322,-1.1964073181152344,1.93036687374115,3.8637213706970215,0.3108283579349518,0.4618273377418518,-1.1775320768356323,1.6490176916122437
295,39858,39842,-0.005174676422029734,0.21193444728851318,1.086309552192688,9.733363151550293,2.387479782104492,-1.4434645175933838,1.9313931465148926,3.8635785579681396,0.30878472328186035,0.3869001865386963,-1.082718014717102,1.67766535282135
296,39868,39852,-0.04762418940663338,0.11975522339344025,1.0518513917922974,15.964436531066895,0.3529027998447418,-1.9748694896697998,1.9308005571365356,3.8634090423583984,0.3082614541053772,0.3406156599521637,-0.8941009044647217,1.6408867835998535
297,39878,39862,0.08577919006347656,-0.14929397404193878,0.9562088847160339,14.66148567199707,-5.6893205642700195,-0.9397973418235779,1.9324616193771362,3.8625717163085938,0.3076896369457245,0.380657434463501,-0.7421523928642273,1.5716434717178345
298,39888,39872,0.16455690562725067,-0.19077442586421967,0.8657857179641724,10.47029972076416,-5.892646789550781,-0.7202850580215454,1.9338078498840332,3.862522840499878,0.3071422874927521,0.4116329252719879,-0.5517368912696838,1.5908373594284058
299,39898,39882,-0.04736853018403053,-0.0395800806581974,0.8812863230705261,7.158076286315918,-8.944704055786133,-1.3681416511535645,1.9338785409927368,3.861801862716675,0.3081379532814026,0.5358603000640869,-0.5130897164344788,1.5877808332443237
300,39908,39892,-0.08685749769210815,0.111343614757061,1.0128108263015747,1.0537663698196411,2.4531667232513428,-1.0914313793182373,1.9352126121520996,3.860950469970703,0.30751827359199524,0.5372130870819092,-0.5567267537117004,1.5932198762893677
301,39918,39902,-0.04258392006158829,-0.10540410876274109,1.0366969108581543,-4.804435729980469,-2.93926739692688,-0.5372430682182312,1.9353609085083008,3.8615505695343018,0.30696168541908264,0.6259564161300659,-0.6893414258956909,1.5673173666000366
302,39928,39912,0.09608844667673111,-0.13929711282253265,0.9308716058731079,-7.83410120010376,-1.4117563962936401,-1.1042392253875732,1.9367436170578003,3.8615851402282715,0.3072529733181,0.558487057685852,-0.7217487692832947,1.552579641342163
303,39938,39922,0.04364055395126343,-0.03171173110604286,0.9211315512657166,-3.6038546562194824,1.5696574449539185,-0.22507891058921814,1.9365026950836182,3.8630402088165283,0.30679208040237427,0.6216245293617249,-0.8243456482887268,1.5336484909057617
304,39948,39932,-0.08396421372890472,-0.17090117931365967,1.0071072578430176,3.669750452041626,7.633945465087891,-0.1686132252216339,1.9369996786117554,3.8625307083129883,0.306167870759964,0.4715108275413513,-0.8347846865653992,1.4915434122085571
305,39958,39942,0.0702020600438118,-0.23454512655735016,0.9634413123130798,7.598191261291504,6.4180121421813965,0.05813003331422806,1.9372178316116333,3.862727403640747,0.3060591518878937,0.3693373501300812,-0.6646691560745239,1.4934966564178467
306,39968,39952,0.07382103055715561,-0.21824216842651367,0.8649336695671082,12.188838005065918,9.152181625366211,-0.738005518913269,1.9386030435562134,3.8621370792388916,0.3054118752479553,0.12164545059204102,-0.5171815156936646,1.474909782409668
307,39978,39962,0.003281613579019904,0.02858838438987732,0.9951912760734558,9.250717163085938,9.530884742736816,-0.6076517105102539,1.9394868612289429,3.8606534004211426,0.30474981665611267,0.1836586892604828,-0.42253047227859497,1.424369215965271
308,39988,39972,0.042640943080186844,-0.052916429936885834,1.0125130414962769,8.088467597961426,7.900783538818359,-0.5019806027412415,1.9418604373931885,3.8597469329833984,0.303801953792572,0.08220770210027695,-0.3754376173019409,1.4139994382858276
309,39998,39982,-0.04973990470170975,0.1079159677028656,1.044622778892517,1.151688575744629,1.3883076906204224,-0.3805975615978241,1.9411907196044922,3.8589534759521484,0.30743613839149475,-0.0660664290189743,-0.26427072286605835,1.4174041748046875
310,40008,39992,0.11045370995998383,0.11492660641670227,0.9352406859397888,-0.17006206512451172,-1.6835525035858154,-1.1754423379898071,1.9427859783172607,3.8594677448272705,0.30694305896759033,-0.09086968004703522,-0.25950750708580017,1.4158328771591187
311,40018,40002,0.008782963268458843,0.07314963638782501,1.0995266437530518,-2.3605761528015137,-1.881531834602356,-1.5872063636779785,1.943902850151062,3.8591372966766357,0.3063655197620392,0.10304288566112518,-0.2844683527946472,1.3780916929244995
312,40028,40012,-0.015599306672811508,0.07450409233570099,1.16856050491333,-4.653270721435547,-5.976351737976074,-0.7977600693702698,1.9453861713409424,3.859227180480957,0.3062428832054138,0.16703863441944122,-0.33820366859436035,1.350401759147644
313,40038,40022,0.004632779862731695,0.15648961067199707,1.1147257089614868,-2.174929141998291,-12.017698287963867,-0.47187095880508423,1.945056438446045,3.8589587211608887,0.3060790002346039,0.22978940606117249,-0.4763319194316864,1.3348736763000488
314,40048,40032,-0.05383359640836716,0.18678966164588928,1.1486040353775024,-1.5964657068252563,-7.3324432373046875,-0.5570281744003296,1.945609211921692,3.8584671020507812,0.30585238337516785,0.3865785598754883,-0.4889799952507019,1.3146085739135742
315,40058,40042,0.013342613354325294,-0.005115712992846966,1.0169674158096313,3.2828803062438965,0.620481014251709,-1.7091481685638428,1.946984052658081,3.859574317932129,0.3044812083244324,0.322644978761673,-0.46084341406822205,1.3241194486618042
316,40068,40052,-0.012542466633021832,-0.05311082676053047,0.9936725497245789,6.087660312652588,7.111087322235107,-1.7444076538085938,1.9477170705795288,3.859877586364746,0.3044341206550598,0.2804745137691498,-0.36663928627967834,1.3073434829711914
317,40078,40062,-0.006753585767000914,-0.1036827489733696,1.019038438796997,7.177683353424072,9.016350746154785,-1.2811495065689087,1.9498270750045776,3.859793186187744,0.30434468388557434,0.26718559861183167,-0.2483292520046234,1.2824500799179077
318,40088,40072,0.014484744518995285,-0.08598153293132782,0.9958384037017822,4.381813049316406,10.765137672424316,-1.6356879472732544,1.950590968132019,3.8595519065856934,0.3043994605541229,0.11567673087120056,-0.12771427631378174,1.2367408275604248
319,40098,40082,0.04500611498951912,-0.02499634213745594,0.9585359692573547,3.7218024730682373,3.7159924507141113,-0.8179580569267273,1.9511992931365967,3.8587121963500977,0.3057357668876648,0.013497239910066128,-0.13829544186592102,1.218806266784668
320,40108,40092,-0.03369438275694847,0.09596502035856247,1.0485851764678955,0.8878419995307922,1.8056213855743408,-1.8504070043563843,1.9527676105499268,3.858194589614868,0.3057669699192047,0.044544488191604614,-0.09404896199703217,1.2090052366256714
321,40118,40102,-0.05772688612341881,0.1341436356306076,1.1067442893981934,-3.0359973907470703,-3.1823995113372803,-2.555274724960327,1.954501986503601,3.8586795330047607,0.30588120222091675,0.1311742663383484,-0.19246113300323486,1.2190479040145874
322,40128,40112,-0.045339185744524,0.2638368606567383,1.1011849641799927,-4.801845550537109,0.8688229322433472,-3.388868808746338,1.9550796747207642,3.858839750289917,0.3061782419681549,0.0779399648308754,-0.24797779321670532,1.2006679773330688
323,40138,40122,-0.08978532999753952,0.06658224761486053,1.064985752105713,-3.5496835708618164,-3.6518025398254395,-2.0557706356048584,1.9542763233184814,3.8604650497436523,0.3065009117126465,0.20928604900836945,-0.3805578947067261,1.1490731239318848
324,40148,40132,-0.04720064252614975,-0.035439591854810715,1.0306129455566406,-2.8454184532165527,-1.3758699893951416,-2.1978397369384766,1.9553519487380981,3.860154390335083,0.30679234862327576,0.07748933881521225,-0.4216335713863373,1.08194100856781
325,40158,40142,0.008543130941689014,-0.07097622007131577,0.9287341833114624,1.87917160987854,-3.889753580093384,-3.0931897163391113,1.9554706811904907,3.861170530319214,0.3099968731403351,0.10155785083770752,-0.3991612195968628,1.0797265768051147
326,40168,40152,-0.016133802011609077,-0.0642329603433609,0.9929699897766113,4.617504596710205,2.1450765132904053,-2.787172555923462,1.9578710794448853,3.8607170581817627,0.31049883365631104,0.18959946930408478,-0.3551397919654846,1.0060769319534302
327,40178,40162,-0.041922204196453094,-0.014913518913090229,0.9982508420944214,8.504494667053223,-4.667738914489746,-2.6526284217834473,1.958537220954895,3.8607141971588135,0.31101956963539124,0.11281552165746689,-0.3270278871059418,1.0010768175125122
328,40188,40172,-0.030578473582863808,-0.06208190321922302,0.9427558779716492,9.03477668762207,-1.496820330619812,-2.4780075550079346,1.9587883949279785,3.860236883163452,0.3117695152759552,0.05319512262940407,-0.18013562262058258,0.9593968391418457
329,40198,40182,0.0271794181317091,-0.18207120895385742,0.9142250418663025,6.727439880371094,0.6519047021865845,-2.915830373764038,1.9601256847381592,3.859645128250122,0.3122250437736511,-0.008762883022427559,-0.12065303325653076,0.8825689554214478
330,40208,40192,0.09770398586988449,-0.04674338921904564,0.8814388513565063,4.607353210449219,-7.213029861450195,-2.051266670227051,1.9614744186401367,3.8597536087036133,0.31262460350990295,0.10276315361261368,-0.08101163059473038,0.908426821231842
331,40218,40202,-0.022796165198087692,-0.1402401477098465,0.8925952911376953,-1.5725891590118408,-1.799296259880066,-4.3666605949401855,1.9627323150634766,3.8601155281066895,0.3129046559333801,0.1428149789571762,-0.10208752751350403,0.8859846591949463
332,40228,40212,0.05784391611814499,-0.3079960346221924,0.7893977165222168,-3.200000524520874,-2.9283900260925293,-3.7146718502044678,1.962606430053711,3.860703468322754,0.31328460574150085,0.17811812460422516,-0.10672871768474579,0.8547585010528564
333,40238,40222,-0.020974893122911453,-0.04524115473031998,0.9088724255561829,-3.368703842163086,-2.8845772743225098,-4.009767532348633,1.963029146194458,3.861550807952881,0.313370943069458,0.1879916787147522,-0.13971489667892456,0.8233174085617065
334,40248,40232,-0.2288692593574524,0.11508342623710632,0.9260385036468506,1.0485297441482544,-2.6079890727996826,-3.7054545879364014,1.96369469165802,3.861421823501587,0.31336715817451477,0.019506053999066353,-0.16128839552402496,0.7004843950271606
335,40258,40242,0.01603379286825657,-0.18810978531837463,0.901823878288269,0.645949125289917,2.7973785400390625,-3.5912957191467285,1.9645622968673706,3.862434148788452,0.3186801075935364,0.09937148541212082,-0.14878292381763458,0.7142868041992188
336,40268,40252,-0.013526001013815403,0.09264863282442093,0.9706186652183533,3.587195634841919,-3.0986573696136475,-2.8658127784729004,1.9659327268600464,3.862032651901245,0.3186955749988556,-0.00042831513565033674,-0.10533652454614639,0.6641355752944946
337,40278,40262,0.0015604451764374971,-0.11145658791065216,0.8391733169555664,3.775278091430664,-3.5987699031829834,-3.885902166366577,1.966152310371399,3.8617682456970215,0.3188893496990204,0.09686697274446487,-0.11637713015079498,0.6548076868057251
338,40288,40272,0.026963435113430023,-0.16714079678058624,0.8825641870498657,0.9858840107917786,-2.5714666843414307,-4.81245231628418,1.9680993556976318,3.8623201847076416,0.3203265368938446,0.22381840646266937,-0.04677034541964531,0.6857800483703613
339,40298,40282,-0.002455068752169609,-0.06959269195795059,0.9200579524040222,3.29860782623291,-4.063107967376709,-5.014150142669678,1.967685341835022,3.863351583480835,0.32043781876564026,0.20011958479881287,-0.11501546949148178,0.6049786806106567
340,40308,40292,-0.07172569632530212,0.010740282014012337,0.9946019649505615,5.2160773277282715,-4.217052459716797,-5.052325248718262,1.9675358533859253,3.864168405532837,0.3204647898674011,0.14756476879119873,-0.06088951975107193,0.5842365026473999
341,40318,40302,-0.06633651256561279,-0.0015744160627946258,0.9722171425819397,7.598266124725342,1.363210916519165,-4.323283672332764,1.9695950746536255,3.8654401302337646,0.32034239172935486,0.2617848813533783,-0.03159760683774948,0.4952224791049957
342,40328,40312,0.04962528496980667,-0.21342937648296356,0.8501226305961609,7.802831649780273,-1.9713090658187866,-3.770587921142578,1.9713258743286133,3.8648154735565186,0.3240381181240082,0.25579944252967834,0.10673923790454865,0.46131718158721924
343,40338,40322,0.024490967392921448,-0.028768200427293777,0.8567509651184082,4.6420674324035645,5.041756629943848,-5.02998685836792,1.9715605974197388,3.864987373352051,0.3241444528102875,0.3163345158100128,0.15676774084568024,0.4511111378669739
344,40348,40332,0.0678265169262886,-0.05014456436038017,0.8404749035835266,3.5863280296325684,1.8878206014633179,-3.7125282287597656,1.9726850986480713,3.864633560180664,0.32404825091362,0.27280545234680176,0.2673751711845398,0.3939421772956848
345,40358,40342,0.012967820279300213,-0.17290160059928894,0.9370043277740479,2.657210111618042,-3.3084304332733154,-3.5342063903808594,1.9726945161819458,3.865624189376831,0.32346343994140625,-0.005496147088706493,0.18758386373519897,0.31401532888412476
346,40368,40352,-0.0005330949206836522,0.0921165868639946,1.0780175924301147,0.9008049964904785,-2.7035717964172363,-3.518022060394287,1.9732301235198975,3.8648459911346436,0.3231022357940674,0.027180491015315056,0.16693991422653198,0.2779604196548462
347,40378,40362,0.08065331727266312,-0.19360584020614624,0.8701112866401672,-3.4836292266845703,-1.9275134801864624,-4.368875980377197,1.976100206375122,3.8657455444335938,0.32261934876441956,0.13163812458515167,0.1748025119304657,0.2311951071023941
348,40388,40372,0.0021669864654541016,0.1609133630990982,0.8561602234840393,-6.577515602111816,-1.8060272932052612,-6.126681804656982,1.9767879247665405,3.8668689727783203,0.322164386510849,0.23433782160282135,0.1627025604248047,0.23587185144424438
349,40398,40382,-0.035305142402648926,0.13548485934734344,0.9476656317710876,-2.148085594177246,-4.85386323928833,-5.976612091064453,1.977476716041565,3.8670785427093506,0.3216632902622223,0.19162613153457642,0.10640973597764969,0.1824663132429123
350,40408,40392,0.01362931914627552,-0.05181038752198219,0.9531771540641785,2.4267446994781494,-1.7691173553466797,-6.899069309234619,1.9773674011230469,3.8675103187561035,0.321102112531662,0.24383272230625153,0.10034863650798798,0.1610834151506424
351,40418,40402,0.04856684058904648,-0.23972347378730774,0.9612998366355896,10.674386978149414,-0.28921249508857727,-6.254956245422363,1.978614091873169,3.868154525756836,0.3204023838043213,0.2932981848716736,0.042020540684461594,0.059018053114414215
352,40428,40412,-0.03213900327682495,0.0025921377819031477,1.037051796913147,11.233321189880371,4.044926166534424,-6.465118408203125,1.9791194200515747,3.8685073852539062,0.3263978660106659,0.3079087734222412,0.2238788604736328,0.025308769196271896
353,40438,40422,0.014532756991684437,0.4659592807292938,1.0384620428085327,10.535272598266602,14.848000526428223,-6.737181663513184,1.9796916246414185,3.869415521621704,0.3260605037212372,0.2899734377861023,0.3575604259967804,-0.049493975937366486
354,40448,40432,0.0231681726872921,0.08030898123979568,0.9697533249855042,5.763741970062256,13.404195785522461,-5.037601947784424,1.9806315898895264,3.8687245845794678,0.325798362493515,0.11728989332914352,0.38449108600616455,-0.08979064226150513
355,40458,40442,0.032975565642118454,-0.24305257201194763,0.9338682293891907,2.393232822418213,10.201313972473145,-6.476326942443848,1.9814133644104004,3.868839740753174,0.32736316323280334,0.0012262733653187752,0.35526153445243835,-0.16113945841789246
356,40468,40452,0.0717889741063118,0.05382819101214409,1.0537165403366089,-0.9465469717979431,8.123801231384277,-6.251849174499512,1.982625961303711,3.869675636291504,0.32712069153785706,-0.24469861388206482,0.34787553548812866,-0.27008846402168274
357,40478,40462,0.013081167824566364,-0.029958100989460945,0.9905403852462769,-0.7682499885559082,4.929811477661133,-4.433274269104004,1.9828964471817017,3.871061325073242,0.3269564211368561,-0.2916101813316345,0.3842666745185852,-0.2951352298259735
358,40488,40472,-0.01784508116543293,-0.14497853815555573,0.9016247987747192,-0.5968817472457886,0.4398975074291229,-3.709855556488037,1.984700322151184,3.871695041656494,0.3295195400714874,-0.5176116824150085,0.4132506847381592,-0.37245801091194153
359,40498,40482,-0.009033246897161007,-0.03620908781886101,0.9822019338607788,-0.4538474678993225,-2.2747602462768555,-3.6273694038391113,1.9848036766052246,3.871248483657837,0.32947838306427,-0.5838612914085388,0.4378111660480499,-0.41059091687202454
360,40508,40492,0.02113509736955166,-0.06707802414894104,1.0068836212158203,1.841259479522705,-5.460395336151123,-3.5151875019073486,1.987233281135559,3.8712871074676514,0.32920360565185547,-0.502707302570343,0.38543909788131714,-0.4281156361103058
361,40518,40502,0.06993874162435532,-0.05161873251199722,0.9442203640937805,7.8371663093566895,-5.114034652709961,-4.194469451904297,1.9889822006225586,3.871243715286255,0.3303720951080322,-0.3016584515571594,0.4635028541088104,-0.4356192648410797
362,40528,40512,0.03551066666841507,-0.19438356161117554,0.872951090335846,11.95376968383789,-7.962833881378174,-3.70615816116333,1.9888824224472046,3.872667074203491,0.3303711414337158,-0.3366308808326721,0.5433648228645325,-0.4475494921207428
363,40538,40522,0.09680891782045364,-0.05658499896526337,0.9132813215255737,11.985581398010254,-11.769718170166016,-4.489936828613281,1.9886093139648438,3.872807741165161,0.33041295409202576,-0.2267797440290451,0.7168875336647034,-0.5141534805297852
364,40548,40532,0.06319836527109146,-0.17336183786392212,0.806958794593811,9.197964668273926,-11.956570625305176,-5.3758087158203125,1.9900858402252197,3.872737407684326,0.33009958267211914,-0.3293473422527313,0.6622441411018372,-0.5149379968643188
365,40558,40542,0.0326848030090332,-0.20323848724365234,0.8912001848220825,5.774989128112793,-13.531448364257812,-5.396588325500488,1.9914606809616089,3.8737895488739014,0.3334571421146393,0.019729062914848328,0.7618867754936218,-0.5530564188957214
366,40568,40552,-0.01588713377714157,0.06864333897829056,1.0450987815856934,0.9250338673591614,-7.926281452178955,-4.600579261779785,1.9935232400894165,3.874086856842041,0.3330768048763275,0.024194147437810898,0.8720691204071045,-0.6523199677467346
367,40578,40562,0.049922313541173935,-0.10646650940179825,0.8637012243270874,-3.471843719482422,-6.565763473510742,-5.111373424530029,1.9922244548797607,3.8751962184906006,0.33298295736312866,0.2135908454656601,0.8177369236946106,-0.7047093510627747
368,40588,40572,0.07501859962940216,0.34701117873191833,0.8682702779769897,-8.72653865814209,-1.3362725973129272,-4.760009765625,1.9944677352905273,3.874427318572998,0.3394683301448822,0.09087646752595901,0.7660969495773315,-0.8207482695579529
369,40598,40582,0.08848034590482712,0.8251559734344482,0.9600517153739929,-12.513941764831543,10.363115310668945,-3.432194709777832,1.9948402643203735,3.8753304481506348,0.3394789397716522,0.21243837475776672,0.6410884857177734,-0.8524273037910461
370,40608,40592,0.019406747072935104,0.09063196182250977,0.9240270256996155,-10.111600875854492,7.262365818023682,-3.282341957092285,1.9976674318313599,3.8750641345977783,0.3392447233200073,0.22162728011608124,0.5607884526252747,-0.8990581631660461
371,40618,40602,0.0719287097454071,-0.004084939137101173,0.9857207536697388,-11.019088745117188,3.296369791030884,-3.097262144088745,1.9976836442947388,3.8752145767211914,0.33805909752845764,-0.02021968923509121,0.4005475640296936,-0.9966736435890198
372,40628,40612,-0.04911026731133461,0.40967845916748047,1.0568188428878784,-9.538436889648438,5.830552101135254,-4.357048034667969,1.9976929426193237,3.8761258125305176,0.3378581404685974,0.017738381400704384,0.3342673182487488,-0.994409441947937
373,40638,40622,-0.08311809599399567,0.5300692915916443,1.0584911108016968,-5.9384026527404785,-0.8690676093101501,-3.8768975734710693,1.9999653100967407,3.875826835632324,0.3374621272087097,0.06507904082536697,0.22257989645004272,-0.9847553968429565
374,40648,40632,-0.15666554868221283,0.26753494143486023,1.106115698814392,-1.418194055557251,-8.417052268981934,-4.573558330535889,2.000035285949707,3.87581467628479,0.33743637800216675,0.0951899066567421,0.16853879392147064,-1.0076360702514648
375,40658,40642,-0.030649056658148766,0.04210029914975166,1.0499588251113892,5.647684574127197,-9.729463577270508,-6.7059502601623535,2.0010294914245605,3.876803159713745,0.3422791361808777,0.13987024128437042,0.19901803135871887,-1.0848581790924072
376,40668,40652,-0.03638351336121559,-0.056598175317049026,0.9547902941703796,9.07927417755127,-9.465977668762207,-7.574641227722168,2.0013906955718994,3.876429557800293,0.3425779938697815,0.2262239307165146,0.23859189450740814,-1.1650426387786865
377,40678,40662,0.011550751514732838,-0.04132959619164467,0.8814122080802917,11.121089935302734,-6.374809741973877,-8.150257110595703,2.0025699138641357,3.8764331340789795,0.34283846616744995,0.46506109833717346,0.4188089966773987,-1.2831286191940308
378,40688,40672,-0.030928008258342743,-0.06205477565526962,0.9331043362617493,14.0535306930542,-1.0009286403656006,-8.033549308776855,2.00335693359375,3.8755311965942383,0.3423324227333069,0.32093799114227295,0.4739273190498352,-1.4594049453735352
379,40698,40682,0.022425435483455658,-0.04086859151721001,0.8880457282066345,14.932413101196289,3.949414014816284,-6.748099327087402,2.002836227416992,3.874629259109497,0.34245339035987854,0.27637356519699097,0.5746483206748962,-1.5699950456619263
380,40708,40692,0.10331602394580841,-0.16334114968776703,0.8031654953956604,12.58498477935791,3.284787178039551,-5.767510414123535,2.0055713653564453,3.873861312866211,0.34226977825164795,0.4232878088951111,0.7450830340385437,-1.6341562271118164
381,40718,40702,0.1054711565375328,-0.12738704681396484,0.8516789078712463,7.5977559089660645,5.327300548553467,-4.639562129974365,2.0071818828582764,3.87423038482666,0.34224721789360046,0.4308362603187561,0.8811399340629578,-1.6818350553512573
382,40728,40712,0.09364763647317886,-0.1430898755788803,0.937474250793457,2.91723895072937,5.481913089752197,-2.5480797290802,2.0068373680114746,3.8740780353546143,0.34198182821273804,0.3456267714500427,0.9957915544509888,-1.7568870782852173
383,40738,40722,0.039738528430461884,-0.07173802703619003,0.9110510945320129,-3.5865306854248047,5.141490459442139,-1.9876368045806885,2.0071322917938232,3.8738627433776855,0.34158340096473694,0.25593799352645874,0.9397616386413574,-1.703634262084961
384,40748,40732,0.062444400042295456,0.22066619992256165,0.9275146126747131,-6.291936874389648,8.931663513183594,-1.6083680391311646,2.0082147121429443,3.8737010955810547,0.34106940031051636,0.17691850662231445,0.8882460594177246,-1.7239221334457397
385,40758,40742,-0.02260443940758705,0.03930859640240669,0.9450357556343079,-4.958865642547607,5.333080291748047,0.09509903937578201,2.00956392288208,3.875976085662842,0.34426558017730713,0.16740475594997406,0.8100208044052124,-1.6585910320281982
386,40768,40752,0.028748106211423874,-0.03175932914018631,0.927017092704773,-1.7974457740783691,-1.2841681241989136,1.0684635639190674,2.0107192993164062,3.8763740062713623,0.34386172890663147,0.19492167234420776,0.7640019655227661,-1.6590547561645508
387,40778,40762,0.07955940067768097,0.30075037479400635,0.9243301153182983,-0.6238004565238953,-2.999638557434082,2.4229941368103027,2.0106210708618164,3.8777849674224854,0.3434740900993347,0.32416418194770813,0.7598344087600708,-1.6832466125488281
388,40788,40772,-0.027375129982829094,1.2749561071395874,1.062940001487732,-3.86069393157959,-2.595743179321289,3.8535573482513428,2.0101537704467773,3.8770270347595215,0.3431946039199829,0.14003337919712067,0.7424070239067078,-1.7548638582229614
389,40798,40782,-0.10656937956809998,0.9786379933357239,1.0520833730697632,-5.293087005615234,0.6575843691825867,4.894054412841797,2.009321451187134,3.8772194385528564,0.34283149242401123,0.1792689710855484,0.6089665293693542,-1.6770249605178833
390,40808,40792,-0.024283114820718765,0.31839892268180847,0.9992169737815857,-4.040532112121582,3.5096261501312256,4.505486488342285,2.012007236480713,3.8762760162353516,0.3422606885433197,0.16179224848747253,0.5479183197021484,-1.67775559425354
391,40818,40802,-0.006220940966159105,-0.0031730078626424074,1.040604591369629,-0.5815309286117554,8.990142822265625,5.299686908721924,2.011744737625122,3.8767383098602295,0.34312257170677185,0.15555983781814575,0.5213757157325745,-1.6366311311721802
392,40828,40812,0.04239568114280701,0.7769194841384888,1.0644727945327759,2.7061798572540283,12.753905296325684,3.903696060180664,2.012643337249756,3.876984119415283,0.3427754044532776,0.06864453107118607,0.5477797985076904,-1.5472301244735718
393,40838,40822,-0.020375587046146393,0.7412890791893005,1.0065255165100098,5.51753568649292,4.114142894744873,3.9984846115112305,2.013061285018921,3.8769428730010986,0.3424900770187378,-0.023393964394927025,0.47143420577049255,-1.5405988693237305
394,40848,40832,-0.055780354887247086,0.3537111282348633,1.0145083665847778,6.381235122680664,6.310568332672119,3.947567939758301,2.0134260654449463,3.8775532245635986,0.3432026207447052,-0.03850579634308815,0.5957683324813843,-1.4640717506408691
395,40858,40842,-0.052195873111486435,0.18304654955863953,1.0774484872817993,0.5888429880142212,-0.9525898694992065,5.388833522796631,2.013827323913574,3.8786370754241943,0.343008428812027,-0.01564144343137741,0.5327646732330322,-1.4431421756744385
396,40868,40852,0.005578056443482637,-0.04370462894439697,0.9590569138526917,-9.733860969543457,-1.835943579673767,4.414387226104736,2.0137510299682617,3.877889394760132,0.34290632605552673,8.851749589666724e-05,0.5011870265007019,-1.3836653232574463
397,40878,40862,0.009527023881673813,0.24462389945983887,1.0326100587844849,-17.32107162475586,-3.109286069869995,3.637050151824951,2.014249324798584,3.8790459632873535,0.3428161144256592,-0.03219391778111458,0.3976856470108032,-1.4021037817001343
398,40888,40872,-0.03210446983575821,0.5216479301452637,1.0759721994400024,-19.651941299438477,-7.041273593902588,4.328864574432373,2.014444589614868,3.878868579864502,0.34423118829727173,0.1066446453332901,0.27225980162620544,-1.4519703388214111
399,40898,40882,-0.06027934327721596,0.2713070213794708,1.0116819143295288,-16.498817443847656,-7.809030055999756,6.2588419914245605,2.0154125690460205,3.8792076110839844,0.3442623019218445,0.08055688440799713,0.1455853283405304,-1.3728100061416626
400,40908,40892,-0.08669648319482803,0.12164339423179626,1.0457072257995605,-7.914942741394043,-2.967712163925171,7.257660865783691,2.0144870281219482,3.8777942657470703,0.34433868527412415,0.2568698823451996,0.0065868450328707695,-1.3270272016525269
401,40918,40902,-0.1384880542755127,0.26652514934539795,1.0892226696014404,-1.148484230041504,6.280522346496582,6.775433540344238,2.0160608291625977,3.87758731842041,0.3393903076648712,0.22536559402942657,-0.07945837825536728,-1.2510452270507812
402,40928,40912,-0.04260140284895897,0.08838046342134476,0.9994638562202454,10.637191772460938,3.4546003341674805,7.906965732574463,2.0155510902404785,3.877107620239258,0.33929917216300964,0.21903210878372192,-0.00024657489848323166,-1.0955032110214233
403,40938,40922,0.05038712918758392,0.4043372571468353,1.022106409072876,15.231711387634277,8.828085899353027,6.170289993286133,2.017017364501953,3.8782360553741455,0.3392125964164734,0.19155047833919525,0.1452871561050415,-1.0120999813079834
404,40948,40932,0.004028096795082092,0.5056143999099731,1.0330722332000732,7.82358980178833,8.860212326049805,5.532107353210449,2.0167360305786133,3.878217935562134,0.33670204877853394,0.22977696359157562,0.13579429686069489,-0.8887676000595093
405,40958,40942,-0.047722842544317245,0.28017956018447876,1.0580039024353027,4.376112461090088,-2.585238456726074,6.3184099197387695,2.016892194747925,3.8785197734832764,0.33654189109802246,0.13694055378437042,0.20613399147987366,-0.8915829062461853
406,40968,40952,0.019481275230646133,0.19003461301326752,1.0680595636367798,-5.838937759399414,-5.145846366882324,6.5250420570373535,2.015920877456665,3.880476474761963,0.33652931451797485,0.1551235020160675,0.15394027531147003,-0.8376118540763855
407,40978,40962,-0.0355684757232666,0.5966519117355347,1.0010507106781006,-12.4148530960083,-8.942390441894531,8.040203094482422,2.0164308547973633,3.8798465728759766,0.33649298548698425,0.0015861898427829146,0.04470678046345711,-0.8830282092094421
408,40988,40972,-0.04687773436307907,0.2423410713672638,0.9584120512008667,-15.03887939453125,-12.682138442993164,9.764323234558105,2.016122817993164,3.879446029663086,0.33692291378974915,0.21115045249462128,-0.16006071865558624,-0.8180511593818665
409,40998,40982,-0.04947708174586296,0.1125810444355011,1.0173953771591187,-12.803552627563477,-12.595904350280762,8.610788345336914,2.0185511112213135,3.8798770904541016,0.33676302433013916,0.2956661581993103,-0.21333396434783936,-0.7653988599777222
410,41008,40992,-0.019507497549057007,-0.012985749170184135,0.939170241355896,-7.73561954498291,-6.768982410430908,8.179640769958496,2.0176942348480225,3.880185127258301,0.33665379881858826,0.5104239583015442,-0.37003272771835327,-0.7205671668052673
411,41018,41002,-0.22122181951999664,0.6761185526847839,0.8039010167121887,-0.13202330470085144,-7.016271591186523,7.611858367919922,2.0184779167175293,3.8798747062683105,0.3355492055416107,0.6115216612815857,-0.3590957820415497,-0.649065375328064
412,41028,41012,-0.11523115634918213,0.5105166435241699,0.9343198537826538,6.497358322143555,-2.6904947757720947,7.701608657836914,2.017306089401245,3.879972219467163,0.33510345220565796,0.645174503326416,-0.37496137619018555,-0.6178433299064636
413,41038,41022,-0.08889402449131012,0.20396281778812408,1.0703214406967163,10.465691566467285,4.173530578613281,7.197753429412842,2.016566514968872,3.8773467540740967,0.3346358835697174,0.682636022567749,-0.20611430704593658,-0.5438017845153809
414,41048,41032,-0.15516476333141327,0.06312049180269241,1.0099265575408936,9.342205047607422,13.10184097290039,5.125746250152588,2.0170388221740723,3.8784608840942383,0.3304767608642578,0.6152645945549011,-0.16078239679336548,-0.3921814560890198
415,41058,41042,-0.1974247246980667,0.14896656572818756,0.991308867931366,5.601747035980225,14.9174165725708,2.586333990097046,2.0172371864318848,3.878560781478882,0.329860121011734,0.5824388265609741,-0.07609138637781143,-0.38995376229286194
416,41068,41052,-0.11867334693670273,0.28145456314086914,1.0525128841400146,2.592104196548462,18.836305618286133,0.34700238704681396,2.017902374267578,3.8795619010925293,0.32923123240470886,0.36765724420547485,-0.047727320343256,-0.32613226771354675
417,41078,41062,-0.23718012869358063,0.264554888010025,1.0572559833526611,3.8620059490203857,23.082324981689453,0.38478368520736694,2.0166947841644287,3.8793954849243164,0.32524681091308594,0.2759483754634857,-0.12785805761814117,-0.35281792283058167
418,41088,41072,-0.1347007006406784,0.12917229533195496,1.0068514347076416,7.061091899871826,19.143152236938477,1.2910484075546265,2.017061471939087,3.878638744354248,0.32439741492271423,-0.08606259524822235,-0.002825092989951372,-0.35526272654533386
419,41098,41082,-0.011351115070283413,0.16317127645015717,0.9454213976860046,12.361309051513672,18.25536346435547,0.6055813431739807,2.0155742168426514,3.8805971145629883,0.3244315981864929,-0.26853153109550476,-0.12264445424079895,-0.24571169912815094
420,41108,41092,-0.030868632718920708,0.22567147016525269,0.9300246238708496,15.367744445800781,9.09395980834961,-0.6056187748908997,2.016470432281494,3.8804380893707275,0.32370859384536743,-0.3235164284706116,-0.007840362377464771,-0.2253022938966751
421,41118,41102,-0.04829762876033783,0.17572622001171112,1.024918794631958,18.525375366210938,3.3278005123138428,-1.1011196374893188,2.017108201980591,3.8833396434783936,0.3188869059085846,-0.25448355078697205,0.25289827585220337,-0.22771196067333221
422,41128,41112,0.10238983482122421,-0.11795917898416519,0.9307491779327393,17.50480842590332,0.2300432026386261,0.04878069832921028,2.017155170440674,3.884817600250244,0.31692421436309814,-0.20612025260925293,0.4405285120010376,-0.15658125281333923
423,41138,41122,0.009711014106869698,0.029937036335468292,1.0618598461151123,13.664422988891602,-2.3926680088043213,-0.054149750620126724,2.0162956714630127,3.884690046310425,0.3171115517616272,-0.21087799966335297,0.5086965560913086,-0.15128658711910248
424,41148,41132,-0.019268924370408058,0.021952630952000618,0.9883372783660889,4.5472211837768555,-2.2787888050079346,-2.229694128036499,2.0156989097595215,3.8861122131347656,0.3150799870491028,-0.19734221696853638,0.514127790927887,-0.08369383215904236
425,41158,41142,-0.0046194251626729965,-0.11481019854545593,0.9038401246070862,0.8785333037376404,4.136559009552002,-1.9285409450531006,2.015493631362915,3.888495683670044,0.3140066862106323,-0.2229902446269989,0.6259793043136597,-0.05302278324961662
426,41168,41152,-0.22573280334472656,0.049691587686538696,1.079935073852539,-2.848430871963501,9.684854507446289,-2.275649309158325,2.0155036449432373,3.8909473419189453,0.3117673397064209,-0.3210792541503906,0.6722344756126404,-0.0706004723906517
427,41178,41162,-0.07483837753534317,0.09684069454669952,0.9771558046340942,-5.677680015563965,14.036114692687988,-2.6686837673187256,2.016542673110962,3.8911783695220947,0.31058263778686523,-0.3444643020629883,0.5727337598800659,-0.11098890751600266
428,41188,41172,-0.037966541945934296,0.08560492098331451,0.998344898223877,-7.525850772857666,16.2503662109375,-2.44527530670166,2.0171804428100586,3.8919789791107178,0.30818238854408264,-0.40088796615600586,0.5238522887229919,-0.13728632032871246
429,41198,41182,-0.02149750106036663,-0.05459924042224884,1.0701004266738892,-4.3021345138549805,11.993828773498535,-2.2924511432647705,2.0168912410736084,3.8923256397247314,0.3082098960876465,-0.6476219892501831,0.46663960814476013,-0.19602547585964203
430,41208,41192,-0.04118654504418373,0.29447710514068604,1.058284878730774,1.477190613746643,10.399849891662598,-2.169283628463745,2.0163302421569824,3.8920159339904785,0.30706754326820374,-0.8259124755859375,0.41439366340637207,-0.26444655656814575
431,41218,41202,-0.0352085717022419,0.07002173364162445,0.929299533367157,4.5817389488220215,10.663601875305176,-0.8802052140235901,2.016972303390503,3.8926897048950195,0.30178868770599365,-0.9023663401603699,0.28742092847824097,-0.2454412281513214
432,41228,41212,0.013006622903048992,-0.12846603989601135,0.926206648349762,5.942054748535156,9.80372428894043,-0.0016150760930031538,2.017340660095215,3.892709970474243,0.30037590861320496,-0.7436135411262512,0.44601359963417053,-0.26559537649154663
433,41238,41222,-0.0384664349257946,-0.01693825237452984,0.9543072581291199,10.415080070495605,9.224702835083008,1.4725069999694824,2.017108917236328,3.8949122428894043,0.2989474833011627,-0.9434125423431396,0.4134950339794159,-0.2872575521469116
434,41248,41232,0.0028808133210986853,0.15605463087558746,1.025233507156372,13.495841979980469,3.2385098934173584,2.81842041015625,2.0152082443237305,3.8941471576690674,0.29854363203048706,-0.9797600507736206,0.5362352728843689,-0.24397122859954834
435,41258,41242,0.04261518269777298,0.06605302542448044,1.0037304162979126,15.226346969604492,2.7212138175964355,1.8350528478622437,2.0157406330108643,3.895481586456299,0.29708734154701233,-1.0353142023086548,0.695492148399353,-0.20596477389335632
436,41268,41252,0.005047315265983343,0.032939646393060684,1.0718446969985962,12.13484001159668,2.677978277206421,0.37457895278930664,2.0154342651367188,3.896711826324463,0.29569196701049805,-1.07219660282135,0.7666234374046326,-0.15797021985054016
437,41278,41262,-0.041514210402965546,0.07530970871448517,1.0592222213745117,4.458805084228516,2.1046509742736816,-1.8864060640335083,2.015409231185913,3.897770643234253,0.2964768707752228,-1.0851671695709229,0.8998197317123413,-0.12389542162418365
438,41288,41272,-0.10238076746463776,0.03125365450978279,1.0901107788085938,-1.6684879064559937,6.400310039520264,-2.4632983207702637,2.015277862548828,3.8991212844848633,0.2952711284160614,-1.1079716682434082,0.9921435117721558,-0.1268177032470703
439,41298,41282,-0.09092427045106888,-0.011392252519726753,1.1410443782806396,-0.6678953766822815,12.56139087677002,-3.154386520385742,2.014988422393799,3.900066375732422,0.29412969946861267,-1.0914279222488403,0.9554752111434937,-0.08749709278345108
440,41308,41292,0.01051363069564104,-0.0015910270158201456,1.034685730934143,6.317543983459473,18.11467170715332,-2.9564783573150635,2.015451431274414,3.900524139404297,0.29310697317123413,-1.3484529256820679,0.971564769744873,-0.11864682286977768
441,41318,41302,0.011222397908568382,-0.14145727455615997,1.0285779237747192,20.37647819519043,22.08098030090332,-0.43274953961372375,2.0146515369415283,3.9017181396484375,0.29106903076171875,-1.5304795503616333,1.0022058486938477,-0.12190967798233032
442,41328,41312,0.051217757165431976,-0.09020388126373291,1.0685746669769287,32.64911651611328,22.251441955566406,2.8939435482025146,2.01558518409729,3.902449607849121,0.29007577896118164,-1.9001325368881226,1.3593590259552002,-0.10513648390769958
443,41338,41322,0.021104933694005013,0.014883841387927532,1.055258870124817,34.9770622253418,24.511112213134766,3.9284214973449707,2.015735149383545,3.903623104095459,0.28920233249664307,-2.1801881790161133,1.8239657878875732,-0.017442820593714714
444,41348,41332,-0.009817533195018768,0.13007129728794098,1.0495370626449585,27.68545913696289,16.190364837646484,5.294795036315918,2.0168752670288086,3.9032981395721436,0.28736409544944763,-2.2267580032348633,2.0750675201416016,0.09253020584583282
445,41358,41342,-0.00800140667706728,0.008114282973110676,1.1198499202728271,12.577820777893066,4.214363098144531,6.416335582733154,2.017420768737793,3.903195858001709,0.2863953411579132,-2.340090036392212,2.282057523727417,0.14738643169403076
446,41368,41352,-0.044776756316423416,-0.05617424473166466,1.1097065210342407,-2.3100016117095947,-6.857751369476318,6.628754615783691,2.016099452972412,3.9046878814697266,0.2859707772731781,-2.179518699645996,2.3279411792755127,0.2737880051136017
447,41378,41362,-0.03567787632346153,0.01633700728416443,1.0431104898452759,-17.27776336669922,-13.68817138671875,6.2314581871032715,2.0162034034729004,3.905365467071533,0.2866970896720886,-2.1389107704162598,2.191864252090454,0.34668347239494324
448,41388,41372,-0.06779912114143372,-0.01537073403596878,1.0093538761138916,-21.275070190429688,-16.584854125976562,6.811296463012695,2.0152196884155273,3.90667986869812,0.2864014506340027,-2.0018627643585205,2.0594630241394043,0.4314650595188141
449,41398,41382,-0.05233393982052803,0.011756673455238342,1.0972862243652344,-19.433265686035156,-11.786126136779785,6.0038981437683105,2.01562237739563,3.908170223236084,0.2859816551208496,-1.8751099109649658,1.8191211223602295,0.434427410364151
450,41408,41392,-0.045897647738456726,0.10006928443908691,1.0596562623977661,-10.901803016662598,-1.3662590980529785,5.8887038230896,2.015531063079834,3.906942844390869,0.2862246334552765,-1.7305493354797363,1.6643280982971191,0.5175448060035706
451,41418,41402,0.025310760363936424,0.1509673297405243,1.0388901233673096,0.3935490548610687,2.4838919639587402,3.826742172241211,2.0159237384796143,3.907829761505127,0.28593191504478455,-1.8336745500564575,1.7504767179489136,0.6352046728134155
452,41428,41412,0.06471665948629379,0.04340086877346039,0.9822337627410889,13.554959297180176,8.681550979614258,2.001588821411133,2.0158491134643555,3.908576726913452,0.28572168946266174,-1.8672795295715332,1.8874765634536743,0.7460914850234985
453,41438,41422,-0.0019706033635884523,-0.21277378499507904,1.0557924509048462,16.108118057250977,9.838038444519043,1.0147334337234497,2.0170986652374268,3.907592535018921,0.2853752076625824,-2.122933864593506,1.9895120859146118,0.7125328779220581
454,41448,41432,-0.021800436079502106,-0.1312888115644455,1.0595122575759888,9.842426300048828,11.171323776245117,-0.22709260880947113,2.0172691345214844,3.9076168537139893,0.2821822166442871,-2.1584832668304443,2.1240572929382324,0.775952160358429
455,41458,41442,0.05400770157575607,0.11520157009363174,1.0398821830749512,-1.8570057153701782,10.948942184448242,-1.6866698265075684,2.0191304683685303,3.907742500305176,0.28167614340782166,-2.3722782135009766,2.1362764835357666,0.7525758743286133
456,41468,41452,0.041958849877119064,0.10353933274745941,1.0799989700317383,-12.604636192321777,9.56895637512207,-1.238282561302185,2.0189225673675537,3.9086010456085205,0.28152531385421753,-2.4692792892456055,2.051581621170044,0.7678953409194946
457,41478,41462,0.011778183281421661,-0.16311919689178467,1.0416823625564575,-25.28049087524414,4.22135591506958,-0.7168837785720825,2.0201685428619385,3.909090757369995,0.2816549837589264,-2.5021862983703613,1.815035343170166,0.7817028760910034
458,41488,41472,-0.01971295475959778,0.06268367171287537,1.0785391330718994,-34.43115997314453,-0.6129531860351562,1.1460380554199219,2.0206363201141357,3.9094362258911133,0.28158092498779297,-2.7168784141540527,1.5320199728012085,0.7837289571762085
459,41498,41482,-0.08261080831289291,0.11014010012149811,1.0899754762649536,-39.76960372924805,-7.897887706756592,4.5317158699035645,2.021024465560913,3.9101805686950684,0.28163039684295654,-2.5111520290374756,1.1119320392608643,0.9158043265342712
460,41508,41492,-0.01889915205538273,0.02066463977098465,1.0681779384613037,-39.22665786743164,-15.744392395019531,6.37520170211792,2.0237884521484375,3.909815788269043,0.2824438214302063,-2.194645881652832,0.7330570816993713,1.014121651649475
461,41518,41502,-0.019252119585871696,0.17592868208885193,1.0688787698745728,-31.84532356262207,-21.01581382751465,8.199060440063477,2.0233731269836426,3.9108192920684814,0.28288063406944275,-2.2337350845336914,0.4285881221294403,1.1344326734542847
462,41528,41512,0.00927239190787077,0.20490635931491852,1.1179025173187256,-19.591398239135742,-25.351560592651367,8.912927627563477,2.022181510925293,3.9114227294921875,0.28342002630233765,-1.923841118812561,0.1556483656167984,1.2378919124603271
463,41538,41522,0.014388320036232471,0.2840145230293274,1.1254702806472778,-6.651827335357666,-24.026199340820312,9.722089767456055,2.0248587131500244,3.9112861156463623,0.2835879325866699,-1.7119886875152588,0.1858808398246765,1.4000672101974487
464,41548,41532,0.03767624497413635,0.031293582171201706,0.9749842882156372,3.1853322982788086,-20.322345733642578,10.458125114440918,2.025566339492798,3.9114813804626465,0.2855369448661804,-1.536600112915039,0.2259565144777298,1.4687458276748657
465,41558,41542,0.02087993361055851,0.016566699370741844,0.933740496635437,5.926262855529785,-16.881603240966797,10.220512390136719,2.026780843734741,3.910156011581421,0.28616228699684143,-1.2559925317764282,0.26709070801734924,1.5925555229187012
466,41568,41552,-0.029424427077174187,0.28335708379745483,1.0761942863464355,1.595112919807434,-9.925482749938965,10.145672798156738,2.028878927230835,3.9091408252716064,0.28670477867126465,-1.334710717201233,0.2659066617488861,1.6668779850006104
467,41578,41562,0.02833251655101776,0.14590118825435638,1.0553953647613525,-5.762174129486084,-7.139695644378662,9.019734382629395,2.0295469760894775,3.908771276473999,0.28792908787727356,-1.1634122133255005,0.1528570055961609,1.781139612197876
468,41588,41572,-0.05037764459848404,0.18930506706237793,1.0253674983978271,-11.56606388092041,-7.415524482727051,6.084531307220459,2.032196283340454,3.9089713096618652,0.28846466541290283,-1.1981945037841797,0.10905393213033676,1.866166353225708
469,41598,41582,-0.13104569911956787,0.7753374576568604,1.0991727113723755,-17.893972396850586,-9.011615753173828,3.939485788345337,2.032766580581665,3.9094436168670654,0.28931939601898193,-1.0289331674575806,-0.18966658413410187,1.8822739124298096
470,41608,41592,-0.07441757619380951,0.26689720153808594,0.984216570854187,-22.448623657226562,-11.556807518005371,1.4713666439056396,2.034991979598999,3.9087588787078857,0.2916584610939026,-0.8119872808456421,-0.4159570336341858,1.9099305868148804
471,41618,41602,-0.10607469081878662,0.1568005383014679,1.030532956123352,-22.045684814453125,-12.905802726745605,-0.07948160916566849,2.0361461639404297,3.9095847606658936,0.2926808297634125,-0.7560988068580627,-0.5038299560546875,1.9582844972610474
472,41628,41612,-0.06734715402126312,0.13693954050540924,1.0291332006454468,-18.15182876586914,-2.8936100006103516,-2.013422966003418,2.036623477935791,3.9097602367401123,0.29371756315231323,-0.6142519116401672,-0.6990989446640015,1.982642650604248
473,41638,41622,-0.0010814669076353312,0.3695984482765198,0.9555805325508118,-6.8308634757995605,-10.992873191833496,-3.689307689666748,2.03869891166687,3.9085710048675537,0.29467570781707764,-0.7093015909194946,-0.7591391205787659,1.9738969802856445
474,41648,41632,-0.10408029705286026,0.711083710193634,1.0484402179718018,1.738004207611084,-9.0216703414917,-4.67759895324707,2.0400476455688477,3.9089481830596924,0.2933080196380615,-0.6286879777908325,-0.7443135380744934,1.9761388301849365
475,41658,41642,-0.14298054575920105,0.7475188374519348,1.098291277885437,5.321830749511719,-6.952378749847412,-7.1205902099609375,2.0429413318634033,3.9085628986358643,0.29401618242263794,-0.5563845634460449,-0.7262179255485535,1.9173799753189087
476,41668,41652,-0.0564509741961956,0.2628506124019623,0.96455979347229,7.0295281410217285,-6.215963840484619,-7.936581134796143,2.044581413269043,3.90842342376709,0.29483693838119507,-0.4522385001182556,-0.7363870143890381,1.8853896856307983
477,41678,41662,-0.025874478742480278,-0.027204515412449837,0.9013711214065552,5.406365394592285,-1.7812269926071167,-9.651304244995117,2.046008825302124,3.908201217651367,0.2936260402202606,-0.5631353855133057,-0.6776203513145447,1.861249327659607
478,41688,41672,-0.050830330699682236,0.01221175491809845,0.9731266498565674,3.850215435028076,-1.4324246644973755,-9.875123977661133,2.046967029571533,3.9093613624572754,0.29435646533966064,-0.5178302526473999,-0.6255694031715393,1.7296500205993652
479,41698,41682,0.017155613750219345,-0.09903586655855179,0.905663013458252,-1.509354591369629,3.4476566314697266,-11.442633628845215,2.049555778503418,3.9094533920288086,0.2947482466697693,-0.5416258573532104,-0.6551112532615662,1.6637836694717407
480,41708,41692,0.11047524213790894,-0.1561470329761505,0.8360406160354614,-4.066084384918213,-5.167047023773193,-11.63896656036377,2.050403356552124,3.9090094566345215,0.2924270033836365,-0.5971855521202087,-0.7286970019340515,1.60563325881958
481,41718,41702,0.19725507497787476,-0.2090974897146225,0.8159812092781067,-4.057363986968994,-7.524679660797119,-12.455514907836914,2.0523436069488525,3.9098739624023438,0.29264429211616516,-0.4449614882469177,-0.8093048334121704,1.5494858026504517
