,timestamp_start,timestamp_end,acc.x,acc.y,acc.z,gyro.x,gyro.y,gyro.z,stateEstimate.x,stateEstimate.y,stateEstimate.z,stabilizer.pitch,stabilizer.roll,stabilizer.yaw
0,37976,37971,0.007724713999778032,-0.045894019305706024,1.1381069421768188,-6.010441303253174,4.712167263031006,1.0193617343902588,1.8835231065750122,3.8474364280700684,0.1646316796541214,-0.012226869352161884,0.8446292281150818,3.6023807525634766
1,37986,37981,0.028930027037858963,-0.022812992334365845,1.118709683418274,-5.60725212097168,2.925598621368408,0.8443487882614136,1.8832411766052246,3.847275495529175,0.16595640778541565,-0.03822004050016403,0.7390918731689453,3.6157193183898926
2,37996,37991,0.02655147574841976,-0.02863246761262417,1.0763145685195923,-4.653008460998535,1.2976348400115967,0.9021347761154175,1.8828827142715454,3.846245527267456,0.1673704832792282,-0.12333723157644272,0.6421265602111816,3.616168260574341
3,38006,38001,0.010116007179021835,-0.02016558311879635,1.0324676036834717,-6.332042694091797,2.5609052181243896,1.1478121280670166,1.8823065757751465,3.8434226512908936,0.1691480278968811,-0.09470422565937042,1.1497740745544434,3.664552927017212
4,38016,38011,0.018385933712124825,-0.15250638127326965,1.1005557775497437,-0.9979494214057922,-6.063986301422119,0.7437557578086853,1.8823093175888062,3.841857433319092,0.17035256326198578,-0.12369770556688309,1.2032173871994019,3.679205894470215
5,38026,38021,0.04869595170021057,0.01564343459904194,1.1017563343048096,-6.594359874725342,-3.0164074897766113,1.3538450002670288,1.8813064098358154,3.8408141136169434,0.17199207842350006,-0.07768265902996063,1.0493794679641724,3.680056571960449
6,38036,38031,0.0018194805597886443,0.13656313717365265,1.1461541652679443,-14.081835746765137,-6.571736812591553,0.43428942561149597,1.8809407949447632,3.8400774002075195,0.17374156415462494,0.0408889576792717,0.9835483431816101,3.7033824920654297
7,38046,38041,-0.010758270509541035,-0.03949236869812012,1.1249668598175049,-17.5062313079834,-5.654667377471924,0.7929115295410156,1.8812838792800903,3.8387067317962646,0.17598754167556763,-0.12646856904029846,0.7402206659317017,3.66162109375
8,38056,38051,0.03657860681414604,-0.08282109349966049,1.0801081657409668,-19.877866744995117,-2.905160903930664,0.43138387799263,1.8798189163208008,3.838094711303711,0.17809396982192993,-0.19425292313098907,0.3780163526535034,3.627579927444458
9,38066,38061,0.02084529772400856,-0.07676582783460617,1.1164381504058838,-16.8601131439209,-4.141988277435303,0.14625591039657593,1.879285454750061,3.8393776416778564,0.18057921528816223,-0.11982656270265579,0.2258245050907135,3.6444597244262695
10,38076,38071,0.016692612320184708,-0.059172123670578,1.1224256753921509,-10.452422142028809,-2.7485437393188477,0.0601755790412426,1.8760089874267578,3.8336236476898193,0.18286746740341187,-0.034442245960235596,0.3255051374435425,3.6811602115631104
11,38086,38081,-6.262899842113256e-05,0.04501153528690338,1.120937466621399,-4.646242618560791,-10.362586975097656,0.4296395778656006,1.8755115270614624,3.835745334625244,0.18535639345645905,0.043152883648872375,0.13261562585830688,3.6794021129608154
12,38096,38091,0.011775277554988861,0.0334993414580822,1.1622394323349,-1.2571487426757812,-8.650941848754883,-0.6270055770874023,1.8782248497009277,3.8353052139282227,0.18667744100093842,0.029854457825422287,0.18051917850971222,3.6818411350250244
13,38106,38101,-0.013709291815757751,0.02013366110622883,1.006174921989441,-4.226146697998047,-2.725714683532715,-0.43148472905158997,1.8783622980117798,3.8358991146087646,0.18937738239765167,0.02012075111269951,0.04489835351705551,3.660163164138794
14,38116,38111,0.0055994573049247265,-0.026693006977438927,0.9814103245735168,-6.543680667877197,-8.147111892700195,-0.2922845184803009,1.8794444799423218,3.8371775150299072,0.19216428697109222,0.11503090709447861,-0.16602163016796112,3.643277883529663
15,38126,38121,0.010348732583224773,-0.1185075044631958,1.0996359586715698,-7.2982964515686035,-10.378852844238281,-0.8857453465461731,1.8802518844604492,3.8367745876312256,0.19314424693584442,0.16679978370666504,-0.24930815398693085,3.635399103164673
16,38136,38131,0.00615583686158061,-0.1360975056886673,1.0789000988006592,-7.451210975646973,-3.8480677604675293,-1.995036005973816,1.8818434476852417,3.8394014835357666,0.1957470029592514,0.3805401027202606,-0.349094957113266,3.628941297531128
17,38146,38141,0.03456517308950424,-0.05158968269824982,0.9861857295036316,-6.939533710479736,1.683699369430542,-1.8811379671096802,1.881799578666687,3.8392980098724365,0.19840776920318604,0.37866446375846863,-0.5143539905548096,3.6040830612182617
18,38156,38151,0.09778361767530441,-0.02900891937315464,0.995604932308197,-2.8106937408447266,-1.3588290214538574,-1.6512597799301147,1.8811941146850586,3.8399949073791504,0.2006949484348297,0.5393345952033997,-0.5756760835647583,3.586167097091675
19,38166,38161,0.016630744561553,-0.013128542341291904,0.9967435598373413,0.23379096388816833,0.08472083508968353,-2.079540729522705,1.8819165229797363,3.840181350708008,0.20341680943965912,0.40354445576667786,-0.7221216559410095,3.567129135131836
20,38176,38171,0.012241058051586151,-0.13404805958271027,0.9739865660667419,3.023662567138672,1.422383427619934,-1.8404868841171265,1.8819538354873657,3.839214324951172,0.20615534484386444,0.40792596340179443,-0.6569297313690186,3.5513553619384766
21,38186,38181,0.01203786302357912,-0.03520340844988823,0.9786795973777771,5.9276442527771,-0.039136987179517746,-1.708869457244873,1.8868412971496582,3.843492269515991,0.20867662131786346,-0.23419690132141113,-1.0430835485458374,3.5501174926757812
22,38196,38191,0.02329813875257969,-0.01777806133031845,0.9568560123443604,7.391321182250977,-2.877915382385254,-1.8257371187210083,1.886922001838684,3.8444008827209473,0.2109633833169937,-0.14994023740291595,-0.9792311191558838,3.5263593196868896
23,38206,38201,-0.01434838306158781,-0.005105112679302692,0.9832669496536255,8.80236530303955,-5.850983619689941,-2.3797690868377686,1.886979341506958,3.8458266258239746,0.213809996843338,-0.02502596378326416,-0.8884771466255188,3.4985389709472656
24,38216,38211,0.06782538443803787,-0.06905801594257355,0.9199306964874268,11.513778686523438,-15.97575569152832,-2.003401279449463,1.8885235786437988,3.8459994792938232,0.21643206477165222,-0.04451395198702812,-0.6996303796768188,3.493360757827759
25,38226,38221,0.015295818448066711,-0.07807496935129166,1.0215911865234375,10.529651641845703,-12.29799747467041,-2.888746976852417,1.8873943090438843,3.8447070121765137,0.21944129467010498,0.28756970167160034,-0.4843998849391937,3.4603960514068604
26,38236,38231,0.04364224150776863,-0.04395061358809471,0.8943507075309753,10.135876655578613,-17.199871063232422,-2.4332690238952637,1.8869154453277588,3.8466756343841553,0.22196486592292786,0.45228666067123413,-0.3607024848461151,3.4374938011169434
27,38246,38241,0.014675012789666653,-0.02010583132505417,0.9313198328018188,7.419771194458008,-13.70198917388916,-2.396921157836914,1.8868958950042725,3.845031976699829,0.22441579401493073,0.496783971786499,0.1679570972919464,3.4454152584075928
28,38256,38251,0.007359027396887541,-0.022268738597631454,0.9473446607589722,2.109771728515625,-8.711048126220703,-2.4662868976593018,1.8841623067855835,3.8464550971984863,0.22731472551822662,0.8551027178764343,0.03819987550377846,3.3951947689056396
29,38266,38261,-0.010577558539807796,0.029716335237026215,0.9945849776268005,-4.585809707641602,-4.039005756378174,-2.5195252895355225,1.8838117122650146,3.844822645187378,0.22949185967445374,1.0354399681091309,0.27391257882118225,3.366105318069458
30,38276,38271,0.05406208336353302,-0.042832668870687485,0.8920478820800781,-9.655989646911621,-2.8739354610443115,-1.8389954566955566,1.8829396963119507,3.8462636470794678,0.2318345308303833,1.1956849098205566,0.1685132086277008,3.3338823318481445
31,38286,38281,0.0654444545507431,-0.19354644417762756,0.893049955368042,-12.69740104675293,1.8785797357559204,-2.46926212310791,1.8883272409439087,3.8475215435028076,0.23522639274597168,0.49726366996765137,-0.09181057661771774,3.3516173362731934
32,38296,38291,0.0330665297806263,-0.017254892736673355,0.9542605876922607,-13.62906551361084,7.165811061859131,-2.7250783443450928,1.88526451587677,3.8468027114868164,0.23885582387447357,0.5067425966262817,-0.24584266543388367,3.325129508972168
33,38306,38301,0.04099962115287781,0.1192779690027237,0.9342116117477417,-11.732420921325684,7.28571081161499,-1.9710948467254639,1.88514244556427,3.8475239276885986,0.2412506490945816,0.5150196552276611,-0.47860386967658997,3.2957301139831543
34,38316,38311,0.039210136979818344,0.1797076016664505,0.9407532811164856,-5.749172210693359,2.6211905479431152,-1.6404682397842407,1.8853750228881836,3.8474528789520264,0.24371886253356934,0.5259070992469788,-0.45196622610092163,3.2654504776000977
35,38326,38321,0.05033004283905029,0.13273638486862183,0.9420512914657593,1.5087097883224487,-4.0816802978515625,-1.8754621744155884,1.8855081796646118,3.847656488418579,0.24435310065746307,0.6057127118110657,-0.4872330129146576,3.2402265071868896
36,38336,38331,0.03815648332238197,0.016628006473183632,0.9467907547950745,7.0197248458862305,-9.932223320007324,-2.52584171295166,1.8863896131515503,3.847496271133423,0.24639564752578735,0.6366956233978271,-0.48040106892585754,3.221895933151245
37,38346,38341,-0.03530096262693405,0.00729964766651392,0.9805822372436523,8.551594734191895,-12.108314514160156,-2.529414415359497,1.8862924575805664,3.847736358642578,0.24842004477977753,0.8294503092765808,-0.382874995470047,3.189133882522583
38,38356,38351,0.04131981357932091,-0.0470428392291069,0.9281757473945618,9.423251152038574,-12.393136024475098,-3.884364366531372,1.885525107383728,3.847867250442505,0.25126317143440247,0.9754391312599182,-0.2589012682437897,3.16391658782959
39,38366,38361,-0.14492017030715942,0.13139715790748596,0.9425615668296814,3.925726890563965,-6.627057075500488,-2.6707000732421875,1.886709213256836,3.8486452102661133,0.2532568573951721,1.0437273979187012,-0.21182595193386078,3.1368374824523926
40,38376,38371,-0.022233419120311737,0.0008584111928939819,0.891052782535553,-1.8382956981658936,3.0511960983276367,-3.4018001556396484,1.8872443437576294,3.85115385055542,0.2551605701446533,1.114766240119934,-0.15604276955127716,3.110788345336914
41,38386,38381,0.01683313027024269,0.02397824637591839,0.8452509045600891,-5.002660274505615,1.7342345714569092,-2.881577730178833,1.8881837129592896,3.8515164852142334,0.256940633058548,1.1362669467926025,-0.18733805418014526,3.0861594676971436
42,38396,38391,-0.04358740523457527,0.013536226004362106,0.9804738759994507,-7.630575180053711,7.984788417816162,-3.170198440551758,1.888007640838623,3.853287935256958,0.25900787115097046,1.1140795946121216,-0.2756670117378235,3.0576019287109375
43,38406,38401,0.0026899361982941628,0.006543312221765518,0.9638108611106873,-7.382594108581543,10.271441459655762,-2.2251088619232178,1.8897231817245483,3.855828046798706,0.26063793897628784,1.087653636932373,-0.39647549390792847,3.0286333560943604
44,38416,38411,0.0904722660779953,-0.14493857324123383,0.9738805294036865,-3.7628321647644043,7.1945271492004395,-2.0346875190734863,1.8896868228912354,3.8570845127105713,0.2622624933719635,1.0875935554504395,-0.4364028871059418,2.992919445037842
45,38426,38421,0.03486794978380203,-0.1620609164237976,1.0287190675735474,-0.7588576078414917,7.191099643707275,-2.869072198867798,1.8893208503723145,3.858290910720825,0.2619875371456146,1.0211633443832397,-0.5072522759437561,2.969672918319702
46,38436,38431,-0.006427036132663488,-0.006531307008117437,0.9645690321922302,4.174952507019043,0.7647466659545898,-2.6661744117736816,1.8871805667877197,3.8601486682891846,0.2633703351020813,1.037734866142273,-0.5915982723236084,2.946852445602417
47,38446,38441,-0.007602238561958075,-0.17577645182609558,0.9425309896469116,7.437864303588867,5.8890910148620605,-3.234023332595825,1.8855582475662231,3.8620569705963135,0.2649320960044861,1.020417332649231,-0.5185993313789368,2.911367893218994
48,38456,38451,0.0237689558416605,-0.06809283792972565,0.9451093077659607,9.442102432250977,6.358171463012695,-3.233546257019043,1.8856109380722046,3.861503839492798,0.26808878779411316,0.8225246071815491,-0.31855425238609314,2.8751139640808105
49,38466,38461,0.02498728223145008,0.007992913946509361,0.9633474946022034,9.127514839172363,1.6219837665557861,-2.7477550506591797,1.8847436904907227,3.8641374111175537,0.26962611079216003,0.7750840783119202,-0.39044642448425293,2.8596982955932617
50,38476,38471,0.0500456728041172,0.08248770982027054,0.9523733258247375,6.256817817687988,5.780546188354492,-3.2399609088897705,1.8847135305404663,3.8620808124542236,0.2711745500564575,0.6883700489997864,-0.016914386302232742,2.8092992305755615
51,38486,38481,0.035655077546834946,0.026743518188595772,0.9358033537864685,3.3769547939300537,6.241531848907471,-3.2081587314605713,1.8840311765670776,3.862971782684326,0.2726236879825592,0.5924073457717896,-0.007788605522364378,2.7906382083892822
52,38496,38491,0.11157778650522232,-0.2654714286327362,0.8846743106842041,-1.9186407327651978,-0.34547460079193115,-2.8862855434417725,1.8825008869171143,3.865795850753784,0.2724592089653015,0.4969502389431,-0.12090364098548889,2.773226022720337
53,38506,38501,-0.025817429646849632,-0.05799273028969765,0.9532956480979919,-4.574664115905762,-0.12047018855810165,-3.1685707569122314,1.8822788000106812,3.8645737171173096,0.27368542551994324,0.47144562005996704,0.0699862614274025,2.7319018840789795
54,38516,38511,-0.02445332705974579,0.013342458754777908,0.9618166089057922,-5.96195125579834,0.43215861916542053,-2.690074920654297,1.8815335035324097,3.874384880065918,0.2754572629928589,0.46303337812423706,-1.1241881847381592,2.7631032466888428
55,38526,38521,0.0296378992497921,-0.06440114229917526,0.9605556130409241,-1.2162238359451294,-0.6276642084121704,-3.453626871109009,1.881034016609192,3.862609386444092,0.2812071144580841,0.6113906502723694,0.3641411066055298,2.652749538421631
56,38536,38531,-0.09367170929908752,0.17348182201385498,0.9799773693084717,6.331363201141357,1.2818866968154907,-2.5194504261016846,1.8818316459655762,3.865635871887207,0.2831791341304779,0.5255300402641296,-0.0035487599670886993,2.6401660442352295
57,38546,38541,-0.08278481662273407,0.14937573671340942,0.918982982635498,7.2621541023254395,3.792524814605713,-1.9818952083587646,1.8798121213912964,3.8653807640075684,0.2845248281955719,0.6417007446289062,0.07242479920387268,2.613142728805542
58,38556,38551,0.017132777720689774,-0.024597248062491417,0.9339921474456787,3.3775439262390137,7.193402290344238,-1.9889066219329834,1.8759024143218994,3.865490436553955,0.28379929065704346,0.9932847023010254,0.09062233567237854,2.5868752002716064
59,38566,38561,-0.009397134184837341,0.015647107735276222,1.0007591247558594,-0.36152490973472595,12.632009506225586,-2.161135673522949,1.8752610683441162,3.8657822608947754,0.2851424217224121,0.8050714135169983,0.05875920131802559,2.5738260746002197
60,38576,38571,0.0024666436947882175,-0.014355137012898922,0.9530758857727051,-4.788909912109375,18.373369216918945,-2.1026206016540527,1.8747246265411377,3.865792751312256,0.2862453758716583,0.6924417614936829,0.045714836567640305,2.5546786785125732
61,38586,38581,-0.05652131512761116,-0.05310041457414627,1.0157029628753662,-7.385170936584473,18.96083641052246,-1.8046666383743286,1.8747175931930542,3.8661210536956787,0.2851225435733795,0.4974842071533203,-0.033590834587812424,2.5361063480377197
62,38596,38591,-0.08645372837781906,-0.1191440150141716,0.9881139993667603,-7.354643821716309,16.8619441986084,-1.9214304685592651,1.8738876581192017,3.866804361343384,0.28606900572776794,0.2827175557613373,-0.15155412256717682,2.518282651901245
63,38606,38601,-0.06323271244764328,-0.12150687724351883,0.9813755750656128,-5.210329055786133,13.967803001403809,-1.19514000415802,1.873131275177002,3.867032051086426,0.2870404124259949,0.15593846142292023,-0.19917789101600647,2.498488664627075
64,38616,38611,-0.01819394901394844,0.12814638018608093,0.9580788016319275,-1.639342188835144,10.034276962280273,-1.4639184474945068,1.8713669776916504,3.8681628704071045,0.28793421387672424,0.014376195147633553,-0.27989792823791504,2.4848263263702393
65,38626,38621,0.017273344099521637,0.03182801604270935,0.9424484372138977,2.392395496368408,5.390293121337891,-1.352724552154541,1.8700178861618042,3.868913173675537,0.28624996542930603,0.01758250966668129,-0.22264528274536133,2.4693105220794678
66,38636,38631,0.006157838273793459,-0.020351750776171684,0.9733603000640869,4.276367664337158,4.190507888793945,-0.7876060009002686,1.8692834377288818,3.8688347339630127,0.28689101338386536,-0.07285931706428528,-0.18822471797466278,2.4566476345062256
67,38646,38641,0.03986276313662529,0.022572362795472145,0.9900882244110107,5.304844379425049,2.0350840091705322,-0.6717883944511414,1.8689850568771362,3.86855411529541,0.28749069571495056,-0.12884895503520966,-0.11648746579885483,2.4473557472229004
68,38656,38651,0.013793695718050003,0.012640861794352531,0.9842274785041809,3.6478347778320312,3.6288723945617676,-1.5088393688201904,1.8691579103469849,3.8697307109832764,0.28582945466041565,-0.2340165376663208,-0.19339825212955475,2.4365243911743164
69,38666,38661,-0.06691368669271469,0.08135339617729187,0.9127001762390137,0.7592889666557312,5.192863941192627,-0.7185790538787842,1.8689155578613281,3.870742082595825,0.28631097078323364,-0.35181447863578796,-0.2034025490283966,2.423306703567505
70,38676,38671,-0.019522882997989655,0.033176932483911514,0.9890781044960022,-0.7619081735610962,5.453121185302734,-1.1948131322860718,1.8667281866073608,3.870912551879883,0.2867414951324463,-0.2754669785499573,-0.18163645267486572,2.412386655807495
71,38686,38681,-0.02095491625368595,0.003770349081605673,1.0071405172348022,-0.7132550477981567,5.943339824676514,-0.5996197462081909,1.8668885231018066,3.869842052459717,0.285104364156723,-0.43767663836479187,-0.18365122377872467,2.401768445968628
72,38696,38691,-0.05577782914042473,-0.04553396254777908,1.0324113368988037,0.05413796380162239,14.54498291015625,-1.0809953212738037,1.8661487102508545,3.8703606128692627,0.28535786271095276,-0.4652317464351654,-0.18493293225765228,2.3947794437408447
73,38706,38701,-0.020366812124848366,-0.004024198278784752,1.0255342721939087,0.5200274586677551,21.216480255126953,-0.7071053981781006,1.8668103218078613,3.870398998260498,0.2856200337409973,-0.6883668899536133,-0.24323566257953644,2.38061785697937
74,38716,38711,0.03313380479812622,-0.0891491249203682,1.0255253314971924,2.0711939334869385,22.445680618286133,-0.7835962772369385,1.8672919273376465,3.87030029296875,0.2859429717063904,-0.9291049242019653,-0.2156120389699936,2.373459815979004
75,38726,38721,0.018060168251395226,-0.08836787939071655,1.0446804761886597,3.864239454269409,23.210098266601562,-1.1262198686599731,1.86575186252594,3.8708410263061523,0.28520509600639343,-1.054297924041748,-0.16576515138149261,2.3666059970855713
76,38736,38731,-0.002002179389819503,0.03952521085739136,1.0584397315979004,4.595053672790527,20.924211502075195,-1.4533662796020508,1.8649353981018066,3.870941400527954,0.2855060398578644,-1.3425880670547485,-0.08954289555549622,2.360914707183838
77,38746,38741,0.025027234107255936,-0.03946828842163086,0.943626344203949,4.983450412750244,20.379058837890625,-1.6985465288162231,1.8643794059753418,3.8706345558166504,0.2858120799064636,-1.5774625539779663,-0.003578003728762269,2.3526079654693604
78,38756,38751,0.023867303505539894,0.1598290652036667,1.0190941095352173,4.043168067932129,14.604540824890137,-1.163525104522705,1.8632071018218994,3.8724584579467773,0.28365740180015564,-1.7591722011566162,-0.06745640188455582,2.319383382797241
79,38766,38761,0.0458400659263134,0.060723092406988144,0.9672629237174988,2.4011430740356445,5.656035900115967,-0.9554160833358765,1.861668348312378,3.871105194091797,0.28389492630958557,-1.7703678607940674,0.014041402377188206,2.31412935256958
80,38776,38771,0.006361520849168301,0.01875162683427334,1.0396462678909302,1.0932281017303467,2.810303211212158,-0.9514873027801514,1.8610920906066895,3.871664524078369,0.2840259373188019,-1.9049842357635498,0.06495606899261475,2.3100855350494385
81,38786,38781,0.029218880459666252,-0.032799944281578064,1.0007070302963257,0.08103914558887482,0.8445162773132324,-0.46858105063438416,1.8600125312805176,3.8717033863067627,0.2865523099899292,-1.9756747484207153,0.09052537381649017,2.3045570850372314
82,38796,38791,-0.04673788323998451,0.03889941796660423,1.0666502714157104,-1.0633034706115723,-0.19843468070030212,-0.4428289532661438,1.8596067428588867,3.872056722640991,0.2868812084197998,-2.019440174102783,0.09594234079122543,2.300187110900879
83,38806,38801,0.02992963418364525,-0.06792178750038147,1.0371872186660767,-1.3081403970718384,2.5275063514709473,-0.958575963973999,1.8599255084991455,3.8714516162872314,0.28722694516181946,-2.0533945560455322,0.0831323117017746,2.2922894954681396
84,38816,38811,-0.021358612924814224,-0.012673013843595982,1.0507651567459106,0.5605753660202026,2.4717659950256348,-1.0464906692504883,1.8598850965499878,3.874026298522949,0.2876662015914917,-2.1158809661865234,-0.08283695578575134,2.238482713699341
85,38826,38821,0.004245214629918337,-0.0560474619269371,1.0055967569351196,1.490842342376709,5.602479934692383,-1.0247267484664917,1.8610317707061768,3.87502121925354,0.28965216875076294,-2.1772639751434326,-0.046206507831811905,2.2372395992279053
86,38836,38831,0.04486759006977081,-0.05641903728246689,0.9427198767662048,3.0534582138061523,6.080366134643555,-0.7737937569618225,1.8614295721054077,3.87485933303833,0.2901790738105774,-2.261129140853882,0.008810951374471188,2.240851640701294
87,38846,38841,0.05798143893480301,-0.10025225579738617,0.9589599370956421,4.879578590393066,2.1990270614624023,-0.6469889283180237,1.8612035512924194,3.876161813735962,0.29064446687698364,-2.3232245445251465,-0.061556294560432434,2.198798418045044
88,38856,38851,0.04083840548992157,-0.131278857588768,1.0539885759353638,6.507940769195557,-2.2446534633636475,-0.34916770458221436,1.8612675666809082,3.8757753372192383,0.2911989688873291,-2.320127010345459,0.0581979900598526,2.2143776416778564
89,38866,38861,0.018130140379071236,-0.09801600873470306,1.0558080673217773,5.954807758331299,-4.254223823547363,-0.8025437593460083,1.8606380224227905,3.8750321865081787,0.29182469844818115,-2.254049777984619,0.18868014216423035,2.232518434524536
90,38876,38871,-0.0037547361571341753,0.024756597355008125,1.0244131088256836,5.415197849273682,-2.9968342781066895,-0.7224544882774353,1.8617303371429443,3.8769493103027344,0.29236578941345215,-2.31329083442688,0.07514265924692154,2.1605238914489746
91,38886,38881,0.0418626107275486,0.12940821051597595,0.967533528804779,3.009429454803467,-5.814259052276611,-0.728443443775177,1.861708402633667,3.8763763904571533,0.2914184033870697,-2.21211314201355,0.18742471933364868,2.1763193607330322
92,38896,38891,0.003967614378780127,0.055507246404886246,1.0194792747497559,0.9616195559501648,-4.294381141662598,-1.49092698097229,1.8613024950027466,3.876070737838745,0.2919614017009735,-2.086862802505493,0.2562517523765564,2.1836795806884766
93,38906,38901,-0.0203501395881176,0.015850739553570747,1.0313246250152588,-0.16925252974033356,-5.5460638999938965,-1.5511949062347412,1.8602222204208374,3.8762404918670654,0.29249104857444763,-1.9698296785354614,0.2854403257369995,2.17806339263916
94,38916,38911,-0.10019226372241974,0.06285183876752853,1.0392866134643555,-1.0251787900924683,-3.7373952865600586,-1.5111360549926758,1.8594403266906738,3.8759942054748535,0.2922869324684143,-1.8568837642669678,0.2979568839073181,2.171405076980591
95,38926,38921,-0.07028193771839142,0.08567719161510468,0.9743189811706543,-1.9287197589874268,0.14236825704574585,-1.2821273803710938,1.8595683574676514,3.8771843910217285,0.2927679121494293,-1.859544277191162,0.2914275527000427,2.1588006019592285
96,38936,38931,-0.04173619672656059,0.0515967532992363,1.0477098226547241,-1.3630272150039673,1.8557544946670532,-1.511035442352295,1.8613710403442383,3.8778955936431885,0.293270468711853,-1.9867525100708008,0.19784429669380188,2.115267038345337
97,38946,38941,0.03835535794496536,-0.06768938899040222,0.9628670811653137,0.525814414024353,1.6475419998168945,-1.3741174936294556,1.8615144491195679,3.8777706623077393,0.29379162192344666,-2.042145013809204,0.20285895466804504,2.1065473556518555
98,38956,38951,0.0007121451781131327,0.032811153680086136,1.049670934677124,1.944769024848938,1.112349271774292,-1.1619421243667603,1.8634121417999268,3.876437187194824,0.2956535518169403,-2.160093307495117,0.31597813963890076,2.1271119117736816
99,38966,38961,0.06672993302345276,-0.07291434705257416,0.9099568724632263,3.5360567569732666,-5.338071823120117,-1.7095693349838257,1.8615854978561401,3.8772594928741455,0.2963428795337677,-2.0985920429229736,0.2124139666557312,2.06912899017334
100,38976,38971,0.014117979444563389,-0.02988848090171814,0.9717125296592712,2.967226505279541,-11.878432273864746,-1.4943019151687622,1.8613849878311157,3.878460645675659,0.29701486229896545,-1.9286472797393799,0.2116406261920929,2.0438179969787598
101,38986,38981,0.003545418381690979,-0.0034749230835586786,1.0060577392578125,1.4570237398147583,-16.853816986083984,-2.016655445098877,1.8641235828399658,3.8792436122894287,0.2963142693042755,-2.0390188694000244,0.27947139739990234,2.0329556465148926
102,38996,38991,0.02603340521454811,-0.05481525883078575,0.9873031377792358,-0.05350000411272049,-18.21980857849121,-2.499051332473755,1.862944483757019,3.8791422843933105,0.29700446128845215,-1.6671425104141235,0.31799349188804626,2.029025077819824
103,39006,39001,-0.014361066743731499,0.04289788007736206,1.0677138566970825,-1.0793132781982422,-16.619218826293945,-2.890979051589966,1.862160086631775,3.8802855014801025,0.2974916398525238,-1.4475775957107544,0.3315252363681793,2.0099668502807617
104,39016,39011,0.03970102220773697,-0.06329528987407684,0.9254018068313599,-1.1457674503326416,-15.391666412353516,-2.4862916469573975,1.86467707157135,3.879992961883545,0.2969900667667389,-1.4934417009353638,0.3238984942436218,1.9736464023590088
105,39026,39021,0.026300273835659027,-0.1268824338912964,1.018918752670288,-0.15281184017658234,-5.746169090270996,-3.3257265090942383,1.8653854131698608,3.8803491592407227,0.2973380982875824,-1.429872751235962,0.321042537689209,1.9464017152786255
106,39036,39031,0.005869382061064243,0.014004840515553951,1.0240368843078613,1.8050678968429565,-0.07646607607603073,-3.1442646980285645,1.865959644317627,3.880959987640381,0.2978132367134094,-1.3328773975372314,0.3346700072288513,1.9193569421768188
107,39046,39041,0.1109461560845375,0.0009761060937307775,0.9248664975166321,2.7363979816436768,0.67292320728302,-3.4312703609466553,1.8681772947311401,3.882204055786133,0.298069030046463,-1.4772826433181763,0.3028608560562134,1.864980936050415
108,39056,39051,0.002403822261840105,-0.013817335478961468,0.9992521405220032,2.714414119720459,1.9062349796295166,-3.3443405628204346,1.8681617975234985,3.8819961547851562,0.297758013010025,-1.3800179958343506,0.36282649636268616,1.845723032951355
109,39066,39061,0.06993738561868668,-0.11454719305038452,0.978480875492096,3.274946928024292,-3.8384056091308594,-3.045584201812744,1.867675542831421,3.880953311920166,0.29809024930000305,-1.352368712425232,0.4217970073223114,1.8227462768554688
110,39076,39071,0.014014877378940582,-0.04518179967999458,0.9599154591560364,1.5765522718429565,-10.379249572753906,-2.489032506942749,1.8698972463607788,3.8807716369628906,0.2982865869998932,-1.381893515586853,0.47590556740760803,1.794577717781067
111,39086,39081,-0.0026741325855255127,-0.047564130276441574,0.9427908658981323,-0.09870223701000214,-10.769706726074219,-2.546334743499756,1.8704547882080078,3.8807802200317383,0.2998930513858795,-1.1899555921554565,0.501491367816925,1.7727805376052856
112,39096,39091,0.031769461929798126,-0.00022236444056034088,0.9410778284072876,-1.325631856918335,-17.247989654541016,-1.948697805404663,1.871504306793213,3.8818359375,0.3002158999443054,-1.016653060913086,0.4961899518966675,1.749497413635254
113,39106,39101,-0.0008452688343822956,0.03639702871441841,1.048163890838623,-3.1532251834869385,-13.504220008850098,-2.0494163036346436,1.8743551969528198,3.8824915885925293,0.30033236742019653,-1.0154666900634766,0.39395251870155334,1.6982277631759644
114,39116,39111,0.00553418044000864,-0.01653478667140007,1.0047918558120728,-3.0927369594573975,-10.293355941772461,-1.861561894416809,1.87427818775177,3.882721424102783,0.3045921325683594,-0.823838472366333,0.3539975881576538,1.6780426502227783
115,39126,39121,-0.018034739419817924,-0.04658184573054314,0.9861506223678589,-1.2943828105926514,-7.430041313171387,-1.629494071006775,1.8751394748687744,3.8827033042907715,0.30510273575782776,-0.687886118888855,0.31618380546569824,1.658635139465332
116,39136,39131,-0.003141538007184863,0.02571023628115654,1.0189311504364014,0.6136447191238403,-5.954002857208252,-2.2772576808929443,1.8765769004821777,3.8821325302124023,0.30560216307640076,-0.6051502823829651,0.3094032406806946,1.6420739889144897
117,39146,39141,-0.004665834829211235,0.1283680647611618,0.9610015749931335,2.0886635780334473,-1.4181421995162964,-2.2607743740081787,1.876763105392456,3.8828084468841553,0.3002082109451294,-0.5622421503067017,0.33438023924827576,1.6230831146240234
118,39156,39151,-0.033793073147535324,0.21363241970539093,1.0188653469085693,3.920576572418213,-1.2227933406829834,-1.956973671913147,1.8776657581329346,3.882932662963867,0.30029964447021484,-0.575416624546051,0.3863120973110199,1.6046411991119385
119,39166,39161,0.03532428294420242,-0.1829739362001419,0.9649347066879272,4.452963829040527,-1.48011314868927,-1.623433232307434,1.8782455921173096,3.882646083831787,0.3004462718963623,-0.5013987421989441,0.4572295546531677,1.602611780166626
120,39176,39171,-0.011778028681874275,-0.08147718757390976,1.021233081817627,3.321645498275757,-2.7362589836120605,-1.1660171747207642,1.8795431852340698,3.8831868171691895,0.3005387783050537,-0.5079266428947449,0.5284175276756287,1.5876123905181885
121,39186,39181,0.011220717802643776,-0.03164801001548767,0.979647159576416,-0.1162169799208641,-5.947737216949463,-0.5800798535346985,1.881029725074768,3.8825814723968506,0.2989911139011383,-0.5590856075286865,0.5728592872619629,1.5794984102249146
122,39196,39191,-0.006234990898519754,-0.0018039082642644644,1.0156527757644653,-4.193869590759277,-9.091773986816406,0.03503241017460823,1.8821693658828735,3.883786916732788,0.2989446818828583,-0.5468828082084656,0.5507033467292786,1.569929599761963
123,39206,39201,0.035892780870199203,-0.013758725486695766,0.9923574924468994,-7.158646106719971,-11.688163757324219,0.38687124848365784,1.8807132244110107,3.883361339569092,0.2992405593395233,-0.25621357560157776,0.4663388729095459,1.5800540447235107
124,39216,39211,-0.019691824913024902,-0.009962225332856178,1.0147473812103271,-8.760616302490234,-14.488572120666504,1.286250352859497,1.8823797702789307,3.8839056491851807,0.29778459668159485,-0.16568085551261902,0.3381474018096924,1.5790449380874634
125,39226,39221,0.030789393931627274,-0.12235865741968155,1.0029973983764648,-8.570380210876465,-10.77565860748291,1.3581591844558716,1.884751319885254,3.8834621906280518,0.297671914100647,-0.12494173645973206,0.2664761543273926,1.584816813468933
126,39236,39231,0.012501128017902374,-0.003936203196644783,0.9592159986495972,-6.308982849121094,-7.972903251647949,1.7068678140640259,1.8841552734375,3.8830819129943848,0.29784131050109863,0.1687326729297638,0.203060582280159,1.610222339630127
127,39246,39241,0.014016149565577507,0.003066086443141103,1.024471640586853,-4.553636074066162,0.044208209961652756,1.422756314277649,1.8876441717147827,3.8843047618865967,0.29774701595306396,0.021517496556043625,0.0990549623966217,1.6120272874832153
128,39256,39251,0.0505223385989666,0.006349610164761543,0.9966380000114441,-1.611978530883789,-0.7326921820640564,1.689785361289978,1.8875219821929932,3.883998394012451,0.29782092571258545,0.17195789515972137,0.034594375640153885,1.6355046033859253
129,39266,39261,-0.011986016295850277,-0.002485616598278284,1.112424612045288,0.25794529914855957,-5.306003093719482,1.213915467262268,1.8878886699676514,3.883870840072632,0.2978346645832062,0.24322333931922913,0.022027913480997086,1.65471613407135
130,39276,39271,-0.054221127182245255,0.00309873023070395,1.115440845489502,-1.3288984298706055,-4.665740489959717,1.3816827535629272,1.890701413154602,3.8828186988830566,0.2979130446910858,0.2073327749967575,0.09721455723047256,1.6600456237792969
131,39286,39281,0.031550951302051544,0.0358530655503273,0.9919636845588684,-3.671190023422241,-3.357332706451416,1.2000739574432373,1.8914707899093628,3.8831257820129395,0.2988602817058563,0.3010998070240021,0.05090842768549919,1.6837611198425293
132,39296,39291,0.01160199660807848,0.050402410328388214,0.9979925155639648,-3.578946590423584,-4.122788906097412,0.3790398836135864,1.892242431640625,3.884131669998169,0.2991082966327667,0.3936533033847809,-0.012858170084655285,1.6989446878433228
133,39306,39301,0.011014066636562347,-0.09645190089941025,1.0396331548690796,-3.7836287021636963,-2.379620313644409,-0.7418504357337952,1.8946661949157715,3.884340286254883,0.2992165982723236,0.26835840940475464,-0.07209121435880661,1.6981067657470703
134,39316,39311,0.025659406557679176,-0.03487091138958931,0.9967540502548218,-1.4154913425445557,-3.5452699661254883,-1.3548426628112793,1.894146203994751,3.883509635925293,0.300193190574646,0.42429542541503906,-0.04942838102579117,1.6884956359863281
135,39326,39321,-0.012034950777888298,-0.06900542229413986,1.095418095588684,0.4184069335460663,0.368955135345459,-1.9070806503295898,1.8947526216506958,3.88342022895813,0.30052998661994934,0.487723171710968,-0.06673263013362885,1.675023078918457
136,39336,39331,0.035068850964307785,-0.09174645692110062,0.9414497017860413,1.0952028036117554,7.340064525604248,-2.3377418518066406,1.8970000743865967,3.883424758911133,0.30079132318496704,0.3529897928237915,-0.05917002633213997,1.6525378227233887
137,39346,39341,0.0400908961892128,0.05929447337985039,1.024597406387329,2.3417978286743164,9.948275566101074,-2.6540729999542236,1.9000357389450073,3.882394790649414,0.3035745918750763,0.21099118888378143,0.03260821849107742,1.6185132265090942
138,39356,39351,0.08928223699331284,-0.005875711794942617,0.9727234244346619,3.8351383209228516,7.539812088012695,-1.8382550477981567,1.9013645648956299,3.8814949989318848,0.30402541160583496,0.11968697607517242,0.07203413546085358,1.5846869945526123
139,39366,39361,-0.05628354102373123,-0.002115073846653104,1.049347162246704,0.981410801410675,5.469353675842285,-0.6354925036430359,1.9017359018325806,3.881334066390991,0.3045331835746765,0.05402935668826103,0.11336556822061539,1.5686460733413696
140,39376,39371,0.02681313082575798,0.007311725057661533,1.0036375522613525,-2.0616612434387207,-0.40203866362571716,-0.7072421908378601,1.9024487733840942,3.882770299911499,0.3050493896007538,0.02014928311109543,0.11190406233072281,1.585081934928894
141,39386,39381,-0.04547438770532608,0.0723799392580986,1.0563427209854126,-6.428359508514404,-7.2433366775512695,-1.6670141220092773,1.9032440185546875,3.88369083404541,0.30525529384613037,0.07866492867469788,0.0515470877289772,1.592591404914856
142,39396,39391,-0.03256068378686905,-0.019537867978215218,1.0899560451507568,-10.22706127166748,-11.187477111816406,-3.4443719387054443,1.902090311050415,3.8853204250335693,0.3059993386268616,0.2994828522205353,-0.08152957260608673,1.580593466758728
143,39406,39401,-0.024437349289655685,-0.1061842143535614,1.0423836708068848,-7.456468105316162,-5.863248348236084,-4.54577112197876,1.904348373413086,3.88594388961792,0.3065941631793976,0.32401931285858154,-0.24292044341564178,1.552342414855957
144,39416,39411,0.01960083097219467,-0.021926051005721092,1.0168503522872925,-1.901125431060791,-1.3240127563476562,-4.698629856109619,1.905790090560913,3.8848257064819336,0.30884361267089844,0.3615228831768036,-0.20178203284740448,1.4837709665298462
145,39426,39421,0.03937229514122009,0.04094460606575012,1.0396682024002075,5.978189468383789,-0.6213128566741943,-3.9657628536224365,1.907238245010376,3.884155511856079,0.3095978796482086,0.3333909809589386,-0.21332915127277374,1.4377121925354004
146,39436,39431,-0.010135700926184654,-0.01818074844777584,0.9835456013679504,10.037455558776855,-0.7932285666465759,-3.1051111221313477,1.9075959920883179,3.884035587310791,0.31052297353744507,0.44406595826148987,-0.10763144493103027,1.38448166847229
147,39446,39441,-0.024449801072478294,-0.07579707354307175,0.9875566959381104,8.767355918884277,2.972093343734741,-0.891582727432251,1.9099857807159424,3.883592128753662,0.3107300400733948,0.24727481603622437,-0.022250235080718994,1.3632838726043701
148,39456,39451,0.004918314050883055,-0.12165404111146927,1.0110965967178345,4.430816650390625,3.1231563091278076,0.15532909333705902,1.9101133346557617,3.884002208709717,0.31162938475608826,0.32646414637565613,0.03426061570644379,1.3498194217681885
149,39466,39461,0.00988247711211443,-0.1395271122455597,0.9888745546340942,-1.0026260614395142,1.6871007680892944,0.7709307074546814,1.910315990447998,3.8845748901367188,0.31250759959220886,0.38706839084625244,0.08769140392541885,1.3439152240753174
150,39476,39471,-0.04858345165848732,0.00728836003690958,1.0073963403701782,-4.021186351776123,-0.6531409621238708,1.298241376876831,1.9114980697631836,3.885474443435669,0.31255000829696655,0.3917093575000763,-0.01817256025969982,1.374224066734314
151,39486,39481,-0.018016086891293526,0.06496001034975052,0.9412894248962402,-3.6205854415893555,-3.9068756103515625,1.8959698677062988,1.911374568939209,3.8852405548095703,0.3125206530094147,0.3603888154029846,-0.0881442129611969,1.3993531465530396
152,39496,39491,-0.03593643009662628,0.10130561143159866,1.0158922672271729,-0.2867639660835266,-4.064990520477295,2.418123722076416,1.9104249477386475,3.8849027156829834,0.31333160400390625,0.5333395600318909,-0.05095607042312622,1.4067840576171875
153,39506,39501,0.0002949761983472854,0.09783108532428741,1.0074597597122192,5.106014728546143,-2.5329160690307617,3.0835704803466797,1.913655161857605,3.884813070297241,0.31465569138526917,0.45753929018974304,-0.02995913289487362,1.431463599205017
154,39516,39511,0.009805419482290745,0.015985118225216866,0.9680320620536804,9.099258422851562,2.0842397212982178,4.015148162841797,1.9128390550613403,3.8856239318847656,0.3161929249763489,0.5689837336540222,-0.0021326234564185143,1.474211573600769
155,39526,39521,0.02763824537396431,-0.024301279336214066,0.9265505075454712,10.256629943847656,7.927864074707031,3.448251962661743,1.9134469032287598,3.884955406188965,0.31695088744163513,0.5227404832839966,0.15960456430912018,1.5032579898834229
156,39536,39531,-0.0690024197101593,0.09954413026571274,0.9562065601348877,6.534818649291992,15.90296745300293,2.8434855937957764,1.9140660762786865,3.884885787963867,0.3176872134208679,0.4509375989437103,0.2413041889667511,1.5388346910476685
157,39546,39541,0.03639892116189003,0.0594649612903595,0.8227757811546326,3.246358633041382,19.540203094482422,2.625293493270874,1.915141224861145,3.88531231880188,0.31856435537338257,0.2679820656776428,0.2543638050556183,1.573876142501831
158,39556,39551,0.11107911914587021,0.0758851170539856,0.8786734938621521,1.5075045824050903,19.21481704711914,2.517296314239502,1.9157770872116089,3.8855066299438477,0.31918585300445557,0.038423921912908554,0.23017579317092896,1.6008833646774292
159,39566,39561,0.1269632875919342,-0.07322359830141068,0.9072381854057312,3.348567008972168,12.055328369140625,1.7011311054229736,1.9169403314590454,3.8846542835235596,0.31961965560913086,-0.1552216112613678,0.3475494384765625,1.6101404428482056
160,39576,39571,0.15318958461284637,-0.12923720479011536,0.8884648680686951,2.840712785720825,4.0318450927734375,0.4884709417819977,1.9173088073730469,3.8848140239715576,0.31803396344184875,-0.2446935623884201,0.39749571681022644,1.6384811401367188
161,39586,39581,0.015223484486341476,-0.0041351765394210815,0.9570228457450867,1.6009037494659424,7.013758659362793,-0.6788794994354248,1.9175643920898438,3.8862876892089844,0.31823158264160156,-0.22050988674163818,0.35916024446487427,1.6499403715133667
162,39596,39591,0.16027690470218658,0.0037792036309838295,0.8320813775062561,-0.8459133505821228,-3.808851718902588,-0.9665570259094238,1.9187942743301392,3.8859751224517822,0.31823208928108215,-0.186612069606781,0.3787997364997864,1.6406725645065308
163,39606,39601,0.14351655542850494,-0.10741115361452103,0.8925377726554871,-2.875958204269409,-9.133817672729492,-1.5988831520080566,1.9179669618606567,3.8858652114868164,0.3184055984020233,-0.02877713367342949,0.3550611138343811,1.6406710147857666
164,39616,39611,0.041529010981321335,-0.07927526533603668,0.914615273475647,-3.7276597023010254,-9.821111679077148,-0.9248878359794617,1.9198895692825317,3.8868603706359863,0.3180809020996094,-0.03597283735871315,0.29623621702194214,1.6267749071121216
165,39626,39621,-0.01985922083258629,0.028197510167956352,1.0031882524490356,-2.6662745475769043,-8.277339935302734,-0.02570079080760479,1.920163869857788,3.887500524520874,0.31780141592025757,0.11676973104476929,0.23896324634552002,1.6394404172897339
166,39636,39631,-0.008540095761418343,-0.022036617621779442,1.0296375751495361,0.7045807838439941,-6.858758449554443,0.7998074889183044,1.9206870794296265,3.8882083892822266,0.31744423508644104,0.23878668248653412,0.2138603925704956,1.640317440032959
167,39646,39641,0.01946837082505226,-0.1372736692428589,0.9743718504905701,1.181680679321289,-2.905299186706543,1.7344425916671753,1.9205734729766846,3.8887276649475098,0.31467780470848083,0.3069441318511963,0.23250094056129456,1.6615240573883057
168,39656,39651,-0.04871521517634392,-0.12195960432291031,1.0738941431045532,-1.161905288696289,8.073629379272461,1.5000606775283813,1.9200059175491333,3.8885715007781982,0.3141985833644867,0.3543649911880493,0.2431381195783615,1.7055423259735107
169,39666,39661,0.004703304264694452,-0.0917888656258583,0.9806044697761536,-1.552907943725586,10.573097229003906,1.286020040512085,1.92043137550354,3.8900983333587646,0.3137127161026001,0.17092932760715485,0.21496407687664032,1.7206815481185913
170,39676,39671,-0.01706906035542488,0.05665239691734314,0.9527135491371155,-4.1353654861450195,16.156095504760742,2.310469388961792,1.9205764532089233,3.8904483318328857,0.31182485818862915,0.017818670719861984,0.17614836990833282,1.7583563327789307
171,39686,39681,0.03787077218294144,-0.11451200395822525,0.9951919317245483,-4.689056873321533,11.649186134338379,2.956094980239868,1.921115756034851,3.8922789096832275,0.3112909197807312,-0.10500569641590118,0.11033163219690323,1.7854537963867188
172,39696,39691,0.030536910519003868,-0.1522158831357956,1.0389701128005981,-6.707490921020508,5.5030598640441895,2.002166986465454,1.9225949048995972,3.8936097621917725,0.31066426634788513,-0.28964757919311523,0.10442038625478745,1.8421896696090698
173,39706,39701,0.019667990505695343,-0.03204885125160217,1.0185511112213135,-8.014326095581055,-2.7055017948150635,1.2893122434616089,1.9228171110153198,3.8937857151031494,0.3096262514591217,-0.2822687029838562,-0.017792170867323875,1.8774726390838623
174,39716,39711,-0.01167431753128767,-0.057514239102602005,1.0044114589691162,-11.216157913208008,-5.613495349884033,2.4461445808410645,1.922015905380249,3.8948326110839844,0.3115772306919098,-0.1669401079416275,-0.08388522267341614,1.8794828653335571
175,39726,39721,0.0573543943464756,-0.14251168072223663,1.0063835382461548,-9.71505069732666,-4.504683017730713,1.6525496244430542,1.9228571653366089,3.8930585384368896,0.3111920952796936,-0.09620239585638046,-0.04052380472421646,1.90888512134552
176,39736,39731,-0.013492896221578121,0.03068772330880165,0.9920958280563354,-5.218044757843018,-1.1092199087142944,3.228100061416626,1.9230049848556519,3.8946127891540527,0.3108469247817993,0.028875604271888733,-0.19577883183956146,1.9300779104232788
177,39746,39741,-0.04522073641419411,0.11485091596841812,1.099899172782898,-1.1835567951202393,8.401653289794922,3.248322010040283,1.923736572265625,3.894712448120117,0.31098800897598267,-0.02117782086133957,-0.2657003402709961,1.979341745376587
178,39756,39751,0.023972900584340096,-0.00739295594394207,1.0086764097213745,-1.2796716690063477,15.673335075378418,3.161956310272217,1.9240506887435913,3.8940646648406982,0.31098848581314087,-0.16108164191246033,-0.20810554921627045,1.9956022500991821
179,39766,39761,0.04860888794064522,0.06181395426392555,1.0349736213684082,-2.781216621398926,17.824792861938477,2.574122190475464,1.9262021780014038,3.893529176712036,0.3104686439037323,-0.38004326820373535,-0.2454768568277359,2.026442050933838
180,39776,39771,-0.013524701818823814,0.10295486450195312,1.1000454425811768,-4.8448710441589355,16.987794876098633,1.6137747764587402,1.9260979890823364,3.892643928527832,0.31116965413093567,-0.5423321723937988,-0.30513256788253784,2.032301902770996
181,39786,39781,-0.042171064764261246,0.1677303910255432,1.0331124067306519,-6.75999641418457,10.855764389038086,1.3031835556030273,1.926253080368042,3.893073558807373,0.3111322820186615,-0.7403165102005005,-0.4021606743335724,2.0507917404174805
182,39796,39791,-0.07759740948677063,0.07905787974596024,1.055513858795166,-3.2806200981140137,-1.5739824771881104,1.6965042352676392,1.926844835281372,3.8928332328796387,0.3110973834991455,-0.813728928565979,-0.4202927052974701,2.0505003929138184
183,39806,39801,-0.0039010727778077126,-0.12339799106121063,1.1038373708724976,3.4861161708831787,-12.97558879852295,2.1616508960723877,1.9263719320297241,3.8922314643859863,0.3111782371997833,-0.6918761730194092,-0.44709479808807373,2.06295108795166
184,39816,39811,0.03531830757856369,-0.15388089418411255,1.0564377307891846,8.633485794067383,-15.529326438903809,3.8780465126037598,1.9259395599365234,3.8930044174194336,0.31196320056915283,-0.42205697298049927,-0.3674194812774658,2.101961135864258
185,39826,39821,0.01443719957023859,-0.07288523763418198,1.0013325214385986,10.860302925109863,-13.089353561401367,5.569329261779785,1.9269353151321411,3.8925702571868896,0.3121337294578552,-0.34574317932128906,-0.21086916327476501,2.1494758129119873
186,39836,39831,0.04675527289509773,-0.08224940299987793,0.9596982002258301,10.378332138061523,-8.040989875793457,7.269350528717041,1.9265451431274414,3.8932580947875977,0.31241148710250854,-0.1999574899673462,-0.11655737459659576,2.2161004543304443
187,39846,39841,0.021532317623496056,-0.008882081136107445,1.0224859714508057,2.5495193004608154,-1.2669448852539062,8.604582786560059,1.9277069568634033,3.8930459022521973,0.311393678188324,-0.21479129791259766,-0.056866150349378586,2.285374402999878
188,39856,39851,-0.007727480493485928,-0.01746954396367073,1.063269019126892,-6.187312602996826,6.983718395233154,7.2588958740234375,1.92836332321167,3.8934054374694824,0.3115508556365967,-0.18206018209457397,-0.0636550635099411,2.3663408756256104
189,39866,39861,0.025617018342018127,0.00027622192283160985,0.9195838570594788,-14.64687442779541,10.68000602722168,4.87062406539917,1.9296011924743652,3.8940627574920654,0.311746209859848,-0.29245418310165405,-0.23504638671875,2.4319071769714355
190,39876,39871,0.03784649074077606,-0.012487642467021942,0.9583995938301086,-15.069622993469238,14.588443756103516,4.001165866851807,1.9310946464538574,3.8950538635253906,0.3089149594306946,-0.5594237446784973,-0.4877200424671173,2.4835846424102783
191,39886,39881,0.08029530197381973,-0.18831412494182587,1.0125925540924072,-7.819535732269287,12.369874000549316,3.3852412700653076,1.931970238685608,3.894880771636963,0.3088523745536804,-0.7285060286521912,-0.6118881702423096,2.5223069190979004
192,39896,39891,0.0030080797150731087,0.018097443506121635,1.0271947383880615,1.0303232669830322,8.659432411193848,3.5104799270629883,1.9314278364181519,3.895098924636841,0.30889567732810974,-0.7713026404380798,-0.605949878692627,2.569700002670288
193,39906,39901,0.048597466200590134,0.022072363644838333,0.8545440435409546,10.55489444732666,-1.3865011930465698,2.639801263809204,1.931752324104309,3.894692897796631,0.30860406160354614,-0.8068617582321167,-0.5136481523513794,2.602142810821533
194,39916,39911,-0.003959302324801683,0.08806639909744263,1.0205929279327393,14.595741271972656,-7.755215644836426,1.4861871004104614,1.932705044746399,3.893873691558838,0.30854615569114685,-0.7750444412231445,-0.3012935221195221,2.6305935382843018
195,39926,39921,0.010920402593910694,-0.02460780180990696,1.0185450315475464,11.011889457702637,-8.955711364746094,0.5387092232704163,1.932723045349121,3.893240213394165,0.30851322412490845,-0.5748839974403381,-0.15077263116836548,2.6247479915618896
196,39936,39931,-0.025452595204114914,0.004606372211128473,1.0203262567520142,0.591501772403717,-5.767587661743164,-0.8324933648109436,1.9334311485290527,3.89365291595459,0.3083919286727905,-0.45143818855285645,-0.10045165568590164,2.6249325275421143
197,39946,39941,0.0247963760048151,-0.13666649162769318,0.9919414520263672,-9.103490829467773,-0.320169061422348,-2.7368240356445312,1.9352469444274902,3.893277168273926,0.3063882887363434,-0.5474023222923279,-0.13519597053527832,2.61922550201416
198,39956,39951,0.0030385213904082775,-0.07814843952655792,1.014517903327942,-14.215003967285156,4.928523540496826,-5.368280410766602,1.9362155199050903,3.8951754570007324,0.30619287490844727,-0.5065885782241821,-0.32462185621261597,2.588369607925415
199,39966,39961,0.01338393334299326,-0.010866858065128326,1.0020898580551147,-12.945932388305664,8.503405570983887,-6.985576629638672,1.9373267889022827,3.8971006870269775,0.305952787399292,-0.5615073442459106,-0.5613493919372559,2.5392773151397705
200,39976,39971,0.01764107309281826,-0.011735650710761547,0.9833831191062927,-6.382175445556641,13.04334831237793,-9.775717735290527,1.9394981861114502,3.897853136062622,0.30536603927612305,-0.8414956331253052,-0.7301896810531616,2.4925220012664795
201,39986,39981,0.0010456284508109093,-0.02211722359061241,1.0209904909133911,2.7474217414855957,10.996628761291504,-11.854408264160156,1.939998984336853,3.8990423679351807,0.30512794852256775,-0.9731066823005676,-0.7615863680839539,2.3915014266967773
202,39996,39991,0.013970835134387016,-0.01632920652627945,1.004050612449646,12.602142333984375,2.949584484100342,-12.500300407409668,1.940191388130188,3.8980937004089355,0.30503207445144653,-1.0375211238861084,-0.5569298267364502,2.296887159347534
203,40006,40001,0.0012220324715599418,0.011622208170592785,1.05159330368042,19.63887596130371,-7.315009117126465,-13.136308670043945,1.9411413669586182,3.8988842964172363,0.3048572242259979,-0.9341846704483032,-0.35583484172821045,2.168583869934082
204,40016,40011,-0.010675223544239998,-0.15345658361911774,0.9921975135803223,21.15361785888672,-15.632314682006836,-10.958513259887695,1.9407826662063599,3.899038314819336,0.30478233098983765,-0.7590367197990417,-0.15432538092136383,2.048027992248535
205,40026,40021,-0.003398529952391982,-0.046926409006118774,1.0452429056167603,17.70903968811035,-18.678415298461914,-8.697722434997559,1.9400578737258911,3.8991003036499023,0.30473339557647705,-0.5542095303535461,0.03871353343129158,1.9249614477157593
206,40036,40031,0.022858960554003716,-0.027895422652363777,1.015608310699463,9.205666542053223,-15.662599563598633,-7.28813362121582,1.9405452013015747,3.8996360301971436,0.30469438433647156,-0.3420795798301697,0.15789608657360077,1.8416037559509277
207,40046,40041,-0.007904058322310448,-0.031033964827656746,1.0289868116378784,1.2462096214294434,-10.210779190063477,-6.07307767868042,1.9417285919189453,3.8998873233795166,0.3054150342941284,-0.2747352123260498,0.20634515583515167,1.7623465061187744
208,40056,40051,-0.008174181915819645,-0.10541453212499619,1.0613447427749634,-3.2120258808135986,-1.7048660516738892,-6.04689884185791,1.9417498111724854,3.900379180908203,0.30542445182800293,-0.06762953102588654,0.21823112666606903,1.6953328847885132
209,40066,40061,0.023587049916386604,-0.05419250577688217,1.0273926258087158,-3.12699031829834,5.112614154815674,-5.8257365226745605,1.9416035413742065,3.9009056091308594,0.3055180311203003,-0.11427681893110275,0.17641288042068481,1.6495789289474487
210,40076,40071,-0.004943018779158592,-0.06476268172264099,1.0832295417785645,0.7356331944465637,10.73877239227295,-6.234006404876709,1.9420214891433716,3.901191473007202,0.30574414134025574,-0.22592873871326447,0.16933321952819824,1.5812044143676758
211,40086,40081,0.03218095004558563,-0.06540510058403015,1.0379263162612915,3.016096830368042,13.490212440490723,-5.385115623474121,1.9434822797775269,3.900843858718872,0.30585891008377075,-0.35684674978256226,0.21117769181728363,1.5326019525527954
212,40096,40091,-0.01665344089269638,-0.09366392344236374,1.0435905456542969,4.186497688293457,15.87104320526123,-4.859676361083984,1.9442154169082642,3.9000582695007324,0.30604955554008484,-0.5319864749908447,0.20255416631698608,1.455854058265686
213,40106,40101,0.03316532075405121,0.00598294148221612,1.0233460664749146,5.073922157287598,8.470086097717285,-2.635702133178711,1.944671392440796,3.9009201526641846,0.305555522441864,-0.6492005586624146,0.29377231001853943,1.410101294517517
214,40116,40111,-0.003189234994351864,-0.05564560368657112,0.9835926294326782,4.3258442878723145,1.4603755474090576,-0.7543338537216187,1.9452307224273682,3.900482416152954,0.30583029985427856,-0.6949971914291382,0.3867529332637787,1.3895366191864014
215,40126,40121,0.028327403590083122,0.012953590601682663,1.0206917524337769,1.347489356994629,-7.349060535430908,0.3313603103160858,1.9443947076797485,3.900524616241455,0.3062024712562561,-0.6214170455932617,0.38499337434768677,1.3673079013824463
216,40136,40131,0.0010604097042232752,-0.03195379301905632,1.0164576768875122,-4.4537882804870605,-11.908284187316895,0.23802801966667175,1.945086121559143,3.90040922164917,0.306473046541214,-0.5586390495300293,0.3821258544921875,1.3787574768066406
217,40146,40141,-0.012351993471384048,0.01697983220219612,1.0164706707000732,-9.972991943359375,-13.355815887451172,-1.2058653831481934,1.9458924531936646,3.9006035327911377,0.30715906620025635,-0.41189292073249817,0.19537882506847382,1.3732150793075562
218,40156,40151,-0.0611155740916729,0.12085950374603271,1.0658175945281982,-12.991268157958984,-10.534852027893066,-3.3312952518463135,1.9455962181091309,3.9021880626678467,0.3075326085090637,-0.28228098154067993,0.021804437041282654,1.3593201637268066
219,40166,40161,-0.018605215474963188,-0.003065495053306222,1.0064780712127686,-10.675315856933594,-6.29334020614624,-4.025707721710205,1.9470477104187012,3.903475046157837,0.3077816665172577,-0.3472158908843994,-0.0909130796790123,1.3435313701629639
220,40176,40171,0.011671384796500206,0.03919578343629837,1.0343855619430542,-4.912021636962891,-3.6601979732513428,-5.230891704559326,1.9472675323486328,3.9036242961883545,0.307786762714386,-0.17252174019813538,-0.13523446023464203,1.2896406650543213
221,40186,40181,-0.02067965641617775,-0.005040596704930067,1.0099393129348755,-0.05394995957612991,-2.738668441772461,-5.569709300994873,1.9460608959197998,3.902470111846924,0.3083152770996094,-0.05079801380634308,-0.1662808060646057,1.2389941215515137
222,40196,40191,-0.0299321748316288,-0.1268567442893982,1.032094955444336,4.7137298583984375,-2.2461071014404297,-6.415121078491211,1.9474619626998901,3.9019932746887207,0.30872973799705505,-0.0870656669139862,-0.12128639966249466,1.182081937789917
223,40206,40201,0.009654875844717026,-0.0647355169057846,0.9920436143875122,11.735062599182129,2.2746639251708984,-6.708246231079102,1.9492313861846924,3.902651309967041,0.308458536863327,-0.1568998396396637,0.007748599164187908,1.1286659240722656
224,40216,40211,-0.03709055483341217,0.10740601271390915,1.0789659023284912,14.72297191619873,2.1400442123413086,-7.459367275238037,1.9499233961105347,3.9039931297302246,0.3089044690132141,-0.11296407878398895,0.0852760449051857,1.0983339548110962
225,40226,40221,0.07419535517692566,-0.01840488612651825,0.925951361656189,14.864588737487793,4.208460807800293,-8.761772155761719,1.9495213031768799,3.904423952102661,0.3094145357608795,-0.25508731603622437,0.27529996633529663,1.0281842947006226
226,40236,40231,0.09695225954055786,0.011670568026602268,0.9672375917434692,13.570788383483887,4.222115516662598,-9.190217971801758,1.9509177207946777,3.904792308807373,0.31046515703201294,-0.3333408236503601,0.37907397747039795,0.9586729407310486
227,40246,40241,-0.006711178459227085,0.018228938803076744,1.0066478252410889,9.772420883178711,2.727027416229248,-9.050092697143555,1.9508318901062012,3.903717517852783,0.31097808480262756,-0.30610671639442444,0.5953980088233948,0.8448517918586731
228,40256,40251,0.02502254769206047,-0.1092618778347969,0.9945213198661804,4.171079158782959,1.4482536315917969,-8.19194221496582,1.9515330791473389,3.904481887817383,0.31144604086875916,-0.3492129445075989,0.5838251709938049,0.7555650472640991
229,40266,40261,0.07036739587783813,-0.03179344907402992,0.988110363483429,-3.1647956371307373,-4.313334941864014,-7.269611358642578,1.953151822090149,3.905160665512085,0.3119070827960968,-0.34801217913627625,0.6194770932197571,0.6826450228691101
230,40276,40271,-0.004817309323698282,-0.007458594627678394,0.9870153665542603,-7.201151371002197,-5.945931911468506,-7.182727336883545,1.9540953636169434,3.9053475856781006,0.31667518615722656,-0.3316446542739868,0.5514207482337952,0.605078935623169
231,40286,40281,0.028472017496824265,0.07444572448730469,0.9383548498153687,-6.550361156463623,-8.704878807067871,-6.712432384490967,1.954129934310913,3.9060192108154297,0.3173932433128357,-0.21719661355018616,0.44525933265686035,0.5537944436073303
232,40296,40291,0.034629859030246735,0.1390281468629837,0.9527820944786072,-4.075753211975098,-10.448535919189453,-6.256288051605225,1.9559333324432373,3.9064548015594482,0.31800153851509094,-0.20450638234615326,0.35640230774879456,0.4815627932548523
233,40306,40301,-0.0691601037979126,-0.03247905522584915,1.0491546392440796,0.3014703691005707,-7.963946342468262,-5.007212162017822,1.95679771900177,3.9070847034454346,0.31809768080711365,0.07764774560928345,0.4142085015773773,0.4323461353778839
234,40316,40311,-0.044932302087545395,-0.0008542455616407096,1.0447494983673096,3.5251710414886475,-7.730181694030762,-2.1487326622009277,1.9570825099945068,3.905580997467041,0.31872522830963135,0.04744608700275421,0.45471110939979553,0.366775244474411
235,40326,40321,0.06095803901553154,-0.004118118900805712,0.9591971635818481,5.587427139282227,-5.821930885314941,-0.7652813792228699,1.9567922353744507,3.9050819873809814,0.3193656802177429,0.21424268186092377,0.5271196365356445,0.3377383351325989
236,40336,40331,0.03556741401553154,-0.0365380197763443,0.9572136998176575,5.314797401428223,-3.906348705291748,0.28946653008461,1.9579237699508667,3.9043829441070557,0.3180100917816162,0.21343404054641724,0.6221936345100403,0.34708210825920105
237,40346,40341,-0.04354684054851532,-0.018941523507237434,1.0375300645828247,-0.012995357625186443,-3.3655364513397217,1.8583242893218994,1.9583086967468262,3.903661012649536,0.31849703192710876,0.20941162109375,0.6798602342605591,0.34741249680519104
238,40356,40351,-0.013111719861626625,-0.020990602672100067,0.9969640970230103,-6.481066703796387,-2.2968690395355225,3.6498918533325195,1.9581363201141357,3.9049673080444336,0.31902649998664856,0.3307796120643616,0.5619539618492126,0.38063105940818787
239,40366,40361,0.012481496669352055,-0.03143806383013725,0.9793001413345337,-12.087212562561035,-0.04021824896335602,4.590762138366699,1.9589836597442627,3.904773712158203,0.31952667236328125,0.34906303882598877,0.489595890045166,0.42057719826698303
240,40376,40371,0.015294826589524746,-0.0216643288731575,0.9812134504318237,-12.830076217651367,2.4314095973968506,5.471426963806152,1.9597784280776978,3.904872179031372,0.3194931149482727,0.3365095555782318,0.35742616653442383,0.46956518292427063
241,40386,40381,0.007031562738120556,-0.026002831757068634,0.9886304140090942,-7.768657207489014,2.5373988151550293,7.119851589202881,1.960546612739563,3.9052839279174805,0.3199544847011566,0.2829393744468689,0.32278114557266235,0.5361137986183167
242,40396,40391,0.07435557246208191,-0.0850827768445015,0.9679063558578491,-0.32686689496040344,2.689513921737671,7.5270094871521,1.9612340927124023,3.904069662094116,0.3203467130661011,0.2322736233472824,0.23391827940940857,0.5991766452789307
243,40406,40401,0.051626056432724,-0.09234572947025299,0.9345012903213501,7.963331699371338,2.7055113315582275,7.909574031829834,1.9616203308105469,3.9031131267547607,0.3201771676540375,0.24961338937282562,0.3541574776172638,0.6833541989326477
244,40416,40411,0.03392501175403595,-0.06694027781486511,0.9375340342521667,14.447440147399902,2.3413331508636475,10.159734725952148,1.961502194404602,3.901585102081299,0.32052475214004517,0.25753408670425415,0.5084047317504883,0.7479383945465088
245,40426,40421,0.09206262230873108,-0.005925580393522978,0.9229832291603088,16.86530876159668,1.075142502784729,12.611879348754883,1.9620896577835083,3.9010860919952393,0.32080116868019104,0.22438742220401764,0.6786554455757141,0.8253883123397827
246,40436,40431,-0.017119519412517548,0.03457770124077797,0.9999023675918579,15.728425979614258,-2.677187204360962,14.579246520996094,1.9622735977172852,3.9002981185913086,0.3223593831062317,0.26117143034935,0.774899959564209,0.9630058407783508
247,40446,40441,-0.0006112666451372206,-0.0825236588716507,1.0152888298034668,9.765482902526855,6.685235977172852,14.753876686096191,1.9622735977172852,3.900207042694092,0.32260972261428833,0.2741047739982605,0.8960655927658081,1.13593590259552
248,40456,40451,0.01642572320997715,-0.1902553141117096,1.0014723539352417,3.7878262996673584,9.679597854614258,13.285002708435059,1.9611653089523315,3.90102481842041,0.32293084263801575,0.2758830189704895,0.9189837574958801,1.2930636405944824
249,40466,40461,0.046608131378889084,-0.105921670794487,0.9239547252655029,-0.40367591381073,11.258004188537598,11.595315933227539,1.961169958114624,3.9007949829101562,0.32317763566970825,0.1440458595752716,0.9399165511131287,1.4524723291397095
250,40476,40471,-0.034138184040784836,0.015575398690998554,1.0037850141525269,-5.506060600280762,13.04106616973877,11.118167877197266,1.9619501829147339,3.901482582092285,0.3251288831233978,-0.03024422563612461,0.8692804574966431,1.5927976369857788
251,40486,40481,-0.024966923519968987,0.054898183792829514,1.0238450765609741,-7.414948463439941,10.251214981079102,9.89184284210205,1.962712287902832,3.9016897678375244,0.3254771828651428,-0.15284426510334015,0.8242649435997009,1.698488473892212
252,40496,40491,-0.0117458775639534,0.003664004383608699,0.9884113669395447,-7.580817222595215,5.456587314605713,9.776642799377441,1.9630941152572632,3.9011380672454834,0.3257720172405243,-0.24750351905822754,0.8263832330703735,1.7869282960891724
253,40506,40501,0.045681506395339966,-0.061477795243263245,0.967771589756012,-5.430450439453125,5.977980613708496,7.836941242218018,1.9640029668807983,3.900362014770508,0.324930876493454,-0.20358549058437347,0.6929317712783813,1.9007642269134521
254,40516,40511,-0.1035894826054573,0.07762446999549866,0.9702188968658447,-4.197992324829102,9.952789306640625,5.640268325805664,1.9629572629928589,3.9014317989349365,0.3252459466457367,-0.2632518708705902,0.6762998700141907,1.9964135885238647
255,40526,40521,-0.07286623865365982,0.07155043631792068,0.9023417234420776,-3.670281171798706,12.35837459564209,4.002615928649902,1.9634050130844116,3.9017117023468018,0.32545459270477295,-0.41682544350624084,0.5834997296333313,2.0573225021362305
256,40536,40531,0.1344836950302124,-0.10585758835077286,0.9272983074188232,-5.383190631866455,10.50739574432373,1.659205436706543,1.963977336883545,3.902822256088257,0.32334086298942566,-0.5884187817573547,0.5548540949821472,2.1125967502593994
257,40546,40541,0.05296875908970833,-0.15358301997184753,1.034793496131897,-6.93747091293335,10.863994598388672,-0.10879730433225632,1.9646410942077637,3.9023897647857666,0.32324549555778503,-0.6213366389274597,0.5793699622154236,2.126413345336914
258,40556,40551,-0.17830997705459595,0.04791191965341568,1.0960689783096313,-9.100688934326172,12.649251937866211,-0.060484226793050766,1.9649138450622559,3.9011940956115723,0.3231731653213501,-0.7410445213317871,0.49772909283638,2.134127378463745
259,40566,40561,-0.08990255743265152,0.11466929316520691,0.9460093975067139,-9.640694618225098,10.46597957611084,-0.11227961629629135,1.965350866317749,3.900663375854492,0.32206863164901733,-0.8936084508895874,0.3831166923046112,2.114929437637329
260,40576,40571,0.14636394381523132,-0.015488194301724434,0.9537018537521362,-10.628705024719238,7.37294864654541,-0.9029396176338196,1.9665032625198364,3.9006543159484863,0.32194316387176514,-0.919094979763031,0.17323356866836548,2.1000704765319824
261,40586,40581,0.08739466965198517,-0.0910409465432167,0.9075108170509338,-11.3480863571167,6.57851505279541,-2.2383618354797363,1.9658958911895752,3.8999218940734863,0.3218453824520111,-0.9870659112930298,0.19189971685409546,2.0627684593200684
262,40596,40591,0.007219549268484116,0.002533699618652463,0.9860512018203735,-10.868881225585938,6.099201679229736,-2.759267568588257,1.9667060375213623,3.898346424102783,0.3216228187084198,-1.0413845777511597,0.12725283205509186,2.0404069423675537
263,40606,40601,-0.023219741880893707,0.01606833003461361,0.9971891045570374,-11.076725006103516,7.220821857452393,-3.771515130996704,1.9672391414642334,3.8978075981140137,0.32147592306137085,-1.1049702167510986,0.054385777562856674,2.0233097076416016
264,40616,40611,0.036834076046943665,-0.06732280552387238,0.9390718340873718,-11.031454086303711,9.04898452758789,-4.681515693664551,1.9679086208343506,3.896467685699463,0.32119548320770264,-1.1857248544692993,-0.10444830358028412,1.9601829051971436
265,40626,40621,0.012428905814886093,-0.031415246427059174,0.9824945330619812,-9.60234546661377,9.236451148986816,-4.509117603302002,1.9683259725570679,3.8967061042785645,0.3209090530872345,-1.2850570678710938,-0.23849807679653168,1.9176111221313477
266,40636,40631,-0.009425830096006393,0.019091729074716568,1.018267035484314,-6.3476057052612305,11.189069747924805,-4.382897853851318,1.968823790550232,3.8966002464294434,0.3199863135814667,-1.3973711729049683,-0.2599228620529175,1.8831987380981445
267,40646,40641,0.05793037265539169,0.06363480538129807,0.9236665964126587,-3.6163313388824463,9.758803367614746,-4.463096618652344,1.9696424007415771,3.8961286544799805,0.3195878863334656,-1.5253095626831055,-0.23662340641021729,1.8531314134597778
268,40656,40651,-0.010104873217642307,0.03428351506590843,1.014838457107544,-0.8350241184234619,6.4713969230651855,-3.72861909866333,1.9706006050109863,3.894784450531006,0.31914281845092773,-1.7344095706939697,-0.31408917903900146,1.802686333656311
269,40666,40661,0.09132377058267593,-0.09283346682786942,0.9735549688339233,-0.27318838238716125,1.257241129875183,-3.314650297164917,1.9723021984100342,3.8948824405670166,0.31631433963775635,-1.6386668682098389,-0.21341267228126526,1.7818862199783325
270,40676,40671,0.06183651462197304,-0.038743115961551666,0.939434826374054,-1.3615384101867676,-3.8408474922180176,-2.7838218212127686,1.9716910123825073,3.893122673034668,0.315865695476532,-1.613409161567688,-0.204281285405159,1.7524462938308716
271,40686,40681,0.07770872116088867,-0.030735807493329048,0.9187917113304138,-3.850111246109009,-7.088747501373291,-1.996576189994812,1.972373366355896,3.8918375968933105,0.3152511417865753,-1.599473476409912,-0.30215492844581604,1.7102162837982178
272,40696,40691,0.0750226229429245,-0.1479613482952118,1.0195587873458862,-5.57688045501709,-9.767624855041504,-1.397940754890442,1.973310947418213,3.8924057483673096,0.3145641088485718,-1.457904577255249,-0.35974931716918945,1.6922208070755005
273,40706,40701,0.07252420485019684,-0.08598635345697403,1.0342330932617188,-8.388922691345215,-7.220297813415527,-1.1313389539718628,1.9735876321792603,3.891733169555664,0.31750690937042236,-1.54653799533844,-0.5258938670158386,1.6799542903900146
274,40716,40711,0.04391971603035927,-0.0538741759955883,0.9814934730529785,-9.327447891235352,-1.8419666290283203,-1.1803538799285889,1.97622811794281,3.8922035694122314,0.31688985228538513,-1.3786216974258423,-0.5654135942459106,1.6567234992980957
275,40726,40721,0.08026319742202759,-0.006896865554153919,1.0016061067581177,-9.450383186340332,0.9402439594268799,-0.11729798465967178,1.9760475158691406,3.891735553741455,0.31657350063323975,-1.6073806285858154,-0.6136316061019897,1.6822618246078491
276,40736,40731,0.11747816205024719,-0.12392581254243851,0.9973495602607727,-7.649956226348877,0.7579017281532288,0.02854696661233902,1.9794085025787354,3.8908491134643555,0.3197127878665924,-1.5236271619796753,-0.6535305380821228,1.6854138374328613
277,40746,40741,-0.0015172372804954648,0.001993648475036025,1.0851002931594849,-6.428234100341797,-1.8595302104949951,0.6287294030189514,1.9790366888046265,3.889713764190674,0.3196036219596863,-1.477156162261963,-0.591498613357544,1.6964448690414429
278,40756,40751,0.05960505083203316,-0.04673849046230316,0.9420421123504639,-4.284049034118652,-8.9686861038208,0.7342535853385925,1.9798136949539185,3.8874032497406006,0.3194102644920349,-1.4431179761886597,-0.6639677286148071,1.6998119354248047
279,40766,40761,0.02972380816936493,0.014346226118505001,1.014048457145691,-5.01521635055542,-12.856715202331543,1.228417992591858,1.9810572862625122,3.88672137260437,0.3180852234363556,-1.220388650894165,-0.7184262871742249,1.6932660341262817
280,40776,40771,0.012822970747947693,-0.02273094467818737,1.0291420221328735,-6.0014190673828125,-14.24277114868164,1.627070665359497,1.9809925556182861,3.8861820697784424,0.31791263818740845,-1.267614483833313,-0.6356959939002991,1.760335087776184
281,40786,40781,0.007863912731409073,0.06362426280975342,0.9483852982521057,-10.019418716430664,-11.687204360961914,0.744283139705658,1.9839363098144531,3.8838555812835693,0.31743860244750977,-1.0127155780792236,-0.8393018245697021,1.7173770666122437
282,40796,40791,-0.024289799854159355,0.09664782136678696,1.0604788064956665,-13.970417976379395,-6.684296607971191,0.7297666072845459,1.983590841293335,3.8847172260284424,0.3174039423465729,-1.048655390739441,-1.0939357280731201,1.7049908638000488
283,40806,40801,0.04632875323295593,-0.02784513682126999,0.9806843996047974,-16.477632522583008,-2.6289989948272705,1.078877568244934,1.9859596490859985,3.8848540782928467,0.3172246813774109,-1.076877474784851,-1.3177406787872314,1.7064942121505737
284,40816,40811,0.02523411065340042,-0.023885764181613922,0.9885396361351013,-15.521305084228516,1.6064503192901611,1.8096168041229248,1.9871524572372437,3.885150671005249,0.3169015049934387,-1.0940208435058594,-1.5374298095703125,1.7117325067520142
285,40826,40821,-0.009606851264834404,-0.03342260792851448,0.9623475074768066,-12.011960983276367,1.9408897161483765,1.662622094154358,1.9890964031219482,3.8863561153411865,0.3166036605834961,-1.0704845190048218,-1.6400294303894043,1.7602801322937012
286,40836,40831,-0.017990266904234886,0.04848099127411842,1.0788785219192505,-3.818394184112549,-2.156259775161743,1.7558348178863525,1.9897923469543457,3.8856263160705566,0.31901535391807556,-1.0124329328536987,-1.646167278289795,1.8027119636535645
287,40846,40841,0.010245945304632187,-0.04872308298945427,0.9872331023216248,7.803191184997559,-12.093295097351074,2.285874843597412,1.9906262159347534,3.8854894638061523,0.31901052594184875,-0.8991660475730896,-1.6228971481323242,1.8071849346160889
288,40856,40851,-0.06089669466018677,0.0038497827481478453,1.10578453540802,16.156681060791016,-16.90597915649414,3.6687562465667725,1.9914939403533936,3.8845298290252686,0.31897789239883423,-0.6542316675186157,-1.4343992471694946,1.8450926542282104
289,40866,40861,0.01848001591861248,-0.018094157800078392,0.9995906949043274,18.82619857788086,-15.402375221252441,4.85884952545166,1.9909746646881104,3.8836495876312256,0.31768208742141724,-0.818593442440033,-1.3128639459609985,1.9286175966262817
290,40876,40871,-0.01757480390369892,0.1249055489897728,0.9620843529701233,16.09087371826172,-12.487274169921875,5.508108139038086,1.995531439781189,3.883756160736084,0.3173803687095642,-0.5179339647293091,-1.1158558130264282,1.9637997150421143
291,40886,40881,0.010215078480541706,-0.03549608588218689,0.9377307295799255,9.480363845825195,-10.654135704040527,5.10897970199585,1.994999647140503,3.8826379776000977,0.31750956177711487,-0.4955517649650574,-1.0003938674926758,2.0032436847686768
292,40896,40891,0.027238113805651665,-0.04332607984542847,0.9068796038627625,1.5142780542373657,-9.476479530334473,4.4222235679626465,1.9977480173110962,3.8826959133148193,0.3161834478378296,-0.3981271982192993,-0.9989188313484192,2.054079294204712
293,40906,40901,-0.019763119518756866,-0.01699727773666382,0.9966074228286743,-4.951843738555908,-10.191558837890625,4.246428489685059,2.0000524520874023,3.88390851020813,0.3159267008304596,-0.2385871857404709,-1.0530105829238892,2.100719928741455
294,40916,40911,-0.0012910746736451983,-0.04574522748589516,0.977152943611145,-7.351138591766357,-11.118634223937988,4.0969462394714355,2.000814437866211,3.8841757774353027,0.31568261981010437,-0.21878182888031006,-1.1689426898956299,2.1512696743011475
295,40926,40921,-0.0140330595895648,-0.025427257642149925,0.9942210912704468,-5.167792797088623,-11.893733024597168,4.539827346801758,2.0029447078704834,3.8851985931396484,0.31525537371635437,-0.20330794155597687,-1.206400752067566,2.2718687057495117
296,40936,40931,0.0057334136217832565,-0.09874171763658524,0.9780420064926147,-1.1186801195144653,-7.198880195617676,3.3947718143463135,2.005014419555664,3.8865530490875244,0.31816866993904114,-0.044470518827438354,-1.2507716417312622,2.3284912109375
297,40946,40941,-0.009587643668055534,0.12690205872058868,1.0288724899291992,6.208474636077881,-7.684654235839844,3.898973226547241,2.0062286853790283,3.8868625164031982,0.3180651068687439,0.008541353046894073,-1.1967393159866333,2.373326301574707
298,40956,40951,0.012707090936601162,0.026623854413628578,0.982743501663208,10.86470890045166,-6.266788482666016,3.923114776611328,2.0073559284210205,3.8868651390075684,0.31787994503974915,0.13160614669322968,-1.0361250638961792,2.4137322902679443
299,40966,40961,-0.04212743416428566,0.07052025198936462,1.0140515565872192,11.402685165405273,-4.276610374450684,3.534738302230835,2.0084173679351807,3.886277914047241,0.31752321124076843,0.211192324757576,-0.9271150827407837,2.427011728286743
300,40976,40971,-0.005299583543092012,0.061909131705760956,0.9489273428916931,8.956417083740234,-3.7387776374816895,2.8625967502593994,2.0096569061279297,3.88594126701355,0.31738877296447754,0.11162683367729187,-0.7605679631233215,2.483250856399536
301,40986,40981,0.025326881557703018,0.08746114373207092,0.9900261759757996,3.1977546215057373,-4.653675556182861,2.095366954803467,2.0120980739593506,3.8853108882904053,0.31711527705192566,0.19362549483776093,-0.7529402375221252,2.5216116905212402
302,40996,40991,0.01837005466222763,0.0069373855367302895,0.9994664788246155,-2.077392816543579,-6.876931190490723,1.7225978374481201,2.0127739906311035,3.8862884044647217,0.3160088360309601,0.37112492322921753,-0.8275285363197327,2.5274853706359863
303,41006,41001,0.02207757532596588,-4.324574183556251e-05,0.8832429051399231,-6.157882213592529,-6.26136589050293,0.3608851432800293,2.013162612915039,3.886680841445923,0.3158552050590515,0.4482359290122986,-0.9075499176979065,2.5060908794403076
304,41016,41011,-0.024065151810646057,0.023278094828128815,0.9846897125244141,-4.514741897583008,-4.885686874389648,-0.34179359674453735,2.0142316818237305,3.887190103530884,0.3156172037124634,0.45130452513694763,-0.991517186164856,2.5308680534362793
305,41026,41021,-0.04496743530035019,0.10052423924207687,0.9275166392326355,1.3968957662582397,-4.948427200317383,-0.19676902890205383,2.0164120197296143,3.887665033340454,0.3151967525482178,0.5313525795936584,-0.9832633137702942,2.5247743129730225
306,41036,41031,-0.022535821422934532,0.024982905015349388,0.9682402014732361,8.29218578338623,-5.962462425231934,-0.9307252168655396,2.017314910888672,3.8877809047698975,0.3133911192417145,0.5482141971588135,-0.8758882284164429,2.5649871826171875
307,41046,41041,0.020587744191288948,-0.08148564398288727,0.9448180198669434,14.159456253051758,-6.923125267028809,-0.31548601388931274,2.0184240341186523,3.8882977962493896,0.3128126859664917,0.7369363307952881,-0.6595709919929504,2.532089948654175
308,41056,41051,-0.014492386020720005,-0.025024864822626114,1.0066628456115723,15.883973121643066,-7.284623146057129,0.6189353466033936,2.018134593963623,3.8873775005340576,0.3123748004436493,0.6842146515846252,-0.5445771813392639,2.5606131553649902
309,41066,41061,-2.4760234737186693e-05,-0.011227075941860676,1.0362294912338257,12.648055076599121,-5.953972816467285,0.5514498353004456,2.0204591751098633,3.887998580932617,0.31142935156822205,0.7842485904693604,-0.45008227229118347,2.5616455078125
310,41076,41071,0.010431027039885521,-0.0496302954852581,0.9879926443099976,10.481975555419922,-5.10874080657959,0.24967887997627258,2.0209977626800537,3.8883743286132812,0.31084907054901123,1.0287282466888428,-0.39589497447013855,2.567922830581665
311,41086,41081,-0.029499134048819542,-0.007423716597259045,1.025192379951477,10.363015174865723,-4.457502365112305,0.5933744311332703,2.020625352859497,3.8895225524902344,0.310440331697464,1.0011117458343506,-0.2072378695011139,2.5726876258850098
312,41096,41091,-0.047431882470846176,0.24615110456943512,0.9398453235626221,9.97563362121582,-4.402103900909424,1.8260517120361328,2.0223968029022217,3.8890933990478516,0.3132147490978241,0.8813517093658447,-0.32332944869995117,2.638766050338745
313,41106,41101,-0.008461044169962406,0.12082914263010025,0.9875688552856445,7.983485698699951,-6.460386753082275,1.7711073160171509,2.0245361328125,3.891875982284546,0.31277528405189514,1.1159343719482422,-0.13682284951210022,2.630084753036499
314,41116,41111,-0.007140434812754393,-0.07380186021327972,1.0564815998077393,3.860847234725952,-9.076607704162598,2.689155101776123,2.024143695831299,3.8911337852478027,0.31257444620132446,1.3499237298965454,-0.09304977208375931,2.633782148361206
315,41126,41121,0.03483631834387779,-0.10223452001810074,1.0045098066329956,0.13290467858314514,-10.164504051208496,3.6879045963287354,2.024082660675049,3.891481399536133,0.31233084201812744,1.3111149072647095,-0.1160530298948288,2.703178882598877
316,41136,41131,-0.030041208490729332,-0.029028773307800293,1.0082226991653442,-3.8689839839935303,-7.699444770812988,4.094730377197266,2.026463270187378,3.8927481174468994,0.31319770216941833,1.4404064416885376,-0.11247098445892334,2.7413933277130127
317,41146,41141,0.013292859308421612,0.005101462826132774,1.0305860042572021,-6.756733417510986,-2.673813819885254,4.4407877922058105,2.0277719497680664,3.8928918838500977,0.3129642605781555,1.5487873554229736,-0.18043874204158783,2.774639844894409
318,41156,41151,-0.054487843066453934,-0.06522343307733536,1.085331916809082,-7.442643165588379,0.8386631011962891,4.4985432624816895,2.0280094146728516,3.893293619155884,0.312762588262558,1.453809142112732,-0.26889726519584656,2.8604393005371094
319,41166,41161,-0.05120385065674782,0.042013876140117645,1.0612043142318726,-11.035072326660156,2.0270628929138184,3.09293270111084,2.030212163925171,3.894672155380249,0.3140431344509125,1.5480642318725586,-0.39082252979278564,2.8940258026123047
320,41176,41171,-0.10313450545072556,0.14682427048683167,1.0068678855895996,-10.796477317810059,1.955757737159729,2.9531264305114746,2.0298571586608887,3.896308660507202,0.3140386641025543,1.6074661016464233,-0.5425930023193359,2.990403175354004
321,41186,41181,-0.06294584274291992,0.07874689996242523,1.0933536291122437,-6.075590133666992,0.3936348259449005,1.7609349489212036,2.029451608657837,3.897183418273926,0.3140725791454315,1.527878999710083,-0.6375139951705933,3.0415537357330322
322,41196,41191,-0.022870806977152824,0.07833241671323776,1.1140130758285522,0.7374209761619568,0.20244507491588593,1.8573591709136963,2.0305705070495605,3.897278070449829,0.3146723508834839,1.6332463026046753,-0.6239766478538513,3.006574869155884
323,41206,41201,-0.04438333585858345,0.11753679066896439,1.0101361274719238,6.960607051849365,1.234093427658081,1.7954249382019043,2.0309982299804688,3.8972840309143066,0.31492578983306885,1.6748028993606567,-0.5036409497261047,2.987053871154785
324,41216,41211,-0.0076689100824296474,0.12102733552455902,1.0493813753128052,12.503503799438477,3.8025007247924805,1.2882567644119263,2.031062364578247,3.897463798522949,0.31526821851730347,1.6051870584487915,-0.38397759199142456,3.0211474895477295
325,41226,41221,0.05310305580496788,0.040779296308755875,1.0161075592041016,14.963789939880371,7.837697982788086,0.32355812191963196,2.032092332839966,3.8967339992523193,0.31341826915740967,1.4652843475341797,-0.18765854835510254,2.9951741695404053
326,41236,41231,0.12143527716398239,-0.11743605136871338,1.0077921152114868,9.874919891357422,10.103306770324707,-0.4520760476589203,2.0327985286712646,3.89693021774292,0.3136584162712097,1.3572036027908325,-0.26184794306755066,3.0343892574310303
327,41246,41241,0.053312696516513824,-0.11670605093240738,0.965245246887207,4.527981281280518,10.171422958374023,-3.0522069931030273,2.033424139022827,3.8989782333374023,0.31384891271591187,1.1800881624221802,-0.10455044358968735,2.9892265796661377
328,41256,41251,-0.03187089040875435,0.04221333935856819,1.0451223850250244,2.0645759105682373,10.138073921203613,-3.208878993988037,2.03529691696167,3.8982126712799072,0.3140889108181,1.1210757493972778,-0.143386572599411,2.955641984939575
329,41266,41261,0.023781513795256615,0.0029496755450963974,1.0336120128631592,0.9102150797843933,11.035207748413086,-4.551980972290039,2.035667657852173,3.899665117263794,0.3122294545173645,1.0857170820236206,-0.0764617845416069,2.914680004119873
330,41276,41271,-0.05780608206987381,0.06866179406642914,1.0448694229125977,2.3047311305999756,9.606230735778809,-6.452615737915039,2.0361595153808594,3.8996663093566895,0.3124634623527527,0.9805336594581604,-0.15005461871623993,2.871060848236084
331,41286,41281,0.005120571237057447,0.05674918740987778,1.0228804349899292,5.0313401222229,8.404906272888184,-7.583878517150879,2.036550283432007,3.901155948638916,0.312605619430542,0.9703276753425598,-0.02914622239768505,2.754059076309204
332,41296,41291,-0.014345330186188221,0.009030533954501152,1.0091173648834229,6.897514343261719,7.275620460510254,-7.2302045822143555,2.0361685752868652,3.8998491764068604,0.3146493434906006,0.8889707922935486,0.040060773491859436,2.668034076690674
333,41306,41301,0.00325298891402781,-0.014348022639751434,0.9962295889854431,8.004644393920898,8.304052352905273,-6.899378299713135,2.037121534347534,3.900272846221924,0.3150089383125305,0.8017588257789612,0.06204002723097801,2.631282329559326
334,41316,41311,0.007259776815772057,-0.15501649677753448,1.0128897428512573,5.044590473175049,11.329817771911621,-7.201873779296875,2.037061929702759,3.901620864868164,0.3153403103351593,0.7614485621452332,0.21966183185577393,2.5308282375335693
335,41326,41321,-0.04682741314172745,-0.08819044381380081,1.0930649042129517,1.0221399068832397,16.158597946166992,-7.235588550567627,2.0363216400146484,3.9019200801849365,0.3171624541282654,0.5708265900611877,0.08437684178352356,2.5386886596679688
336,41336,41331,0.01010885275900364,-0.028880607336759567,0.9990190863609314,-4.4294915199279785,20.644771575927734,-7.534929275512695,2.037107229232788,3.9045846462249756,0.3176897466182709,0.296042799949646,0.09928485006093979,2.4733617305755615
337,41346,41341,-0.009766975417733192,0.036966871470212936,1.0198371410369873,-3.0651581287384033,21.448688507080078,-6.9695892333984375,2.0383987426757812,3.9054863452911377,0.3182092010974884,0.0738442987203598,0.0864599347114563,2.4168248176574707
338,41356,41351,-0.02650749683380127,0.11096181720495224,0.9940963983535767,4.085541725158691,19.14704132080078,-5.714257717132568,2.038256883621216,3.904805898666382,0.3187934458255768,-0.08069766312837601,0.1448105126619339,2.3370957374572754
339,41366,41361,-0.01247921958565712,0.07112064212560654,1.0015250444412231,11.263163566589355,15.246724128723145,-4.546029567718506,2.037523031234741,3.9053754806518555,0.31808239221572876,-0.0841558650135994,0.3367072343826294,2.2734897136688232
340,41376,41371,0.01329499389976263,-0.0078051467426121235,0.963330090045929,17.55797576904297,12.384208679199219,-4.34648323059082,2.036224842071533,3.9038679599761963,0.3187079131603241,-0.2768577039241791,0.40640032291412354,2.2106049060821533
341,41386,41381,0.018697265535593033,-0.07643789052963257,0.9770521521568298,18.13530731201172,12.506242752075195,-3.5610246658325195,2.036850929260254,3.9050638675689697,0.31911027431488037,-0.38694101572036743,0.5982956290245056,2.139464855194092
342,41396,41391,0.11946860700845718,-0.12857045233249664,0.9490490555763245,13.623595237731934,13.187056541442871,-2.3041059970855713,2.0367844104766846,3.9044904708862305,0.31793642044067383,-0.5828086137771606,0.7423648834228516,2.116856813430786
343,41406,41401,0.07870489358901978,-0.07586418837308884,0.9129086136817932,8.558229446411133,13.581645965576172,-1.0700932741165161,2.0382885932922363,3.9051361083984375,0.3181911110877991,-0.7752274870872498,0.8009084463119507,2.146326780319214
344,41416,41411,0.018073752522468567,0.01654745638370514,0.9717070460319519,3.5131850242614746,15.128851890563965,-0.31195977330207825,2.0388784408569336,3.906926393508911,0.3183763027191162,-0.8195081353187561,0.9336612820625305,2.1337592601776123
345,41426,41421,-0.007395839784294367,0.11413098126649857,0.9367772936820984,0.5066431164741516,15.925971031188965,0.2651427984237671,2.0378425121307373,3.9065816402435303,0.31674423813819885,-0.8872277736663818,0.9202100038528442,2.175031900405884
346,41436,41431,-0.03715196251869202,0.06132224574685097,0.979389488697052,0.42860522866249084,15.442980766296387,-0.6008694767951965,2.037412405014038,3.9079151153564453,0.3168470859527588,-1.032159447669983,0.8892093300819397,2.1443662643432617
347,41446,41441,0.02638358250260353,-0.041320204734802246,0.9188428521156311,2.2821803092956543,14.105340003967285,-0.6796861290931702,2.03725528717041,3.9081246852874756,0.31681862473487854,-1.2410032749176025,0.8773379921913147,2.1514344215393066
348,41456,41451,-0.010071683675050735,-0.0020922147668898106,0.992786169052124,2.844268560409546,12.799959182739258,-1.3400003910064697,2.038271903991699,3.908557891845703,0.31544357538223267,-1.4111531972885132,0.9703519940376282,2.150804042816162
349,41466,41461,0.002690022811293602,-0.2268954962491989,0.9511913061141968,4.042633056640625,7.731605529785156,-1.4996150732040405,2.0383822917938232,3.9086761474609375,0.3152228891849518,-1.3821295499801636,0.8291467428207397,2.148430585861206
350,41476,41471,0.03343909978866577,-0.1634446233510971,0.9766056537628174,4.817508220672607,4.985592365264893,-1.1641095876693726,2.0370161533355713,3.9107115268707275,0.3151550590991974,-1.5201919078826904,0.9535555243492126,2.1352572441101074
351,41486,41481,0.036993108689785004,-0.042756013572216034,0.9541321396827698,4.0958709716796875,3.8173909187316895,-0.9009438157081604,2.0381124019622803,3.9102437496185303,0.31484219431877136,-1.4766894578933716,0.9856422543525696,2.109679698944092
352,41496,41491,-0.015430860221385956,0.02983173355460167,1.027556300163269,3.391188144683838,2.78658127784729,-0.28058192133903503,2.037273406982422,3.91106915473938,0.3170126676559448,-1.5481410026550293,1.0136709213256836,2.145176410675049
353,41506,41501,-0.06369030475616455,0.005257235374301672,1.0736668109893799,2.046576499938965,5.034298896789551,0.2791822552680969,2.038123607635498,3.911569833755493,0.3168061077594757,-1.5572896003723145,1.0993541479110718,2.1835825443267822
354,41516,41511,-0.002033523516729474,-0.010620788671076298,1.0043385028839111,2.8648855686187744,5.188511371612549,1.1842820644378662,2.038266897201538,3.91145920753479,0.3167174160480499,-1.6003148555755615,1.0222991704940796,2.153975486755371
355,41526,41521,-0.03189052641391754,0.11536653339862823,0.9594472050666809,2.5318596363067627,8.669845581054688,1.1258279085159302,2.03812313079834,3.9127843379974365,0.31670358777046204,-1.6604677438735962,1.1112470626831055,2.200032949447632
356,41536,41531,0.04552614688873291,0.0571933351457119,0.8617066144943237,5.174859523773193,2.415320634841919,1.0661802291870117,2.0387156009674072,3.913084030151367,0.31660428643226624,-1.6641277074813843,1.1439964771270752,2.186429500579834
357,41546,41541,-0.08093209564685822,0.12573830783367157,0.9938148260116577,2.9756221771240234,0.4208618402481079,0.9652529358863831,2.038954019546509,3.912885904312134,0.3164249658584595,-1.6827707290649414,1.2467024326324463,2.2003209590911865
358,41556,41551,-0.07882470637559891,0.005154179409146309,0.9943243265151978,1.4101065397262573,-0.7111600637435913,1.6844686269760132,2.0397350788116455,3.912827968597412,0.3136705160140991,-1.6294935941696167,1.2988322973251343,2.1977570056915283
359,41566,41561,0.08629858493804932,-0.05482271686196327,0.903030514717102,-1.8375372886657715,-1.6673529148101807,1.2802451848983765,2.0398011207580566,3.9120566844940186,0.3132580816745758,-1.7203272581100464,1.2289220094680786,2.176988124847412
360,41576,41571,0.07851766794919968,-0.06464135646820068,1.0384156703948975,-6.1801676750183105,-2.7477715015411377,1.4176594018936157,2.0408403873443604,3.912806272506714,0.3127032220363617,-1.693442463874817,1.167249083518982,2.192059278488159
361,41586,41581,0.07333346456289291,-0.06103556230664253,0.9806387424468994,-8.710129737854004,-3.0911524295806885,1.0297595262527466,2.041358709335327,3.9133589267730713,0.3121913969516754,-1.6634043455123901,1.0455988645553589,2.172114133834839
362,41596,41591,-0.008720189332962036,0.03702741116285324,1.0333869457244873,-8.483162879943848,-3.077317476272583,1.084647297859192,2.0416781902313232,3.9140987396240234,0.3111863434314728,-1.536029577255249,1.0790791511535645,2.2839889526367188
363,41606,41601,0.00015515826817136258,-0.008779712952673435,0.9965630769729614,-7.32493257522583,-1.9081364870071411,0.5437447428703308,2.0407915115356445,3.9130568504333496,0.3107631206512451,-1.7204046249389648,0.9589053392410278,2.243372917175293
364,41616,41611,0.013409086503088474,-0.00928327813744545,1.0188395977020264,-5.484925270080566,-0.4400482177734375,-0.3753697872161865,2.043220281600952,3.913878917694092,0.3100852370262146,-1.75686776638031,0.87563157081604,2.2365331649780273
365,41626,41621,0.018710939213633537,0.016412008553743362,0.9754430055618286,-3.5157127380371094,0.009005110710859299,-0.2528872787952423,2.0452470779418945,3.9142603874206543,0.3110227584838867,-1.6597741842269897,0.8989640474319458,2.2617108821868896
366,41636,41631,-0.07853975892066956,0.21033380925655365,0.9437501430511475,-2.454690456390381,-0.7970287799835205,-0.4193166196346283,2.0451226234436035,3.9141013622283936,0.3107205629348755,-1.7138588428497314,0.8538917303085327,2.255394697189331
367,41646,41641,-0.037081390619277954,0.11663907021284103,0.9478142261505127,-0.2954116761684418,-2.369114398956299,-1.2179999351501465,2.046619176864624,3.913752794265747,0.31018713116645813,-1.7386085987091064,0.9858946204185486,2.246962308883667
368,41656,41651,-0.05854962766170502,0.05848868563771248,1.1282637119293213,0.9639653563499451,-5.309540748596191,-1.5444415807724,2.0481326580047607,3.912325859069824,0.3100399672985077,-1.6904395818710327,0.9768434762954712,2.185781955718994
369,41666,41661,0.014650081284344196,-0.028926750645041466,1.0360491275787354,1.4530912637710571,-8.04999828338623,-1.33773934841156,2.049323797225952,3.9114835262298584,0.3095638155937195,-1.768022060394287,0.9833420515060425,2.1311182975769043
370,41676,41671,-0.002813783474266529,0.14250177145004272,1.0380983352661133,1.1302653551101685,-8.783343315124512,-1.8012254238128662,2.0520617961883545,3.9107961654663086,0.30898603796958923,-1.5143089294433594,0.9144725203514099,2.096649408340454
371,41686,41681,0.032869964838027954,0.06714016199111938,1.0583312511444092,-1.8840075731277466,-10.831838607788086,-2.4348082542419434,2.051386594772339,3.9114317893981934,0.30898329615592957,-1.624010682106018,0.9613838791847229,1.9979994297027588
372,41696,41691,0.04593195021152496,-0.022364500910043716,0.9864598512649536,-4.766788482666016,-12.15934944152832,-2.2305028438568115,2.0535171031951904,3.9086906909942627,0.30908146500587463,-1.5215785503387451,0.8770291209220886,1.9162346124649048
373,41706,41701,-0.012908082455396652,0.039909131824970245,1.0749444961547852,-7.389810562133789,-13.270635604858398,-2.017646074295044,2.054988384246826,3.9090020656585693,0.30881351232528687,-1.3164393901824951,0.8295049667358398,1.9096765518188477
374,41716,41711,0.0478937141597271,-0.06476543843746185,1.064812183380127,-8.50761604309082,-14.035051345825195,-2.3453481197357178,2.0557701587677,3.908771514892578,0.30870044231414795,-1.1744869947433472,0.7439679503440857,1.8862512111663818
375,41726,41721,0.003321005729958415,-0.007306896150112152,1.0139319896697998,-8.661774635314941,-11.97209358215332,-2.4090206623077393,2.0571606159210205,3.9079744815826416,0.30830782651901245,-1.1387630701065063,0.6584998965263367,1.8387138843536377
376,41736,41731,-0.0038264000322669744,0.016541901975870132,1.0365310907363892,-7.805261135101318,-9.377342224121094,-2.659979820251465,2.05932879447937,3.908440351486206,0.3080528676509857,-1.0533287525177002,0.5760260820388794,1.8131754398345947
377,41746,41741,0.08942758291959763,-0.11970946937799454,0.9804834127426147,-8.172892570495605,-9.488372802734375,-2.7891714572906494,2.060324192047119,3.9086344242095947,0.30789050459861755,-0.9969250559806824,0.48821431398391724,1.810937523841858
378,41756,41751,0.028458060696721077,-0.06485531479120255,1.022696614265442,-8.739500999450684,-11.103171348571777,-2.2039411067962646,2.0618174076080322,3.908651828765869,0.30613547563552856,-0.8207044005393982,0.40196242928504944,1.8255664110183716
379,41766,41761,-0.005890838801860809,-0.0020199106074869633,1.024226188659668,-7.6749796867370605,-12.43043041229248,-2.222865104675293,2.062251091003418,3.908838987350464,0.30599406361579895,-0.7053864002227783,0.319119393825531,1.8039807081222534
380,41776,41771,0.04698127135634422,-0.009407790377736092,1.015151858329773,-7.1555681228637695,-13.32685661315918,-2.728653907775879,2.0638394355773926,3.908623218536377,0.30577927827835083,-0.6606775522232056,0.2475220412015915,1.7435277700424194
381,41786,41781,0.11899085342884064,-0.1083919033408165,0.9848510026931763,-6.178399562835693,-13.981426239013672,-2.479848623275757,2.066225528717041,3.9080803394317627,0.3033617436885834,-0.5923652648925781,0.25921785831451416,1.7369866371154785
382,41796,41791,-0.012502825818955898,0.006507306359708309,1.0698622465133667,-5.037379264831543,-13.748697280883789,-3.110621452331543,2.0686557292938232,3.9067113399505615,0.30297333002090454,-0.27573007345199585,0.13401028513908386,1.6789592504501343
383,41806,41801,0.014357597567141056,-0.05540250986814499,0.9747873544692993,-4.432729244232178,-13.15715217590332,-3.064260959625244,2.06827449798584,3.9072389602661133,0.3029082119464874,-0.3581404387950897,0.1043037623167038,1.54086172580719
384,41816,41811,0.06275834888219833,-0.06948217004537582,1.0312130451202393,-4.643999099731445,-11.883084297180176,-1.42153799533844,2.070807933807373,3.9053714275360107,0.3023317754268646,-0.13438010215759277,-0.0038512181490659714,1.5780820846557617
385,41826,41821,0.06910475343465805,0.020055171102285385,1.034257411956787,-5.803850173950195,-11.644150733947754,-1.7283234596252441,2.071049451828003,3.90609073638916,0.2979448735713959,0.13712796568870544,-0.036829669028520584,1.5873390436172485
386,41836,41831,-0.04484313353896141,0.06416851282119751,1.084558129310608,-7.8519158363342285,-8.851311683654785,-3.0953800678253174,2.0700364112854004,3.906104326248169,0.2976651191711426,-0.08622128516435623,-0.02795228734612465,1.5432336330413818
387,41846,41841,0.05069686099886894,-0.0031235762871801853,0.9204543232917786,-7.959168910980225,-6.097574234008789,-3.497408151626587,2.074488639831543,3.9042956829071045,0.29697662591934204,0.10605667531490326,-0.19887399673461914,1.4782685041427612
388,41856,41851,0.028841983526945114,0.028969351202249527,1.0151176452636719,-7.795720100402832,-7.8711395263671875,-3.183022975921631,2.074666976928711,3.9049127101898193,0.29617926478385925,0.03399951383471489,-0.19803515076637268,1.4128338098526
389,41866,41861,-0.020214587450027466,0.019406216219067574,1.0646047592163086,-6.980819225311279,-6.055730819702148,-2.8240320682525635,2.077631950378418,3.9032201766967773,0.295539915561676,0.1674104928970337,-0.34888508915901184,1.4124666452407837
390,41876,41871,-0.013894167728722095,-8.049991447478533e-05,1.0228612422943115,-4.769622325897217,-6.215148448944092,-3.5717265605926514,2.0783486366271973,3.9040462970733643,0.2951933741569519,0.3696071207523346,-0.46823403239250183,1.413320541381836
391,41886,41881,-0.009313162416219711,0.157949760556221,1.0199551582336426,-0.6641054153442383,-6.346737384796143,-4.3700127601623535,2.078447103500366,3.905076742172241,0.29733338952064514,0.16481779515743256,-0.3622051179409027,1.3732373714447021
392,41896,41891,0.005940118804574013,0.07657898962497711,1.0355104207992554,2.005237579345703,-7.2801103591918945,-4.731929302215576,2.081982374191284,3.9036619663238525,0.2969279885292053,0.3191381096839905,-0.36797967553138733,1.3491888046264648
393,41906,41901,-0.027976583689451218,0.009222710505127907,1.115539312362671,2.281233072280884,-10.317214965820312,-4.902126312255859,2.0829696655273438,3.9041876792907715,0.2968592643737793,0.5319532155990601,-0.2731415927410126,1.324569582939148
394,41916,41911,0.003954863641411066,-0.07877832651138306,1.0440200567245483,0.5056073069572449,-10.663060188293457,-5.0726728439331055,2.0825419425964355,3.9037957191467285,0.29680150747299194,0.5429322719573975,-0.289656400680542,1.3065762519836426
395,41926,41921,0.03851325437426567,-0.0397723950445652,0.9923133850097656,-1.900688648223877,-10.353843688964844,-5.826755046844482,2.0845510959625244,3.903794527053833,0.29605633020401,0.6697307825088501,-0.33649930357933044,1.2380545139312744
396,41936,41931,-0.021135497838258743,-0.05742807686328888,1.0791361331939697,-3.975337505340576,-8.118330001831055,-5.643815517425537,2.0857207775115967,3.9036030769348145,0.2960081696510315,0.8380869626998901,-0.41666749119758606,1.1819217205047607
397,41946,41941,0.022014008834958076,-0.20460595190525055,1.0138379335403442,-2.9053523540496826,-5.427074432373047,-6.610054969787598,2.0861756801605225,3.903703451156616,0.29605865478515625,0.8203491568565369,-0.48873740434646606,1.1279776096343994
398,41956,41951,-0.033189013600349426,-0.024205684661865234,1.0954428911209106,-1.7066353559494019,-2.2355525493621826,-5.834104061126709,2.088865280151367,3.9040651321411133,0.29876017570495605,0.9588977694511414,-0.5351884961128235,1.0313472747802734
399,41966,41961,0.06338546425104141,-0.026744896546006203,1.0098100900650024,-0.2495688647031784,-0.055512767285108566,-6.070635795593262,2.0894482135772705,3.903650999069214,0.29908454418182373,1.0343908071517944,-0.482963889837265,0.9516783952713013
400,41976,41971,0.08675447106361389,-0.14116355776786804,0.9741052389144897,0.9256515502929688,0.965516984462738,-5.491944313049316,2.089033842086792,3.9015142917633057,0.29937005043029785,1.00062096118927,-0.4911591410636902,0.791019856929779
401,41986,41981,0.057010967284440994,-0.16771343350410461,1.01136314868927,2.907716751098633,1.3054105043411255,-4.51044225692749,2.09061861038208,3.900848150253296,0.298727422952652,0.965339720249176,-0.3873476982116699,0.7407770752906799
402,41996,41991,0.026409942656755447,-0.10793453454971313,0.9594060182571411,3.9820351600646973,0.8013809323310852,-4.5146965980529785,2.0912811756134033,3.9004690647125244,0.29896998405456543,0.7845643162727356,-0.3469415009021759,0.7633538246154785
403,42006,42001,0.0065132384188473225,0.011304083280265331,0.9978262186050415,4.455798149108887,-0.06832373142242432,-4.217190742492676,2.0942983627319336,3.9008102416992188,0.2990098297595978,0.7739954590797424,-0.3680321276187897,0.753247857093811
404,42016,42011,-0.007995673455297947,-0.0037297678645700216,0.9676262736320496,1.3672016859054565,-2.094683885574341,-4.260819435119629,2.0944924354553223,3.9018261432647705,0.2991129755973816,0.8039575815200806,-0.3330511152744293,0.7360422015190125
405,42026,42021,-0.014552831649780273,-0.01703447662293911,0.9873242974281311,-1.5852223634719849,-4.93044376373291,-4.255588531494141,2.0959300994873047,3.901684522628784,0.30096277594566345,0.9487661719322205,-0.35262560844421387,0.6870822310447693
406,42036,42031,-0.007124707568436861,0.01549849659204483,0.9961948394775391,-3.5054006576538086,-6.220392227172852,-3.7236087322235107,2.09604549407959,3.9016857147216797,0.30132821202278137,0.9583455920219421,-0.3356172740459442,0.651308536529541
407,42046,42041,0.03210620954632759,-0.021081237122416496,0.9796837568283081,-4.415463924407959,-7.251556396484375,-4.13582706451416,2.0967118740081787,3.899487257003784,0.3014463782310486,1.0676465034484863,-0.4964594841003418,0.588236391544342
408,42056,42051,0.00174348009750247,-0.18381403386592865,0.9620882868766785,-4.2697224617004395,-6.575488567352295,-4.198676109313965,2.097792625427246,3.901433229446411,0.30153006315231323,0.9461142420768738,-0.4911711513996124,0.5591144561767578
409,42066,42061,-0.004679852165281773,-0.08023180067539215,1.0201787948608398,-0.9031963348388672,-6.1531572341918945,-4.225356101989746,2.1010870933532715,3.9019899368286133,0.30156320333480835,1.228935956954956,-0.5374852418899536,0.5587813854217529
410,42076,42071,-0.02227191813290119,0.018850797787308693,1.045453667640686,1.9403263330459595,-6.059403896331787,-5.102766036987305,2.1005733013153076,3.9023702144622803,0.3020191192626953,1.316849946975708,-0.5196899771690369,0.5719177722930908
411,42086,42081,0.012180831283330917,-0.02294832654297352,0.9807215929031372,3.4203028678894043,-3.664543390274048,-5.1546478271484375,2.101663112640381,3.9035568237304688,0.3021436333656311,1.2980406284332275,-0.4684067666530609,0.5557767748832703
412,42096,42091,-0.0012686129193753004,-0.017997415736317635,0.9828981161117554,5.420722484588623,-1.9612085819244385,-5.0377702713012695,2.1040561199188232,3.9031717777252197,0.3023207187652588,1.395934820175171,-0.3931150436401367,0.49662965536117554
413,42106,42101,-0.023509947583079338,0.05882943794131279,0.9702407121658325,7.534010410308838,-0.2750774025917053,-4.809618949890137,2.1043248176574707,3.903311014175415,0.30257558822631836,1.461865782737732,-0.3560008704662323,0.44829875230789185
414,42116,42111,-0.03951134905219078,0.035906869918107986,0.9998207688331604,7.499200820922852,3.9843921661376953,-4.772305011749268,2.104748487472534,3.9035377502441406,0.3018297553062439,1.245013952255249,-0.29996806383132935,0.4333031177520752
415,42126,42121,0.05339943617582321,-0.0084971459582448,0.9194013476371765,4.2504963874816895,5.611980438232422,-5.064620494842529,2.107374906539917,3.9039363861083984,0.30186399817466736,1.279061198234558,-0.2757953703403473,0.429948091506958
416,42136,42131,-0.007166228257119656,0.07006044685840607,0.9939683675765991,-2.3884594440460205,2.989341974258423,-5.515288829803467,2.107480525970459,3.9050328731536865,0.30201366543769836,1.3411359786987305,-0.26640018820762634,0.37447816133499146
417,42146,42141,0.00980202667415142,-0.0354318730533123,0.9518204927444458,-8.231145858764648,0.07486977428197861,-5.7429585456848145,2.1077449321746826,3.9045021533966064,0.3021327257156372,1.1263725757598877,-0.36389264464378357,0.3146390914916992
418,42156,42151,-0.003805034328252077,-0.02840244770050049,0.9786990880966187,-11.868356704711914,0.47537726163864136,-5.902091979980469,2.11088490486145,3.904916524887085,0.3016158938407898,1.2386932373046875,-0.532616913318634,0.2529037594795227
419,42166,42161,0.07235553115606308,-0.13493824005126953,0.9903607368469238,-11.64112663269043,-0.8376002907752991,-6.096199035644531,2.1110246181488037,3.9050426483154297,0.3016817271709442,1.2654868364334106,-0.5649034380912781,0.1602196842432022
420,42176,42171,0.07498045265674591,-0.08728185296058655,0.9676787257194519,-7.156391143798828,-0.36208611726760864,-5.646261215209961,2.11147403717041,3.905027389526367,0.3017657697200775,1.230105996131897,-0.6304413676261902,0.10459622740745544
421,42186,42181,0.053635310381650925,-0.12260753661394119,0.933559238910675,-0.1841217428445816,2.628018856048584,-6.094874382019043,2.1127359867095947,3.905271291732788,0.3021281361579895,1.3105623722076416,-0.6630340218544006,0.07874862104654312
422,42196,42191,0.06004488468170166,-0.17119312286376953,0.9750833511352539,6.6049065589904785,5.583672523498535,-5.841667175292969,2.1130685806274414,3.9053966999053955,0.30212095379829407,1.3405650854110718,-0.5805953741073608,0.035196591168642044
423,42206,42201,0.014503106474876404,-0.026210075244307518,1.0200740098953247,14.473066329956055,12.044437408447266,-5.023164749145508,2.1132798194885254,3.905484676361084,0.3020865023136139,1.1872531175613403,-0.5202860832214355,3.1903105991659686e-05
424,42216,42211,0.04828021675348282,-0.10213003307580948,0.9567693471908569,17.960058212280273,19.98980140686035,-5.203451633453369,2.1143226623535156,3.9062180519104004,0.29960063099861145,0.9790122509002686,-0.2727664113044739,-0.023605715483427048
425,42226,42221,0.05307367071509361,-0.11193101108074188,0.9619078040122986,15.037930488586426,18.990549087524414,-4.238520622253418,2.1158058643341064,3.906398057937622,0.299306184053421,0.9372170567512512,-0.30523666739463806,-0.06266588717699051
426,42236,42231,0.046431053429841995,-0.028305593878030777,0.8858932852745056,10.732300758361816,17.151504516601562,-3.7170522212982178,2.11678147315979,3.90665340423584,0.29891863465309143,0.8364461064338684,-0.10772459954023361,-0.06586839258670807
427,42246,42241,-0.014978189952671528,0.08543640375137329,0.9486401677131653,5.046694278717041,13.185441017150879,-3.543462038040161,2.1166560649871826,3.9068212509155273,0.298747718334198,0.621015191078186,0.07067902386188507,-0.10957776010036469
428,42256,42251,0.0033365788403898478,0.015222623944282532,0.9581800699234009,0.17028813064098358,6.5218329429626465,-2.727259635925293,2.1171875,3.9070255756378174,0.29979485273361206,0.49913910031318665,0.15682151913642883,-0.12465471774339676
429,42266,42261,0.01602305844426155,-0.0002153861423721537,0.9838486909866333,-6.248037815093994,-2.7096290588378906,-2.6824514865875244,2.1175029277801514,3.90653395652771,0.29941242933273315,0.5100685954093933,0.06701742112636566,-0.15621809661388397
430,42276,42271,-0.05954868346452713,-0.013946822844445705,1.059644103050232,-10.577887535095215,-9.630166053771973,-3.0175347328186035,2.1173644065856934,3.9076929092407227,0.2991279363632202,0.5739659070968628,-0.023309260606765747,-0.1978391408920288
431,42286,42281,0.021233806386590004,-0.024607358500361443,0.9977594017982483,-11.570981979370117,-8.938471794128418,-2.9888672828674316,2.117676019668579,3.9080474376678467,0.2990894615650177,0.7242547273635864,-0.1733746975660324,-0.20437930524349213
432,42296,42291,-0.05329962819814682,-0.02985953353345394,1.078642725944519,-9.580506324768066,-8.931640625,-3.3198769092559814,2.1175405979156494,3.908966302871704,0.29878225922584534,0.7845234870910645,-0.329916387796402,-0.2547098398208618
433,42306,42301,0.059432655572891235,-0.06179020181298256,1.036909580230713,-4.445521354675293,-5.707133769989014,-4.171468257904053,2.1187756061553955,3.9092612266540527,0.2984778583049774,0.9762260913848877,-0.43720510601997375,-0.27819159626960754
434,42316,42311,0.01254437305033207,-0.11063450574874878,1.052592158317566,3.157517433166504,0.8458061218261719,-4.15018892288208,2.1178791522979736,3.909560203552246,0.2971099317073822,0.9387616515159607,-0.4651969075202942,-0.30041807889938354
435,42326,42321,0.01235650759190321,-0.012573990039527416,1.0695455074310303,15.05440616607666,9.949405670166016,-3.0882210731506348,2.119391679763794,3.9099864959716797,0.2968611419200897,0.958378791809082,-0.3431937098503113,-0.39269378781318665
436,42336,42331,-0.005596730392426252,-0.010274768806993961,1.0458718538284302,21.323749542236328,17.910778045654297,-2.701897144317627,2.119525194168091,3.9092752933502197,0.2967035472393036,0.8324674367904663,-0.06875097006559372,-0.40566369891166687
437,42346,42341,-0.03099619597196579,0.04253736138343811,1.038375973701477,19.745101928710938,24.37915802001953,-2.869121551513672,2.1199188232421875,3.907771110534668,0.29660120606422424,0.5857325792312622,-0.10849141329526901,-0.3769231140613556
438,42356,42351,-0.023309363052248955,-0.01943707838654518,1.0328469276428223,15.018478393554688,26.996068954467773,-2.814220428466797,2.12111759185791,3.910388231277466,0.2959911823272705,0.41148489713668823,0.2352607101202011,-0.42820629477500916
439,42366,42361,-0.009722300805151463,-0.07567648589611053,1.0897761583328247,11.267629623413086,24.239036560058594,-1.965721607208252,2.121385335922241,3.9087624549865723,0.29593613743782043,0.19896912574768066,0.3421761393547058,-0.4767252504825592
440,42376,42371,0.04250779002904892,-0.09584587067365646,1.0128549337387085,4.236426830291748,14.868646621704102,-0.8615681529045105,2.121455430984497,3.909459114074707,0.2959556579589844,-0.10965228080749512,0.3670967221260071,-0.5146109461784363
441,42386,42381,0.045468270778656006,-0.01978299580514431,0.9265375733375549,-0.6348904967308044,4.442931175231934,-0.0274107176810503,2.1225104331970215,3.9100077152252197,0.29835984110832214,-0.13437272608280182,0.45633527636528015,-0.5301195979118347
442,42396,42391,0.04885043948888779,0.11388920247554779,0.9744002819061279,-3.340601682662964,-5.572651386260986,0.4887751638889313,2.1212639808654785,3.90993332862854,0.2986656427383423,-0.17945769429206848,0.47095420956611633,-0.5179125070571899
443,42406,42401,0.02102954499423504,0.016471244394779205,1.0257495641708374,-2.8061301708221436,-9.882424354553223,0.5751944184303284,2.1209957599639893,3.910311698913574,0.2988484501838684,-0.13942410051822662,0.44314026832580566,-0.5318214893341064
444,42416,42411,-0.002655650721862912,-0.0203334279358387,1.0466828346252441,-3.7052667140960693,-8.744811058044434,0.2747742831707001,2.121150255203247,3.9097728729248047,0.2968830168247223,-0.09380247443914413,0.33700165152549744,-0.4917394816875458
445,42426,42421,-0.05122429132461548,0.09136760234832764,1.070306658744812,-6.013696193695068,-3.2574055194854736,-1.3571968078613281,2.121739625930786,3.9120330810546875,0.2969000041484833,0.009352833963930607,0.29656556248664856,-0.46106016635894775
446,42436,42431,-0.08621465414762497,0.10756710171699524,1.0602996349334717,-4.759125232696533,5.1090474128723145,-2.7552924156188965,2.1216518878936768,3.9127607345581055,0.29697683453559875,0.03047959692776203,0.23587550222873688,-0.41868290305137634
447,42446,42441,-0.01062257494777441,0.11906379461288452,1.0635993480682373,-1.3461015224456787,11.390830993652344,-3.536656379699707,2.122480630874634,3.9133989810943604,0.2974063456058502,-0.004427321255207062,0.26804959774017334,-0.4815380871295929
448,42456,42451,-0.021637950092554092,0.02704312466084957,1.0422413349151611,5.369611740112305,11.799765586853027,-3.5125205516815186,2.1231274604797363,3.9121673107147217,0.2976425588130951,-0.13560797274112701,0.2899283766746521,-0.5155814290046692
449,42466,42461,-0.010317571461200714,-0.01118593942373991,1.0322120189666748,9.758126258850098,3.1669461727142334,-4.612927436828613,2.123903512954712,3.911193609237671,0.2978910207748413,-0.1702759712934494,0.3280467987060547,-0.5910527110099792
450,42476,42471,-0.0621851347386837,-0.11513542383909225,1.0272926092147827,10.164376258850098,-5.039663314819336,-4.778759002685547,2.1234006881713867,3.9112939834594727,0.29826658964157104,-0.15335872769355774,0.42621007561683655,-0.6277578473091125
451,42486,42481,0.011411848478019238,-0.08469836413860321,1.012123465538025,5.7586846351623535,-13.052756309509277,-6.157945156097412,2.1234428882598877,3.91129732131958,0.30100417137145996,-0.07238880544900894,0.587113618850708,-0.6815845966339111
452,42496,42491,0.03748071938753128,-0.09173000603914261,0.9761936068534851,1.5341901779174805,-17.564186096191406,-5.850441932678223,2.1234381198883057,3.9110424518585205,0.30150607228279114,0.04819363355636597,0.5295234322547913,-0.7735204696655273
453,42506,42501,0.028391404077410698,-0.0419195257127285,1.009381651878357,-3.276904821395874,-16.56460952758789,-5.32748556137085,2.123926877975464,3.912123203277588,0.30205056071281433,0.3719431161880493,0.5569871068000793,-0.7945213317871094
454,42516,42511,-0.03734898567199707,0.015832144767045975,1.0464838743209839,-4.514033317565918,-11.26258373260498,-4.785902976989746,2.1229164600372314,3.912254571914673,0.302716463804245,0.42147329449653625,0.5272688865661621,-0.8653749823570251
455,42526,42521,0.0024952066596597433,0.03915434703230858,1.017727017402649,-5.413425922393799,-1.5712571144104004,-3.8193717002868652,2.1242189407348633,3.9124534130096436,0.30330508947372437,0.5185208916664124,0.4664735496044159,-0.9012132287025452
456,42536,42531,-0.0690281093120575,-0.01827053725719452,1.0406869649887085,-2.717834949493408,6.074438571929932,-3.3521978855133057,2.124864339828491,3.9124343395233154,0.303886353969574,0.39695724844932556,0.410976767539978,-0.9712507128715515
457,42546,42541,-0.09229882061481476,-0.031168609857559204,1.0722678899765015,-2.2757985591888428,9.728898048400879,-3.6487057209014893,2.126628875732422,3.9126687049865723,0.30296996235847473,0.42018112540245056,0.3848104476928711,-1.0531636476516724
458,42556,42551,-0.08995697647333145,-0.008709168061614037,1.086526870727539,-1.3911060094833374,11.164990425109863,-2.361532688140869,2.1260859966278076,3.912609577178955,0.30350741744041443,0.3192807137966156,0.37263223528862,-1.0582492351531982
459,42566,42561,-0.0876208022236824,0.07387688755989075,1.0714044570922852,2.6406919956207275,13.152338027954102,-2.0223751068115234,2.1268293857574463,3.9127190113067627,0.3040901720523834,0.17171640694141388,0.4613421559333801,-0.9658305048942566
460,42576,42571,-0.045803528279066086,0.02115376479923725,1.002164602279663,3.589399814605713,12.781197547912598,-2.0172643661499023,2.1273183822631836,3.913602352142334,0.3047310411930084,0.21185800433158875,0.36121222376823425,-0.972524106502533
461,42586,42581,-0.006457189098000526,0.00030991205130703747,0.9731638431549072,-0.4258955121040344,10.415613174438477,-0.8417055606842041,2.1258857250213623,3.9147090911865234,0.3094361424446106,0.09023397415876389,0.48939594626426697,-0.9982266426086426
462,42596,42591,0.02695261500775814,-0.06488310545682907,0.9462568163871765,-8.369534492492676,6.3782148361206055,-0.2698574662208557,2.1256182193756104,3.9138944149017334,0.3103625774383545,-0.07122590392827988,0.45686349272727966,-1.0135420560836792
463,42606,42601,0.02177179418504238,-0.14872102439403534,0.9615265130996704,-15.44006061553955,3.733428955078125,-0.12058600038290024,2.126112461090088,3.91413950920105,0.311209112405777,-0.17141172289848328,0.30035436153411865,-1.0252317190170288
464,42616,42611,-0.07257933914661407,0.06590500473976135,0.9777198433876038,-16.333890914916992,1.542906403541565,-0.7394423484802246,2.1264235973358154,3.9150965213775635,0.3102313280105591,-0.20091991126537323,0.13734681904315948,-0.9916695356369019
465,42626,42621,-0.04213470593094826,0.03816046938300133,0.949688196182251,-9.94548225402832,2.4737884998321533,-1.2271608114242554,2.1263229846954346,3.916440010070801,0.31092384457588196,-0.20128563046455383,-0.013797460123896599,-0.9699616432189941
466,42636,42631,0.0036817919462919235,-0.1542011946439743,0.9789462685585022,1.6267491579055786,4.308363914489746,-0.9224051237106323,2.1261329650878906,3.916318416595459,0.3116103410720825,-0.06558791548013687,-0.0415787473320961,-0.9628120064735413
467,42646,42641,-0.020038848742842674,-0.06303679198026657,1.0105576515197754,14.515588760375977,6.549929141998291,1.1320006847381592,2.124633312225342,3.915807008743286,0.3133045434951782,-0.1180044636130333,0.04255607724189758,-0.9565032720565796
468,42656,42651,-0.03343847766518593,0.018309716135263443,0.9755333065986633,21.616296768188477,8.80362606048584,3.0720930099487305,2.125201940536499,3.915637731552124,0.31401050090789795,-0.21420955657958984,0.2236453741788864,-0.910173773765564
469,42666,42661,-0.05683460086584091,0.03047524206340313,0.9772471785545349,22.607717514038086,7.008907794952393,5.165753364562988,2.125725269317627,3.9149296283721924,0.3146454095840454,-0.3293253779411316,0.4257182776927948,-0.8851805329322815
470,42676,42671,-0.06399338692426682,-0.001860452932305634,0.9685463309288025,18.99289894104004,1.7844176292419434,8.060054779052734,2.126274347305298,3.914865732192993,0.3152274787425995,-0.4085635542869568,0.6314718127250671,-0.8398590087890625
471,42686,42681,0.006293680984526873,-0.004891703836619854,0.9077056646347046,5.425023555755615,1.0875566005706787,10.918164253234863,2.1266064643859863,3.91447377204895,0.31604236364364624,-0.3674907684326172,0.8803449273109436,-0.7939892411231995
472,42696,42691,0.005285967607051134,-0.05340955778956413,0.8693579435348511,-10.20709228515625,3.8644442558288574,12.739457130432129,2.126016139984131,3.9139256477355957,0.31653380393981934,-0.32398730516433716,0.7454686760902405,-0.7002500891685486
473,42706,42701,-0.007458456326276064,-0.03353098779916763,0.8598524332046509,-26.340856552124023,8.935656547546387,15.78465461730957,2.1250431537628174,3.9164607524871826,0.31710943579673767,-0.40159040689468384,0.5970506072044373,-0.5483084917068481
474,42716,42711,0.003497388446703553,0.0030825005378574133,0.9188946485519409,-30.205257415771484,14.231359481811523,16.767309188842773,2.12532639503479,3.9170355796813965,0.3145608901977539,-0.5692495703697205,0.3210596442222595,-0.44918256998062134
475,42726,42721,0.05042910575866699,-0.02268437296152115,0.9022557139396667,-26.528182983398438,15.248543739318848,17.6312198638916,2.1264374256134033,3.9179694652557373,0.314601331949234,-0.7985331416130066,0.1582903265953064,-0.23565472662448883
476,42736,42731,0.05925535410642624,-0.13642340898513794,0.916057288646698,-17.017147064208984,9.73001766204834,15.951837539672852,2.127084970474243,3.9160032272338867,0.31455397605895996,-0.843606173992157,-0.09143214672803879,-0.052420977503061295
477,42746,42741,-0.021712442860007286,-0.0424659289419651,0.9946920871734619,-8.821557998657227,1.988743782043457,13.102513313293457,2.1264631748199463,3.916341781616211,0.3132794201374054,-0.7822461724281311,-0.3480053246021271,0.07603926956653595
478,42756,42751,-0.04795604571700096,-0.02246549166738987,1.0688107013702393,0.13554179668426514,-0.10119830816984177,10.242417335510254,2.1245925426483154,3.9156558513641357,0.3130720853805542,-0.8035690784454346,-0.44902557134628296,0.16934823989868164
479,42766,42761,-0.026956913992762566,0.029564766213297844,0.9782869219779968,5.784335136413574,-1.9801640510559082,8.518757820129395,2.1242754459381104,3.9157662391662598,0.31282949447631836,-0.7063484787940979,-0.42362087965011597,0.2443457841873169
480,42776,42771,-0.1332530677318573,0.12463654577732086,1.0030851364135742,7.457881927490234,-2.648205280303955,7.021749973297119,2.123391628265381,3.91469144821167,0.31173843145370483,-0.5921149849891663,-0.3174577057361603,0.39540210366249084
