,timestamp_start,timestamp_end,acc.x,acc.y,acc.z,gyro.x,gyro.y,gyro.z,stateEstimate.x,stateEstimate.y,stateEstimate.z,stabilizer.pitch,stabilizer.roll,stabilizer.yaw
0,43617,43615,-0.013139336369931698,0.003115652361884713,1.132490873336792,-2.5853798389434814,-8.786011695861816,-2.6277999877929688,2.003507614135742,4.029364109039307,0.15444102883338928,-3.2704031467437744,1.0291105508804321,1.7627437114715576
1,43627,43625,-0.008391170762479305,-0.002727146726101637,1.1544959545135498,-5.848310947418213,-10.221956253051758,-2.510911226272583,2.0019185543060303,4.029196739196777,0.14880488812923431,-3.2415385246276855,0.9719152450561523,1.7178875207901
2,43637,43635,0.012606623582541943,-0.03179645910859108,1.146859884262085,-8.721158981323242,-11.281970024108887,-2.2937211990356445,2.001248598098755,4.029249668121338,0.1481696218252182,-3.160066843032837,0.8526495695114136,1.6657624244689941
3,43647,43645,0.0214831605553627,-0.022500328719615936,1.1463888883590698,-10.55788516998291,-13.381625175476074,-2.6345622539520264,2.000706911087036,4.030515193939209,0.14770610630512238,-3.037445545196533,0.6994457244873047,1.6089677810668945
4,43657,43655,0.02385505847632885,-0.017905768007040024,1.1712074279785156,-9.613103866577148,-14.664753913879395,-2.488388776779175,1.9989218711853027,4.030202388763428,0.14590325951576233,-2.8762712478637695,0.6127063035964966,1.5966829061508179
5,43667,43665,0.00495624914765358,0.08721692115068436,1.0948132276535034,-6.359436988830566,-13.407258033752441,-2.636399745941162,1.9993572235107422,4.033339977264404,0.14569468796253204,-2.6925249099731445,0.5602117776870728,1.5821582078933716
6,43677,43675,-0.020611805841326714,0.03473977744579315,1.1500754356384277,-1.7198489904403687,-16.39107322692871,-3.0145270824432373,1.9981690645217896,4.033303260803223,0.14558309316635132,-2.6485207080841064,0.45701268315315247,1.5189969539642334
7,43687,43685,-0.0126776909455657,0.10452809184789658,1.078535556793213,-2.0553665161132812,-15.54543685913086,-1.597413420677185,1.997155785560608,4.032418251037598,0.14451996982097626,-2.414684534072876,0.5833286643028259,1.5807923078536987
8,43697,43695,0.021629419177770615,-0.004045963287353516,1.1761161088943481,-1.336949348449707,-15.42469596862793,-1.7624331712722778,1.9985437393188477,4.032133102416992,0.14446859061717987,-2.5492968559265137,0.5342175960540771,1.5164425373077393
9,43707,43705,0.015820670872926712,-0.04207412526011467,1.229933261871338,-2.6903412342071533,-15.702269554138184,-1.179119348526001,1.9981588125228882,4.032095909118652,0.14458832144737244,-2.4076290130615234,0.5010907649993896,1.4885321855545044
10,43717,43715,0.0038878447376191616,0.09637833386659622,1.149196743965149,5.299632549285889,-19.631248474121094,-1.5934529304504395,1.9976965188980103,4.034667491912842,0.1453864723443985,-2.080325126647949,0.4661087393760681,1.4624873399734497
11,43727,43725,0.006202273536473513,0.14396163821220398,1.0545251369476318,-2.110882043838501,-20.87250518798828,-1.0478748083114624,1.996677279472351,4.03385066986084,0.1442389041185379,-1.8765372037887573,0.5267690420150757,1.4773387908935547
12,43737,43735,0.029775789007544518,-0.028578754514455795,1.1879703998565674,-3.4981110095977783,-21.501001358032227,-1.3863344192504883,1.99668288230896,4.035344123840332,0.1449054628610611,-1.6422594785690308,0.39095908403396606,1.4222122430801392
13,43747,43745,0.002286053029820323,-0.010057369247078896,1.2329092025756836,-4.249622344970703,-21.339664459228516,-0.7574759721755981,1.9972971677780151,4.034529209136963,0.1454031765460968,-1.749961256980896,0.3235025405883789,1.3829472064971924
14,43757,43755,-0.00020138594845775515,0.1108594536781311,1.142708420753479,-1.3457224369049072,-21.524816513061523,-0.4196111261844635,1.997722864151001,4.036074638366699,0.14597149193286896,-1.3753228187561035,0.3477418124675751,1.3983896970748901
15,43767,43765,0.03310515359044075,0.06529679149389267,1.133780598640442,-3.700089454650879,-21.127609252929688,-0.6562682390213013,1.9983457326889038,4.038355350494385,0.1470421850681305,-1.1655775308609009,0.3573780357837677,1.4036985635757446
16,43777,43775,0.017870690673589706,-0.01907566748559475,1.1758084297180176,-3.4371249675750732,-21.225181579589844,-0.8493766188621521,1.9991391897201538,4.037458896636963,0.14814306795597076,-1.021382212638855,0.35656681656837463,1.4016103744506836
17,43787,43785,-0.0041266498155891895,0.022728249430656433,1.138690710067749,0.13446298241615295,-20.8216552734375,-0.3854146897792816,2.0002822875976562,4.0395636558532715,0.14965417981147766,-0.8619245886802673,0.2228786051273346,1.365278959274292
18,43797,43795,0.014445132575929165,0.07780660688877106,1.124459981918335,-1.9800249338150024,-20.81150245666504,-0.20952115952968597,2.000763177871704,4.039333820343018,0.15127035975456238,-0.6259443759918213,0.26565369963645935,1.3736016750335693
19,43807,43805,0.010087702423334122,0.0016996166668832302,1.167492151260376,-1.4851280450820923,-20.4713134765625,-0.11796475946903229,2.0017411708831787,4.03943395614624,0.15277080237865448,-0.5324252247810364,0.22495459020137787,1.364859700202942
20,43817,43815,-0.0071300845593214035,-0.014415968209505081,1.1612112522125244,-1.3552463054656982,-20.394207000732422,0.33678537607192993,2.0023372173309326,4.039242744445801,0.15449315309524536,-0.3517477512359619,0.19242815673351288,1.3628098964691162
21,43827,43825,-0.007907122373580933,-0.01649046503007412,1.1471625566482544,0.2390114665031433,-20.612133026123047,0.6062220335006714,2.002077102661133,4.037773132324219,0.15858705341815948,0.04466849938035011,0.37454479932785034,1.3818812370300293
22,43837,43835,0.014348573051393032,0.02735280990600586,1.1669957637786865,-1.8819711208343506,-19.940353393554688,0.46461644768714905,2.0034024715423584,4.038496017456055,0.16101855039596558,0.06522958725690842,0.18664006888866425,1.3755117654800415
23,43847,43845,0.0076020690612494946,-0.011625358834862709,1.118072271347046,-2.967499017715454,-18.503620147705078,0.2929088771343231,2.0034892559051514,4.038374900817871,0.16358305513858795,0.3712398111820221,0.13185307383537292,1.3786368370056152
24,43857,43855,0.01207333616912365,-0.022568516433238983,1.091124176979065,-2.1884896755218506,-16.848424911499023,0.3829902708530426,2.004075527191162,4.038466930389404,0.16676095128059387,0.5675941109657288,0.07978957891464233,1.3820933103561401
25,43867,43865,0.007443082518875599,-0.028653930872678757,1.07056725025177,-0.9108033776283264,-15.289936065673828,0.999851405620575,2.0076236724853516,4.040189266204834,0.1694314181804657,0.4584297835826874,0.05173105746507645,1.3950430154800415
26,43877,43875,-0.007438447792083025,-0.004103149753063917,1.0677889585494995,1.4406161308288574,-15.164712905883789,0.7373999357223511,2.007603883743286,4.042155742645264,0.17243215441703796,0.7123411297798157,0.12102028727531433,1.394765853881836
27,43887,43885,-0.00479648495092988,0.027887949720025063,1.094295859336853,2.656846046447754,-15.148398399353027,0.5866048336029053,2.0075063705444336,4.043980121612549,0.1751609742641449,0.8071730732917786,0.07332070171833038,1.4104831218719482
28,43897,43895,-0.0033259866759181023,-0.0285967867821455,1.061431646347046,3.2225704193115234,-15.869457244873047,0.32595810294151306,2.0092368125915527,4.043493270874023,0.17790758609771729,0.7761666178703308,0.1212664395570755,1.4152612686157227
29,43907,43905,-0.007244589272886515,-0.09470594674348831,0.9772657752037048,3.687086582183838,-16.680435180664062,0.4154893159866333,2.0096426010131836,4.045037746429443,0.18085826933383942,0.9215927720069885,0.2406061589717865,1.4074465036392212
30,43917,43915,0.0010156376520171762,0.03379737213253975,1.0534332990646362,2.481912851333618,-19.849185943603516,0.14419294893741608,2.0114758014678955,4.04566764831543,0.18388155102729797,1.0899982452392578,0.27761319279670715,1.4095051288604736
31,43927,43925,-0.0034262994304299355,-0.06376317143440247,0.9917917251586914,-0.23792743682861328,-18.014768600463867,0.574191153049469,2.0109477043151855,4.04732608795166,0.1895071417093277,1.4089804887771606,0.27661770582199097,1.4106941223144531
32,43937,43935,0.024876801297068596,0.05715364217758179,1.0612207651138306,-0.9035687446594238,-19.053112030029297,0.06932248920202255,2.0121710300445557,4.049403667449951,0.19279134273529053,1.6296941041946411,0.18132327497005463,1.4312448501586914
33,43947,43945,0.0009658607305027544,0.028472110629081726,1.020208716392517,-3.2255537509918213,-13.847113609313965,-0.071762815117836,2.0132579803466797,4.048002243041992,0.19605109095573425,1.612262487411499,0.27813073992729187,1.403471827507019
34,43957,43955,-0.03131666034460068,0.018371986225247383,0.9584343433380127,-3.9048075675964355,-10.179586410522461,-0.4373835325241089,2.014718532562256,4.050250053405762,0.1999552845954895,1.7495728731155396,0.1308089941740036,1.430383563041687
35,43967,43965,-0.08769422024488449,0.08440596610307693,0.9603067636489868,-4.071693420410156,-6.7308735847473145,0.05491243675351143,2.0155341625213623,4.050347805023193,0.20340006053447723,1.9500312805175781,0.19652947783470154,1.3938335180282593
36,43977,43975,-0.04096784442663193,0.04885440692305565,0.9599229693412781,-3.572036027908325,-3.428246021270752,0.45822852849960327,2.0158088207244873,4.050825595855713,0.20669250190258026,2.078737497329712,0.18776436150074005,1.3876887559890747
37,43987,43985,0.023650217801332474,-0.0237820316106081,0.9221476912498474,-2.687082052230835,-1.8534677028656006,0.7819153070449829,2.0178661346435547,4.050799369812012,0.21201945841312408,1.9406089782714844,0.10741793364286423,1.41254723072052
38,43997,43995,0.02532137557864189,-0.04012655094265938,0.923713207244873,-1.7203069925308228,1.6791014671325684,0.00218858546577394,2.0163652896881104,4.051046371459961,0.21545515954494476,2.2435452938079834,0.046846769750118256,1.421506643295288
39,44007,44005,-0.015431568026542664,0.00395513279363513,0.9565945863723755,-0.3088040053844452,5.262189865112305,-0.3757522404193878,2.020129680633545,4.05518102645874,0.21922068297863007,1.7862133979797363,-0.5268700122833252,1.6439805030822754
40,44017,44015,-0.027859926223754883,0.01673520915210247,0.9497982859611511,4.855997085571289,6.957241058349609,-1.6684845685958862,2.02018404006958,4.054386615753174,0.22466805577278137,1.7318238019943237,-0.4472344219684601,1.6084165573120117
41,44027,44025,-0.0018071990925818682,-0.030116373673081398,0.9176769852638245,10.822562217712402,4.472143650054932,-1.0764285326004028,2.020034074783325,4.0561842918396,0.22815364599227905,1.7346776723861694,-0.2826478183269501,1.5634961128234863
42,44037,44035,0.004608052782714367,-0.06802882999181747,0.8935492634773254,13.955814361572266,4.00397253036499,-1.538638710975647,2.0210814476013184,4.057087421417236,0.23148052394390106,1.614092230796814,-0.04335375130176544,1.5100058317184448
43,44047,44045,0.0005872354959137738,-0.035686835646629333,0.9194875359535217,15.712421417236328,-1.2012232542037964,-1.922154188156128,2.020691394805908,4.058876991271973,0.2347988784313202,1.6764506101608276,0.22583520412445068,1.442300796508789
44,44057,44055,-0.005945595912635326,-0.028641728684306145,0.9261981248855591,13.517190933227539,-1.3220077753067017,-2.4909560680389404,2.021056890487671,4.058608531951904,0.23756833374500275,1.773881435394287,0.483356237411499,1.3713668584823608
45,44067,44065,-0.05230109021067619,0.0019674845971167088,0.9229941368103027,9.148283958435059,-7.035229682922363,-2.692542552947998,2.020695209503174,4.058663845062256,0.2406114935874939,1.8958053588867188,0.5432183742523193,1.3631885051727295
46,44077,44075,-0.05216607823967934,0.01804869808256626,0.9118351340293884,2.3823111057281494,-3.2864463329315186,-2.9720797538757324,2.0205912590026855,4.059131145477295,0.24344226717948914,2.0231106281280518,0.7233685255050659,1.279003381729126
47,44087,44085,0.012120602652430534,0.0032272508833557367,0.8932041525840759,-3.57063889503479,-2.685737133026123,-3.2887957096099854,2.021143674850464,4.059595108032227,0.24822241067886353,1.971747636795044,0.6491327881813049,1.2766189575195312
48,44097,44095,-0.0629010796546936,0.01847391203045845,0.8999193906784058,-9.35690975189209,-2.533594846725464,-4.181483745574951,2.0201575756073,4.059720039367676,0.25108566880226135,2.0425260066986084,0.5472214818000793,1.2504509687423706
49,44107,44105,-0.15110357105731964,0.06986365467309952,0.920798122882843,-13.335013389587402,2.927959442138672,-4.359264373779297,2.02022647857666,4.058205604553223,0.25375667214393616,2.056687355041504,0.5801562070846558,1.1507480144500732
50,44117,44115,-0.08689461648464203,0.05103355273604393,0.895134449005127,-13.184792518615723,5.907753944396973,-4.301284313201904,2.0196001529693604,4.0594072341918945,0.25984880328178406,2.010091781616211,0.42103055119514465,1.1217905282974243
51,44127,44125,0.03285069763660431,-0.01758740283548832,0.8515991568565369,-11.36874008178711,8.184412956237793,-4.001362323760986,2.0195071697235107,4.059520244598389,0.26259511709213257,1.921791672706604,0.34330886602401733,1.063755989074707
52,44137,44135,0.03901929035782814,-0.06843797117471695,0.8442416787147522,-8.439275741577148,10.528585433959961,-4.5465803146362305,2.020078420639038,4.060084819793701,0.2653002440929413,1.79292631149292,0.2323066145181656,1.025945782661438
53,44147,44145,0.00866773258894682,0.010512703098356724,0.8317534923553467,-4.252959728240967,9.315147399902344,-4.065635681152344,2.0206291675567627,4.063968658447266,0.26800647377967834,1.5860021114349365,-0.2413213700056076,1.1421360969543457
54,44157,44155,-0.015362518839538097,0.03905884176492691,0.873567521572113,-0.312136173248291,9.48810863494873,-4.965593338012695,2.0214860439300537,4.062465667724609,0.2697736918926239,1.4599964618682861,0.026093846186995506,0.9871601462364197
55,44167,44165,-0.006334069184958935,-0.006237124092876911,0.88258957862854,4.875352382659912,7.475361347198486,-4.529813766479492,2.0203545093536377,4.061763286590576,0.2719781696796417,1.3494139909744263,0.054940175265073776,0.9400694966316223
56,44177,44175,0.012364729307591915,-0.04415188357234001,0.8943513631820679,7.190731048583984,5.093536376953125,-4.114926338195801,2.020153045654297,4.057799816131592,0.2740662693977356,1.275916576385498,0.5734004974365234,0.740668773651123
57,44187,44185,0.03294389322400093,-0.08245141804218292,0.9275444746017456,5.897414684295654,1.3264533281326294,-3.896899700164795,2.0204436779022217,4.064935207366943,0.27748003602027893,1.2516015768051147,-0.07267291098833084,0.9413493275642395
58,44197,44195,0.042785000056028366,-0.04004359990358353,0.9267223477363586,1.5974820852279663,0.7313510775566101,-5.377807140350342,2.01541805267334,4.063838005065918,0.279572993516922,1.675260305404663,0.018142584711313248,0.8723291754722595
59,44207,44205,0.03290732204914093,-0.019673487171530724,0.8850597143173218,-0.7004019618034363,3.58432674407959,-6.059050559997559,2.0132651329040527,4.070263385772705,0.28096237778663635,1.8359696865081787,-0.5288982391357422,0.9845986366271973
60,44217,44215,-0.03289395570755005,-0.03480296581983566,0.8977313041687012,3.0672073364257812,4.375073432922363,-5.868273735046387,2.018031597137451,4.069077491760254,0.28443053364753723,1.148870587348938,-0.37083399295806885,0.8891697525978088
61,44227,44225,0.007273112889379263,-0.041334617882966995,0.8928268551826477,8.752779960632324,11.481414794921875,-5.488552093505859,2.0156075954437256,4.067718505859375,0.28658726811408997,1.2203898429870605,-0.0747954398393631,0.7547692656517029
62,44237,44235,0.03889914229512215,-0.019457805901765823,0.8682961463928223,11.958550453186035,11.757597923278809,-4.157344341278076,2.0200412273406982,4.063500881195068,0.2888199985027313,0.7859798073768616,0.4515397846698761,0.6239389777183533
63,44247,44245,0.011782112531363964,0.003645149525254965,0.8921973705291748,11.182692527770996,8.666889190673828,-3.7810006141662598,2.019132614135742,4.065746784210205,0.2907753586769104,0.595696747303009,0.4535191059112549,0.6010253429412842
64,44257,44255,-0.02061055600643158,0.011142357252538204,0.892081618309021,7.508976459503174,4.266262531280518,-4.112826347351074,2.0124309062957764,4.0679802894592285,0.2917690873146057,1.3605338335037231,0.3032849431037903,0.6169939637184143
65,44267,44265,-0.06717653572559357,0.001598463742993772,0.9216010570526123,2.2660505771636963,1.715421199798584,-4.173703670501709,2.0112810134887695,4.07054328918457,0.29318997263908386,1.282808542251587,0.08675210922956467,0.6501786708831787
66,44277,44275,-0.0018553135450929403,0.044730041176080704,0.912459671497345,-0.4805114269256592,5.104291915893555,-4.236738681793213,2.017181634902954,4.060147762298584,0.29610443115234375,0.6153234243392944,1.1888240575790405,0.3800417482852936
67,44287,44285,-0.06463205069303513,-0.05316577106714249,0.9443252682685852,-4.899259567260742,2.4937262535095215,-3.3565866947174072,2.017197847366333,4.065871238708496,0.29836541414260864,0.5603697896003723,0.5376369953155518,0.47276976704597473
68,44297,44295,-0.013997102156281471,-0.0062381066381931305,0.9478734135627747,-10.114503860473633,3.5082974433898926,-4.206760406494141,2.0179319381713867,4.065806865692139,0.29950693249702454,0.38622531294822693,0.46518322825431824,0.44784778356552124
69,44307,44305,0.015418545342981815,0.11041738092899323,0.9532599449157715,-11.385838508605957,-0.4369584619998932,-4.351945400238037,2.0187747478485107,4.071218967437744,0.3006473481655121,0.2912636995315552,-0.11893834918737411,0.4917273223400116
70,44317,44315,0.004217118490487337,0.08409889042377472,0.9592723250389099,-9.714409828186035,-4.219894886016846,-4.0557332038879395,2.017993688583374,4.062210559844971,0.29972004890441895,0.3284381926059723,0.6140387654304504,0.3192712068557739
71,44327,44325,0.0087415287271142,0.006031573284417391,0.9356667399406433,-4.221000671386719,-8.044689178466797,-3.1215856075286865,2.015673875808716,4.069281578063965,0.30132153630256653,0.5639687180519104,-0.09596538543701172,0.3591626286506653
72,44337,44335,0.00628914637491107,-0.013916486874222755,0.9287957549095154,-0.6963405609130859,-10.216259002685547,-2.880178689956665,2.009809970855713,4.068819046020508,0.3022743761539459,1.1325113773345947,-0.15185175836086273,0.3264470398426056
73,44347,44345,-0.03244202956557274,0.013784336857497692,0.9396644830703735,3.1831374168395996,-9.170827865600586,-2.6092419624328613,2.0132555961608887,4.062007427215576,0.30079859495162964,0.8086460828781128,0.36827078461647034,0.22867688536643982
74,44357,44355,-0.06831188499927521,0.04369320720434189,0.9671535491943359,5.844916343688965,-1.6136295795440674,-2.3091509342193604,2.0073044300079346,4.066356182098389,0.30151599645614624,1.4535075426101685,0.0069773695431649685,0.24449856579303741
75,44367,44365,-0.04209708049893379,0.05764182657003403,0.9605162739753723,5.067924499511719,8.95495319366455,-1.3817193508148193,2.0074946880340576,4.067655563354492,0.3021666407585144,1.4150301218032837,-0.046832095831632614,0.2345672845840454
76,44377,44375,-0.018548766151070595,0.05148928612470627,0.9410050511360168,3.518324375152588,16.791366577148438,-1.6057157516479492,2.0158236026763916,4.062647819519043,0.30417805910110474,0.5552932024002075,0.5737031698226929,0.14528582990169525
77,44387,44385,-0.014609960839152336,0.029890773817896843,0.925380289554596,0.9329087734222412,19.51317024230957,-1.693928837776184,2.0188512802124023,4.06407356262207,0.2995462417602539,0.1426851898431778,0.4428795576095581,0.15206049382686615
78,44397,44395,-0.011243971064686775,-0.007131122052669525,0.9441914558410645,-3.418214797973633,13.50209903717041,-1.7867016792297363,2.006124258041382,4.072727203369141,0.3019593358039856,0.9578644037246704,-0.40349289774894714,0.20326675474643707
79,44407,44405,-0.012359945103526115,-0.01985393837094307,0.9847710132598877,-3.8485214710235596,8.696331977844238,-2.5462372303009033,2.0116565227508545,4.068183422088623,0.3040759861469269,0.24757762253284454,0.11211416125297546,0.12525907158851624
80,44417,44415,-0.0021712498273700476,-0.013933946378529072,0.9857650995254517,-0.6572193503379822,3.821000099182129,-1.1613858938217163,2.0184545516967773,4.0664143562316895,0.29912230372428894,-0.47109758853912354,0.29791560769081116,0.09558328241109848
81,44427,44425,0.012175479903817177,-0.16645140945911407,1.0035151243209839,1.1326825618743896,-2.6276466846466064,-0.9651566743850708,2.01702880859375,4.060832500457764,0.2992343008518219,-0.2932310402393341,0.8074425458908081,0.050329409539699554
82,44437,44435,-0.012166517786681652,-0.20538939535617828,0.9800733923912048,-0.022342031821608543,-11.702835083007812,-0.4737688899040222,1.9980045557022095,4.072912216186523,0.3035331964492798,1.5727732181549072,-0.38615867495536804,0.1082720011472702
83,44447,44445,-0.04075535014271736,-0.12142419815063477,1.0063433647155762,-3.4301328659057617,-13.951223373413086,-0.43345752358436584,1.9976521730422974,4.072592735290527,0.3001307547092438,1.623006820678711,-0.3619111478328705,0.10131563246250153
84,44457,44455,-0.05769456550478935,-0.03900831565260887,1.0419762134552002,-4.027168273925781,-0.5852857232093811,0.2951523959636688,1.9955039024353027,4.074455261230469,0.30023011565208435,1.7030580043792725,-0.37714922428131104,0.10004332661628723
85,44467,44465,0.08123079687356949,-0.03464331850409508,0.9836511611938477,1.5122605562210083,10.029831886291504,0.9008817076683044,1.9957926273345947,4.074093818664551,0.3008125424385071,1.4713754653930664,-0.35919779539108276,0.10616908222436905
86,44477,44475,-0.06847678869962692,0.009826838038861752,1.04096257686615,6.069242477416992,27.197912216186523,0.8859249949455261,1.9971662759780884,4.074979305267334,0.301631361246109,1.024455189704895,-0.2580445110797882,0.11482909321784973
87,44487,44485,-0.07414587587118149,0.057165827602148056,1.0472038984298706,9.689075469970703,38.041038513183594,1.068198800086975,1.9972188472747803,4.074569225311279,0.29693788290023804,0.9228115677833557,-0.16927120089530945,0.1091049313545227
88,44497,44495,-0.018384182825684547,0.04496435448527336,1.0249274969100952,13.459946632385254,44.023704528808594,0.9585779309272766,1.996446132659912,4.0735907554626465,0.29695436358451843,0.562163233757019,0.09672155231237411,0.10092374682426453
89,44507,44505,0.021390283480286598,-0.04130164906382561,0.9689155220985413,12.993759155273438,42.16690444946289,0.8622757792472839,1.9959473609924316,4.07389497756958,0.29694637656211853,0.10970307141542435,0.24974903464317322,0.11002174764871597
90,44517,44515,0.06224922835826874,0.015321939252316952,0.9537269473075867,9.601447105407715,36.02571105957031,0.5612908005714417,1.9936330318450928,4.074382305145264,0.2934955656528473,-0.30434906482696533,0.4033450186252594,0.12211551517248154
91,44527,44525,0.08770032227039337,-0.029330534860491753,0.8949788808822632,6.030170917510986,23.480018615722656,1.2834482192993164,1.993033766746521,4.075496196746826,0.2932221293449402,-0.6700798273086548,0.5026034712791443,0.1325845718383789
92,44537,44535,0.053735002875328064,0.06596768647432327,1.0034738779067993,-0.4364665746688843,9.11833381652832,1.756801724433899,1.9915781021118164,4.075314521789551,0.29291588068008423,-0.9856409430503845,0.6070913672447205,0.1488886922597885
93,44547,44545,0.020256219431757927,0.02683316171169281,1.0399550199508667,-4.323794364929199,-3.9065845012664795,1.6321111917495728,1.9924542903900146,4.076162338256836,0.29030841588974,-1.231174111366272,0.6121626496315002,0.16823174059391022
94,44557,44555,0.003946267534047365,-0.017098525539040565,1.0283058881759644,-7.06411600112915,-7.666970252990723,2.212368965148926,1.991296410560608,4.076394557952881,0.2897952198982239,-1.1988153457641602,0.625796914100647,0.18829062581062317
95,44567,44565,-0.0174727663397789,-0.06286986917257309,0.9957345724105835,-9.720231056213379,-5.493631362915039,2.4792914390563965,1.9899227619171143,4.077340602874756,0.2893550992012024,-1.0840712785720825,0.5091456174850464,0.20575058460235596
96,44577,44575,0.024485336616635323,-0.04815259575843811,1.0192369222640991,-8.704916000366211,-4.133449077606201,2.6118617057800293,1.9894541501998901,4.076633930206299,0.28887036442756653,-1.058222770690918,0.515509843826294,0.2388111799955368
97,44587,44585,-0.004225437995046377,-0.013655701652169228,1.0510759353637695,-6.119639873504639,0.7043883800506592,2.943716049194336,1.9884978532791138,4.076552391052246,0.2856733798980713,-1.065549612045288,0.4417746961116791,0.2656976580619812
98,44597,44595,0.02554117515683174,-0.06458936631679535,1.0088940858840942,-3.8262195587158203,5.563644886016846,2.937293529510498,1.9884005784988403,4.076942443847656,0.2850610017776489,-1.1509345769882202,0.3968234062194824,0.294743150472641
99,44607,44605,0.028942707926034927,-0.05022606998682022,1.0226367712020874,-1.6337635517120361,8.94551944732666,3.253568410873413,1.9885567426681519,4.076160907745361,0.2844838500022888,-1.3020027875900269,0.3942376673221588,0.3298390507698059
100,44617,44615,0.009637698531150818,-0.05102454498410225,1.035343885421753,-0.9226260781288147,6.314795970916748,3.193202018737793,1.9871783256530762,4.076663017272949,0.2846549153327942,-1.4053453207015991,0.34426307678222656,0.35869100689888
101,44627,44625,0.020061908289790154,-0.013114502653479576,1.0736358165740967,-1.2985858917236328,2.8964056968688965,3.315032720565796,1.9866652488708496,4.075367450714111,0.2841375768184662,-1.4733420610427856,0.4635692834854126,0.4148949682712555
102,44637,44635,0.01682654395699501,-0.02157929539680481,1.0711820125579834,-2.6654889583587646,-3.4121792316436768,3.447143077850342,1.9850162267684937,4.075353145599365,0.2837824523448944,-1.4818512201309204,0.41084957122802734,0.4402954876422882
103,44647,44645,-0.018705088645219803,-0.013853631913661957,1.1074222326278687,-4.772098064422607,-6.576645851135254,2.8973450660705566,1.9843847751617432,4.075552463531494,0.2792006731033325,-1.4807837009429932,0.41880130767822266,0.4775884747505188
104,44657,44655,0.005804357584565878,-0.05260848626494408,1.10077965259552,-6.831303596496582,-6.723413944244385,2.354938268661499,1.984520673751831,4.0761799812316895,0.2786870300769806,-1.4947932958602905,0.31062227487564087,0.4906153976917267
105,44667,44665,0.010976703837513924,-0.03893198445439339,1.098469614982605,-7.385998249053955,-9.7518310546875,2.6957476139068604,1.9832748174667358,4.074925422668457,0.2782471477985382,-1.3945568799972534,0.32783544063568115,0.533959686756134
106,44677,44675,-0.0037889264058321714,-0.014554346911609173,1.08713698387146,-7.223176956176758,-13.052997589111328,2.7427825927734375,1.9825046062469482,4.075303077697754,0.27859580516815186,-1.2580870389938354,0.1661107838153839,0.5414347648620605
107,44687,44685,0.015639599412679672,0.016996722668409348,1.0635257959365845,-7.5329461097717285,-7.8390069007873535,2.584298849105835,1.9822735786437988,4.0737457275390625,0.2783838212490082,-1.178739070892334,0.2427947223186493,0.6026621460914612
108,44697,44695,0.028298944234848022,-0.0035612385254353285,1.081822395324707,-6.4458723068237305,-4.539668560028076,2.7646729946136475,1.9830409288406372,4.073801517486572,0.2782819867134094,-1.1409484148025513,0.14822041988372803,0.6234238743782043
109,44707,44705,0.006044745910912752,-0.025894641876220703,1.0950363874435425,-5.24163293838501,-2.3300435543060303,2.590723991394043,1.982892394065857,4.073699951171875,0.2782672941684723,-1.0719165802001953,0.07572082430124283,0.6479300260543823
110,44717,44715,-0.009398376569151878,-0.04383455216884613,1.0777584314346313,-4.5754313468933105,-1.9097199440002441,2.804966688156128,1.9848370552062988,4.074645519256592,0.27749815583229065,-1.2696313858032227,-0.05661380663514137,0.6536338329315186
111,44727,44725,-0.0010710663627833128,0.0018278476782143116,1.0800448656082153,-3.6615869998931885,-2.9723334312438965,3.3038294315338135,1.9848462343215942,4.075496196746826,0.2776005268096924,-1.2212278842926025,-0.09281017631292343,0.6848800778388977
112,44737,44735,0.004347038920968771,0.027078770101070404,1.1016879081726074,-2.2742669582366943,-6.088578701019287,2.962104320526123,1.9841055870056152,4.074888706207275,0.27778568863868713,-1.1620839834213257,-0.11230632662773132,0.7213734984397888
113,44747,44745,0.021358489990234375,-0.07850183546543121,1.042838215827942,-1.0074191093444824,-9.188424110412598,2.6785449981689453,1.984860897064209,4.074979305267334,0.27831682562828064,-1.1338000297546387,-0.032677061855793,0.7775367498397827
114,44757,44755,0.03164505213499069,-0.06575226783752441,1.023584246635437,0.46689748764038086,-12.445063591003418,3.2494680881500244,1.9850894212722778,4.073587417602539,0.2786053419113159,-1.1166743040084839,0.05679440125823021,0.8293368816375732
115,44767,44765,-0.01053235400468111,0.04853957146406174,1.0128717422485352,0.5019361972808838,-10.643195152282715,2.467942476272583,1.9837347269058228,4.075590133666992,0.2790473699569702,-0.8819559216499329,0.002849849406629801,0.8452930450439453
116,44777,44775,-0.017434895038604736,0.05305807664990425,1.0382379293441772,-2.1499555110931396,-17.223934173583984,2.978438377380371,1.9837017059326172,4.075475692749023,0.27898478507995605,-0.8185617327690125,0.11249202489852905,0.8933145999908447
117,44787,44785,0.0025336816906929016,-0.0102952616289258,1.0482314825057983,-4.658807277679443,-18.92784881591797,3.268843650817871,1.9830536842346191,4.075812816619873,0.2794884145259857,-0.6913519501686096,0.01980430819094181,0.9053494334220886
118,44797,44795,0.010651567950844765,-0.08925648033618927,1.0258351564407349,-6.917609691619873,-11.293258666992188,2.779965877532959,1.9831141233444214,4.076282978057861,0.2799481153488159,-0.47034525871276855,-0.03220086917281151,0.9316384792327881
119,44807,44805,0.049316972494125366,-0.018518198281526566,0.9726104140281677,-9.6265287399292,-4.132610321044922,2.2095673084259033,1.9817317724227905,4.0766706466674805,0.28052908182144165,-0.3169506788253784,-0.19683155417442322,0.9412727952003479
120,44817,44815,0.014268632978200912,-0.036174070090055466,1.0250911712646484,-8.582953453063965,-4.461317539215088,2.119887113571167,1.9835304021835327,4.076747894287109,0.2825218439102173,-0.3259330689907074,-0.15976667404174805,0.9898998737335205
121,44827,44825,-0.017675243318080902,0.0004151095636188984,1.09469473361969,-5.796976089477539,-7.460623741149902,2.0876309871673584,1.98366117477417,4.077264785766602,0.2831573188304901,-0.3546472191810608,-0.3541954457759857,0.998197078704834
122,44837,44835,-0.049649324268102646,-0.040417544543743134,1.0386968851089478,-3.862379312515259,-5.793231010437012,2.155592918395996,1.984010100364685,4.078458786010742,0.2837364077568054,-0.35322701930999756,-0.4957667589187622,1.010546088218689
123,44847,44845,0.03393068164587021,0.042451150715351105,1.0262311697006226,-2.6435976028442383,-6.284123420715332,2.7176930904388428,1.982928991317749,4.078056335449219,0.28329336643218994,-0.21475248038768768,-0.37599265575408936,1.0525989532470703
124,44857,44855,0.026449840515851974,0.0022522208746522665,1.0238826274871826,-0.8617464900016785,-7.24531888961792,1.7054178714752197,1.9848157167434692,4.076601028442383,0.2838827967643738,-0.36586201190948486,-0.3167036175727844,1.0979220867156982
125,44867,44865,0.03546503186225891,-0.12572716176509857,1.0071710348129272,0.09914606064558029,-10.843175888061523,1.0157026052474976,1.9828073978424072,4.077483654022217,0.2846786677837372,-0.17306406795978546,-0.38338369131088257,1.1038113832473755
126,44877,44875,0.010240097530186176,-0.11032513529062271,1.0007524490356445,-1.1025211811065674,-12.25885009765625,0.9760509133338928,1.9832212924957275,4.078700065612793,0.28464171290397644,-0.022372104227542877,-0.3574232757091522,1.1143823862075806
127,44887,44885,-0.02397187240421772,-0.03447677195072174,0.9658615589141846,-3.3199081420898438,-12.718862533569336,1.5020712614059448,1.983270525932312,4.078708171844482,0.2853100597858429,0.009342996403574944,-0.4254963994026184,1.1278785467147827
128,44897,44895,-0.0024223318323493004,0.014124547131359577,1.0228906869888306,-3.4867732524871826,-14.050835609436035,2.0284230709075928,1.9828250408172607,4.080460071563721,0.28600093722343445,0.21437522768974304,-0.5184906721115112,1.1337363719940186
129,44907,44905,0.02779451571404934,0.037526361644268036,1.047916293144226,-1.7712868452072144,-14.337005615234375,1.219469666481018,1.9820473194122314,4.08010196685791,0.29094719886779785,0.4902211129665375,-0.5366837382316589,1.1437896490097046
130,44917,44915,-0.01983609050512314,-0.0012143373023718596,1.0136858224868774,-1.6717604398727417,-8.284070014953613,0.9151933789253235,1.9826207160949707,4.080046653747559,0.29193612933158875,0.5149660110473633,-0.39189913868904114,1.1741923093795776
131,44927,44925,0.038848262280225754,-0.06993086636066437,1.0370991230010986,-2.7907183170318604,-3.454925775527954,0.8517508506774902,1.982677936553955,4.079823970794678,0.2929442226886749,0.6267739534378052,-0.47561895847320557,1.1829020977020264
132,44937,44935,0.051820069551467896,-0.08553735166788101,1.0049794912338257,-2.5187671184539795,0.383604496717453,-0.014127194881439209,1.9816956520080566,4.081057548522949,0.29401469230651855,0.7332236766815186,-0.5614379048347473,1.1869888305664062
133,44947,44945,-0.05188653990626335,0.16289252042770386,0.968059241771698,-3.4385251998901367,8.568270683288574,-0.3152712285518646,1.9811218976974487,4.081878185272217,0.29811009764671326,0.7597923278808594,-0.5675969123840332,1.188733696937561
134,44957,44955,-0.014091555029153824,0.04831349849700928,0.9691559672355652,-3.3089113235473633,12.170056343078613,0.6018375754356384,1.9833308458328247,4.082885265350342,0.2993682026863098,0.514036238193512,-0.6586037278175354,1.2007458209991455
135,44967,44965,0.0509834811091423,-0.20098569989204407,0.9926542639732361,-2.832663059234619,20.312274932861328,-0.12562546133995056,1.9841490983963013,4.083510875701904,0.30054083466529846,0.34005674719810486,-0.7399153709411621,1.2070289850234985
136,44977,44975,0.007315601222217083,-0.07730810344219208,0.9872222542762756,-0.5504291653633118,20.50026512145996,-0.4995143413543701,1.9853333234786987,4.08331298828125,0.30080118775367737,0.14011125266551971,-0.736471951007843,1.203727126121521
137,44987,44985,0.02142382599413395,-0.026669254526495934,0.9625357985496521,0.9271687865257263,18.389463424682617,-0.445464551448822,1.9848589897155762,4.0840277671813965,0.3019684851169586,-0.007314939517527819,-0.7787163257598877,1.1917006969451904
138,44997,44995,0.007646171376109123,0.04938768222928047,0.9895520210266113,3.5741589069366455,16.778696060180664,-0.7874476313591003,1.9839062690734863,4.085126876831055,0.3031125068664551,-0.12339655309915543,-0.7880101799964905,1.176618218421936
139,45007,45005,0.0731639564037323,-0.005801943596452475,0.8917105793952942,6.006363391876221,4.710560321807861,-0.6445962190628052,1.984768033027649,4.085782527923584,0.3047593832015991,-0.3273792266845703,-0.7505666613578796,1.1737232208251953
140,45017,45015,-0.0021481725852936506,-0.03545964136719704,0.9412882924079895,7.738662242889404,-0.8435892462730408,-0.6065080761909485,1.984912633895874,4.0875630378723145,0.3058357834815979,-0.3809995949268341,-0.672446608543396,1.1615169048309326
141,45027,45025,-0.104719378054142,-0.050473060458898544,0.9922701716423035,6.11374568939209,2.3976030349731445,-0.46816742420196533,1.9847346544265747,4.088041305541992,0.3069003224372864,-0.33922624588012695,-0.6398455500602722,1.1501796245574951
142,45037,45035,-0.014136593788862228,-0.042401548475027084,0.9667707681655884,4.692758083343506,1.623778223991394,-1.256920337677002,1.9841350317001343,4.087489128112793,0.307902991771698,-0.23971761763095856,-0.47146937251091003,1.136622667312622
143,45047,45045,-0.08950734883546829,0.01801484264433384,0.9503301382064819,2.1817922592163086,2.7233147621154785,-0.7275524139404297,1.9852781295776367,4.089085102081299,0.31129416823387146,-0.3030581772327423,-0.48238062858581543,1.1358146667480469
144,45057,45055,-0.07112085074186325,0.02429579757153988,0.9701156616210938,-1.0294902324676514,7.639634609222412,-0.9505330324172974,1.9848361015319824,4.087574005126953,0.3123348653316498,-0.31378525495529175,-0.3827168345451355,1.1262129545211792
145,45067,45065,-0.0358387716114521,0.0793202817440033,0.962057888507843,-2.319812774658203,10.986953735351562,-1.1660435199737549,1.9872785806655884,4.088605880737305,0.3133314847946167,-0.4587952494621277,-0.41175606846809387,1.1293891668319702
146,45077,45075,0.009670748375356197,0.06836991757154465,0.9171758890151978,-2.4488484859466553,10.914722442626953,-1.2014023065567017,1.9875513315200806,4.089467525482178,0.3135058581829071,-0.6854440569877625,-0.5575525164604187,1.1102979183197021
147,45087,45085,0.024864723905920982,-0.03408321738243103,0.9199718236923218,-1.562089443206787,10.070250511169434,-0.9488685727119446,1.9864931106567383,4.089107990264893,0.31437623500823975,-0.6410680413246155,-0.580324649810791,1.1056244373321533
148,45097,45095,-0.001800420694053173,0.012812850996851921,0.9749689102172852,0.8212409615516663,6.698713302612305,-0.9054964780807495,1.9876458644866943,4.089845657348633,0.3151516914367676,-0.7713159918785095,-0.6126602292060852,1.0955302715301514
149,45107,45105,-0.04760738089680672,0.04299973323941231,1.0094504356384277,2.535782814025879,2.546198844909668,-1.144010066986084,1.9876996278762817,4.089877128601074,0.31558334827423096,-0.8551583290100098,-0.6116318106651306,1.0842081308364868
150,45117,45115,-0.07755925506353378,-0.0041270069777965546,1.0005158185958862,7.02048397064209,-2.9104526042938232,-1.5338808298110962,1.9879930019378662,4.089797496795654,0.3162882924079895,-0.8842036128044128,-0.5771124958992004,1.070642352104187
151,45127,45125,-0.08271537721157074,-0.019486909732222557,0.9844579100608826,7.866557598114014,-0.6792426109313965,-1.514367938041687,1.9874240159988403,4.088324069976807,0.31705760955810547,-0.842438817024231,-0.40681055188179016,1.0572370290756226
152,45137,45135,-0.0391286201775074,-0.025533270090818405,0.9486566185951233,6.711768627166748,-5.600102424621582,-1.3365399837493896,1.9857536554336548,4.089212417602539,0.3178676962852478,-0.7284699082374573,-0.3691454827785492,1.030020833015442
153,45147,45145,-0.059550702571868896,0.004687617998570204,0.9379856586456299,2.9865152835845947,0.24586382508277893,-0.5301946997642517,1.9858953952789307,4.089574813842773,0.3189741373062134,-0.6630992293357849,-0.2705690860748291,1.0148416757583618
154,45157,45155,-0.007688931655138731,-0.011329052038490772,0.9312116503715515,0.2057575285434723,3.3767385482788086,-0.7551112174987793,1.985870122909546,4.090168476104736,0.3196479380130768,-0.7183085680007935,-0.2243625968694687,1.0122730731964111
155,45167,45165,-0.002271751407533884,-0.04556237906217575,0.9288125038146973,-2.3536832332611084,5.004552364349365,-1.2036434412002563,1.9860965013504028,4.091281890869141,0.32027900218963623,-0.743110716342926,-0.3005133867263794,0.9990867972373962
156,45177,45175,-0.012783678248524666,-0.021539561450481415,0.9438366889953613,-3.729304552078247,4.330132484436035,-0.48608267307281494,1.9857897758483887,4.091318607330322,0.3198602497577667,-0.7946275472640991,-0.33511048555374146,0.9850397109985352
157,45187,45185,-0.008318200707435608,0.05028975009918213,0.963267982006073,-2.422081232070923,6.22374153137207,-0.6956695914268494,1.9864951372146606,4.09022331237793,0.3203255832195282,-0.8504595160484314,-0.16864697635173798,0.993341863155365
158,45197,45195,0.0011107343016192317,0.04043526574969292,0.961992084980011,-2.6248321533203125,5.047337532043457,-0.3618468940258026,1.9940698146820068,4.092570781707764,0.3203924000263214,-1.5984809398651123,-0.3842511475086212,1.0113098621368408
159,45207,45205,0.029508395120501518,0.020572654902935028,0.942301869392395,-0.7119828462600708,-0.786489725112915,-0.21828019618988037,1.9946638345718384,4.092159748077393,0.3214486539363861,-1.6581462621688843,-0.42484787106513977,1.0016610622406006
160,45217,45215,0.03429148718714714,-0.03903082758188248,0.9571164846420288,2.0095956325531006,-10.317333221435547,0.022203614935278893,1.9946693181991577,4.092172145843506,0.32198962569236755,-1.5564583539962769,-0.43931081891059875,0.9895219802856445
161,45227,45225,0.003681785659864545,-0.04005960375070572,0.9894715547561646,4.058436870574951,-16.634479522705078,0.3369799852371216,1.9943715333938599,4.090336799621582,0.3224679231643677,-1.3926477432250977,-0.25868821144104004,1.0043973922729492
162,45237,45235,0.0031390050426125526,-0.0359656997025013,0.9531145691871643,5.95298433303833,-20.505647659301758,0.3332102596759796,1.9953514337539673,4.091235160827637,0.3198222517967224,-1.2658514976501465,-0.2833101451396942,0.9982600808143616
163,45247,45245,0.05687854811549187,-0.032941192388534546,0.9065729379653931,4.347804546356201,-19.668256759643555,0.5864781141281128,1.9950716495513916,4.091894626617432,0.3200456202030182,-0.7411924600601196,-0.22133620083332062,0.9934332370758057
164,45257,45255,0.022812187671661377,-0.0051401578821241856,0.947458803653717,3.0942063331604004,-14.021195411682129,0.9953019022941589,1.9953036308288574,4.092822551727295,0.32004407048225403,-0.7498753666877747,-0.1933145672082901,0.9977707266807556
165,45267,45265,0.06925219297409058,-0.04862353950738907,0.9186043739318848,0.38905707001686096,-8.088034629821777,1.4607774019241333,1.995509386062622,4.0937652587890625,0.3201037049293518,-0.46685972809791565,-0.13989442586898804,1.0054173469543457
166,45277,45275,0.08186860382556915,-0.07840555161237717,0.969119668006897,-2.15594220161438,-2.3456263542175293,2.1044187545776367,1.9964364767074585,4.093835353851318,0.3217725455760956,-0.3704136610031128,-0.12473376095294952,1.0196388959884644
167,45287,45285,0.07852613925933838,-0.14552979171276093,0.9929240345954895,-2.3762264251708984,1.569257140159607,2.918417453765869,1.9982346296310425,4.093660354614258,0.321718692779541,-0.3758487403392792,-0.1491619497537613,1.0376869440078735
168,45297,45295,0.031831081956624985,-0.13587160408496857,1.0145237445831299,-3.0850324630737305,5.036935806274414,1.9039429426193237,1.9999291896820068,4.094214916229248,0.321574866771698,-0.45949214696884155,-0.19117414951324463,1.0629843473434448
169,45307,45305,-0.00657588941976428,-0.03353027254343033,0.9943152666091919,-2.7115495204925537,4.7076849937438965,1.8137561082839966,2.0003647804260254,4.093706130981445,0.32202985882759094,-0.44647011160850525,-0.1716393232345581,1.0876100063323975
170,45317,45315,0.017803989350795746,-0.06748048961162567,0.9692739248275757,-0.9855812788009644,5.136880397796631,1.7694988250732422,2.0019657611846924,4.093430519104004,0.32198625802993774,-0.5241940021514893,-0.23033010959625244,1.105440378189087
171,45327,45325,-0.016609633341431618,0.07882323116064072,0.9959148168563843,-0.5438598990440369,3.655183792114258,2.258666753768921,2.00287127494812,4.093729019165039,0.3219188153743744,-0.5866244435310364,-0.26215052604675293,1.1242520809173584
172,45337,45335,0.033119626343250275,0.03949630632996559,0.9306074380874634,1.1675769090652466,-2.6908562183380127,2.9843733310699463,2.004073143005371,4.093790531158447,0.319585382938385,-0.6111345291137695,-0.27493205666542053,1.1474676132202148
173,45347,45345,-0.017865503206849098,0.042454760521650314,1.0442596673965454,2.8381001949310303,-4.792555809020996,3.040151357650757,2.0037710666656494,4.0944366455078125,0.3194164037704468,-0.47388139367103577,-0.3350684940814972,1.1678372621536255
174,45357,45355,0.013547486625611782,-0.0059128412976861,1.0035110712051392,4.841510772705078,-10.588793754577637,3.7130496501922607,2.003631830215454,4.09578800201416,0.31917962431907654,-0.37337833642959595,-0.28126049041748047,1.2001270055770874
175,45367,45365,-0.06699895113706589,-0.06590243428945541,1.0530942678451538,6.084962368011475,-12.802398681640625,3.8781044483184814,2.0034828186035156,4.095763206481934,0.3189598619937897,-0.2090795487165451,-0.1911260485649109,1.238287091255188
176,45377,45375,-0.04132891818881035,-0.048846010118722916,1.0277940034866333,5.122991561889648,-5.3883843421936035,3.861675977706909,2.0035364627838135,4.095681667327881,0.31598585844039917,-0.041573189198970795,-0.09142881631851196,1.2775357961654663
177,45387,45385,0.01690605655312538,0.016066139563918114,1.0032380819320679,3.739262819290161,-0.6516743302345276,4.679272174835205,2.002650737762451,4.097050189971924,0.3156398832798004,0.1259557455778122,-0.07984104752540588,1.3140230178833008
178,45397,45395,0.06827836483716965,0.023371711373329163,0.9694215059280396,0.7711426019668579,4.739895343780518,3.8333239555358887,2.0056841373443604,4.097670555114746,0.3153420686721802,-0.022768037393689156,-0.018308278173208237,1.3655776977539062
179,45407,45405,0.009957768954336643,-0.02497764863073826,0.9955188632011414,-1.9888007640838623,7.188712120056152,3.399448871612549,2.005557060241699,4.098465442657471,0.31248751282691956,-0.027945177629590034,-0.004734509624540806,1.403511881828308
180,45417,45415,-0.008376975543797016,-0.016435086727142334,1.0358785390853882,-2.577331781387329,8.788909912109375,3.612605094909668,2.0079047679901123,4.099565505981445,0.3119601905345917,-0.22645939886569977,-0.03399955481290817,1.4367926120758057
181,45427,45425,0.02228420600295067,-0.048063673079013824,0.9928640723228455,-1.1794114112854004,7.229795932769775,3.7488980293273926,2.0074727535247803,4.100334167480469,0.3115045726299286,-0.2880021035671234,-0.07472966611385345,1.4672126770019531
182,45437,45435,0.02771933749318123,-0.013030234724283218,1.010985016822815,-0.48758429288864136,7.0548996925354,3.9319512844085693,2.008241653442383,4.10140323638916,0.31140729784965515,-0.3261238634586334,-0.09546408802270889,1.5104209184646606
183,45447,45445,0.048409055918455124,-0.031902045011520386,1.015086054801941,-0.10812750458717346,2.889671802520752,3.523495674133301,2.0081796646118164,4.101078033447266,0.3110031187534332,-0.33577466011047363,-0.09899375587701797,1.547966718673706
184,45457,45455,0.061979930847883224,-0.0028618876822292805,1.0394909381866455,1.831491231918335,-2.9471218585968018,3.398422956466675,2.0091612339019775,4.101377487182617,0.3105345666408539,-0.43546178936958313,-0.08896458148956299,1.575770616531372
185,45467,45465,0.010745923034846783,-0.07416635006666183,1.076146125793457,2.899287700653076,-4.835981369018555,3.1640145778656006,2.0109710693359375,4.102369785308838,0.3101305663585663,-0.452910453081131,-0.05369589850306511,1.615540862083435
186,45477,45475,0.010001694783568382,0.0018296047346666455,1.0416547060012817,3.4607839584350586,-6.321039199829102,3.9094369411468506,2.010899305343628,4.102962970733643,0.31304046511650085,-0.2749501168727875,-0.07690230011940002,1.651946783065796
187,45487,45485,0.006241136230528355,0.002267762552946806,1.0274087190628052,3.8161847591400146,-5.10565710067749,3.408898115158081,2.011676549911499,4.104072570800781,0.3129256069660187,-0.25774866342544556,-0.009720578789710999,1.6856590509414673
188,45497,45495,-0.00033621452166698873,0.03319767490029335,1.0644115209579468,3.3240575790405273,-3.7065722942352295,2.439607858657837,2.012737512588501,4.1045451164245605,0.31294840574264526,-0.17119455337524414,0.05432609096169472,1.7259539365768433
189,45507,45505,-0.0149711724370718,-0.05392400547862053,0.9833542108535767,1.3618745803833008,0.6651984453201294,2.679342031478882,2.0124895572662354,4.105644702911377,0.312252938747406,-0.11648838967084885,0.10564057528972626,1.759698748588562
190,45517,45515,0.041337236762046814,-0.120962955057621,1.0327941179275513,-0.7277041077613831,0.08034836500883102,3.286160469055176,2.013744354248047,4.107202053070068,0.3122555911540985,-0.12891022861003876,-0.03082956187427044,1.7889363765716553
191,45527,45525,0.09519712626934052,-0.23694226145744324,1.0775495767593384,-0.39606523513793945,0.9011605381965637,1.545870065689087,2.0146138668060303,4.106200218200684,0.31225454807281494,-0.15320652723312378,0.05009137839078903,1.8154044151306152
192,45537,45535,0.025710992515087128,-0.09553086012601852,1.0467612743377686,-0.869429886341095,4.793956756591797,1.1866557598114014,2.0162181854248047,4.106568336486816,0.3111266493797302,-0.2785068452358246,0.04161105304956436,1.8276838064193726
193,45547,45545,0.005357465706765652,-0.005814620293676853,1.0334911346435547,-0.8543794751167297,4.89328145980835,0.9443576335906982,2.016649007797241,4.106068134307861,0.31118059158325195,-0.35639387369155884,0.030183544382452965,1.8333607912063599
194,45557,45555,-0.007268671412020922,-0.03663259744644165,0.9956578016281128,-0.18474744260311127,6.728250503540039,0.9649659991264343,2.0174179077148438,4.107223033905029,0.31133875250816345,-0.34782418608665466,0.02089335210621357,1.843869924545288
195,45567,45565,0.025598673149943352,-0.03916255012154579,1.0752421617507935,1.247297763824463,-0.3029323220252991,1.2020525932312012,2.0184874534606934,4.107870101928711,0.3115387558937073,-0.40960693359375,0.03297324478626251,1.8619416952133179
196,45577,45575,0.012808011844754219,-0.012266162782907486,1.0509092807769775,3.6045916080474854,-4.338641166687012,0.7197136282920837,2.0184643268585205,4.108565807342529,0.3115970194339752,-0.2976827919483185,0.07049603015184402,1.8799138069152832
197,45587,45585,-0.04653124883770943,0.09233156591653824,0.9915837645530701,3.173537492752075,-4.191339015960693,0.5519465804100037,2.018965721130371,4.110040187835693,0.31186869740486145,-0.22568093240261078,0.13045088946819305,1.903408169746399
198,45597,45595,-0.0003921082825399935,0.024398047477006912,1.0391452312469482,2.6046299934387207,-3.9566125869750977,0.6623843908309937,2.0205936431884766,4.1100873947143555,0.3120594024658203,-0.3127197325229645,0.183411106467247,1.9060853719711304
199,45607,45605,0.03638956695795059,-0.0756482183933258,0.957648515701294,0.5854705572128296,-4.511358261108398,1.0431655645370483,2.0203680992126465,4.11152458190918,0.31167978048324585,-0.15480689704418182,0.13816069066524506,1.9238756895065308
200,45617,45615,-0.05320063978433609,-0.045711081475019455,1.081422209739685,-0.05673383176326752,-5.277683734893799,0.5600045919418335,2.0199806690216064,4.110408306121826,0.31195348501205444,-0.007247020490467548,0.22725118696689606,1.9351438283920288
201,45627,45625,-0.01715668849647045,-0.05605902895331383,1.0131608247756958,-0.6641413569450378,1.787078857421875,-0.126164510846138,2.019512891769409,4.11142110824585,0.31228676438331604,0.031064089387655258,0.1371568888425827,1.9390095472335815
202,45637,45635,-0.02350049838423729,0.006723426748067141,1.0359374284744263,-2.0344927310943604,5.175608158111572,-0.010602222755551338,2.0223848819732666,4.11257791519165,0.3155888020992279,-0.1649622768163681,0.1246652826666832,1.9384169578552246
203,45647,45645,-0.024170927703380585,-0.03381284698843956,1.0155445337295532,-1.6675318479537964,7.513372898101807,-0.12308637797832489,2.023252010345459,4.11279296875,0.3160543441772461,-0.2643883526325226,0.08742299675941467,1.9370976686477661
204,45657,45655,0.02839578315615654,-0.029970550909638405,0.9750959873199463,-1.673895001411438,6.738191604614258,0.29530829191207886,2.024096727371216,4.1137495040893555,0.3166004419326782,-0.30216121673583984,0.06267128884792328,1.9427330493927002
205,45667,45665,-0.003465360729023814,-0.02752825617790222,0.9973276853561401,-0.2144297957420349,4.098781108856201,-0.1387270987033844,2.0243961811065674,4.1138505935668945,0.3118806779384613,-0.3122776746749878,0.04834610968828201,1.9461649656295776
206,45677,45675,0.007717811968177557,-0.013655857183039188,0.9893010258674622,1.1468770503997803,0.9873222708702087,0.22129535675048828,2.024895191192627,4.113338947296143,0.31207090616226196,-0.37164005637168884,0.05522710084915161,1.9377049207687378
207,45687,45685,0.028923621401190758,-0.040640540421009064,0.9737870693206787,1.514937162399292,-1.1262321472167969,0.03054850921034813,2.0248196125030518,4.11234712600708,0.31232163310050964,-0.2953341007232666,0.16478818655014038,1.939984917640686
208,45697,45695,0.023076653480529785,-0.04864722117781639,0.9825949668884277,1.822511076927185,-3.0593957901000977,0.2088635414838791,2.0263078212738037,4.1124114990234375,0.3124192953109741,-0.3474457859992981,0.1957012116909027,1.936655879020691
209,45707,45705,0.020419422537088394,-0.06274210661649704,1.0287892818450928,1.5489517450332642,-3.951447010040283,0.452102929353714,2.0257678031921387,4.1133527755737305,0.31210777163505554,-0.2137686014175415,0.21934722363948822,1.9491403102874756
210,45717,45715,0.0530053973197937,-0.11849404126405716,0.9744093418121338,-1.1336605548858643,0.9792518615722656,-0.4509458839893341,2.027419328689575,4.113792896270752,0.31221067905426025,-0.24066627025604248,0.23161861300468445,1.9586703777313232
211,45727,45725,0.024493582546710968,-0.007287853397428989,0.9917823672294617,-2.430370807647705,0.022169584408402443,-0.16983160376548767,2.0277276039123535,4.115129470825195,0.31229183077812195,-0.24704678356647491,0.19827044010162354,1.964277982711792
212,45737,45735,0.020151646807789803,-0.05872387811541557,0.9554669260978699,-4.082051753997803,4.396442890167236,0.5805853009223938,2.0313169956207275,4.115905284881592,0.3141769468784332,-0.49221622943878174,0.14366203546524048,1.9599688053131104
213,45747,45745,0.008659884333610535,-0.042657360434532166,1.0496007204055786,-2.930410623550415,0.6167656183242798,0.5887261033058167,2.0312552452087402,4.116748332977295,0.3144131004810333,-0.4416458308696747,0.08069715648889542,1.969342827796936
214,45757,45755,-0.019242707639932632,0.05193904787302017,1.0480341911315918,-0.6387260556221008,-2.331249475479126,0.28635966777801514,2.0330870151519775,4.119171142578125,0.31454843282699585,-0.5099034905433655,0.034554459154605865,2.006864309310913
215,45767,45765,-0.051585983484983444,0.1539297103881836,1.0376158952713013,-0.08042912185192108,-0.4858369827270508,0.0386851504445076,2.032421588897705,4.118449687957764,0.31671595573425293,-0.3773970901966095,0.10056557506322861,2.0136661529541016
216,45777,45775,-0.004147354047745466,0.11497572809457779,0.9361260533332825,0.706807553768158,0.6614792346954346,0.05487065762281418,2.0333445072174072,4.119844913482666,0.317011296749115,-0.42092254757881165,0.09824898093938828,2.0254364013671875
217,45787,45785,-0.005570350214838982,0.12066810578107834,1.0154589414596558,1.6018527746200562,-3.2243456840515137,1.1173231601715088,2.033592700958252,4.121498107910156,0.3174682855606079,-0.3041723966598511,0.10316150635480881,2.0501112937927246
218,45797,45795,0.0428006649017334,0.02110106684267521,0.9914061427116394,-0.009995981119573116,-3.218634605407715,0.5733639597892761,2.0361077785491943,4.12101936340332,0.3176487982273102,-0.500607430934906,0.18839846551418304,2.0517752170562744
219,45807,45805,-0.006736737675964832,0.005780681502074003,1.0150707960128784,-1.157193899154663,-3.2650623321533203,0.8223755955696106,2.0356266498565674,4.121575355529785,0.31331881880760193,-0.3304988741874695,0.17094294726848602,2.0734527111053467
220,45817,45815,-0.010593091137707233,-0.06840573996305466,0.9780007600784302,-0.7031049132347107,-5.808382511138916,1.1209402084350586,2.0361075401306152,4.121657848358154,0.31341010332107544,-0.24136246740818024,0.1425868570804596,2.0841212272644043
221,45827,45825,-0.041742242872714996,0.0683538019657135,1.0066746473312378,-2.80070161819458,-2.638960838317871,1.0271883010864258,2.0376639366149902,4.121335506439209,0.31341060996055603,-0.2968026399612427,0.10209602862596512,2.082782506942749
222,45837,45835,0.004143759608268738,-0.029526829719543457,0.9684886932373047,-5.227510929107666,-0.5467644333839417,1.6561412811279297,2.037433624267578,4.121819496154785,0.31442099809646606,-0.15346784889698029,0.03598978370428085,2.1049258708953857
223,45847,45845,-0.0030158490408211946,-0.0040013608522713184,1.0185292959213257,-5.009405612945557,-1.009642481803894,1.1088429689407349,2.039412498474121,4.121531009674072,0.3144432306289673,-0.2796822488307953,0.0193585604429245,2.1093335151672363
224,45857,45855,-0.02671041153371334,0.0019368896028026938,0.9975957274436951,-3.7290637493133545,0.37378835678100586,1.4706158638000488,2.041590452194214,4.121699333190918,0.31440189480781555,-0.3907485008239746,0.00830153003334999,2.1200451850891113
225,45867,45865,0.018678579479455948,-0.05086895078420639,0.9756012558937073,-2.872328519821167,-0.23343908786773682,1.2367740869522095,2.042590618133545,4.121571063995361,0.3126146197319031,-0.4289359152317047,-0.06478188186883926,2.1329855918884277
226,45877,45875,-0.0225081667304039,0.02536093257367611,1.0365859270095825,-1.9798216819763184,-3.30472993850708,0.9745975136756897,2.0418262481689453,4.121963024139404,0.3127238154411316,-0.2884089946746826,-0.04304639622569084,2.168402671813965
227,45887,45885,0.03982485085725784,-0.06266121566295624,0.9872058033943176,-1.0908384323120117,-7.410737037658691,1.2012616395950317,2.0436935424804688,4.122761249542236,0.3126925230026245,-0.2801758646965027,-0.007581667974591255,2.2086822986602783
228,45897,45895,-0.02258463017642498,-0.081552654504776,1.032305359840393,1.1740765571594238,-8.573232650756836,1.0009071826934814,2.0424318313598633,4.12286901473999,0.3128558099269867,-0.05733448639512062,-0.03946327418088913,2.2162773609161377
229,45907,45905,-0.04130619019269943,-0.040402352809906006,0.9710754752159119,0.00035128265153616667,-1.5272862911224365,0.8834480047225952,2.046102285385132,4.124849319458008,0.3142179846763611,-0.251190721988678,-0.041863758116960526,2.249419689178467
230,45917,45915,-0.01744139939546585,-0.03193076699972153,1.0159945487976074,-1.9125819206237793,0.06433305889368057,0.6457468867301941,2.046396255493164,4.124471664428711,0.31435754895210266,-0.19022244215011597,-0.061206668615341187,2.2706732749938965
231,45927,45925,0.0373840294778347,-0.011588460765779018,1.0102125406265259,-3.6000559329986572,-1.1830427646636963,0.3096402585506439,2.0458738803863525,4.124625205993652,0.31461212038993835,-0.07246687263250351,0.04607482999563217,2.2989344596862793
232,45937,45935,0.031577691435813904,-0.15064656734466553,1.0254924297332764,-4.417860507965088,-2.8812708854675293,-0.020382201299071312,2.0479025840759277,4.126328468322754,0.3162919878959656,-0.09735161066055298,-0.11072657257318497,2.3273651599884033
233,45947,45945,0.005231140181422234,-0.1089007556438446,1.0341689586639404,-3.935173273086548,-0.884853720664978,0.11682367324829102,2.048210382461548,4.127503395080566,0.31654512882232666,-0.03253240883350372,-0.19785532355308533,2.327392101287842
234,45957,45955,0.07842403650283813,-0.01921510137617588,0.9428614974021912,-4.281124591827393,-2.3776278495788574,-0.05946658179163933,2.048849582672119,4.128596305847168,0.3168295919895172,0.009060635231435299,-0.19804945588111877,2.3569211959838867
235,45967,45965,-0.026055457070469856,-0.021226122975349426,1.0182723999023438,-3.4219133853912354,-0.7088411450386047,-1.0492842197418213,2.050729513168335,4.128066539764404,0.312206894159317,-0.06778335571289062,-0.19808271527290344,2.3705434799194336
236,45977,45975,0.0390748605132103,-0.0602228119969368,1.009548544883728,-1.6642658710479736,-2.9570887088775635,-0.8964045643806458,2.0519750118255615,4.129555702209473,0.31222206354141235,0.007722908165305853,-0.25520288944244385,2.3746349811553955
237,45987,45985,-0.00996304489672184,0.014625643379986286,1.0076152086257935,-0.38432231545448303,-4.629644393920898,-0.5824007391929626,2.052586793899536,4.129591941833496,0.31221500039100647,0.09559124708175659,-0.2967503070831299,2.3666749000549316
238,45997,45995,0.0018207456450909376,-0.03999323025345802,1.0059677362442017,-0.6786580681800842,-4.489343166351318,-0.5081413388252258,2.054516315460205,4.129477024078369,0.3103000521659851,0.04446794465184212,-0.3137660622596741,2.3618533611297607
239,46007,46005,-0.02698720246553421,0.005959290079772472,1.0122642517089844,1.9281741380691528,-3.7620351314544678,-0.08229462057352066,2.054551124572754,4.129630088806152,0.31020107865333557,0.15317794680595398,-0.24395644664764404,2.3702168464660645
240,46017,46015,-0.010342932306230068,0.040423065423965454,1.0476139783859253,1.0096367597579956,-0.9293813705444336,-1.1531585454940796,2.055054187774658,4.129823684692383,0.31011098623275757,0.2341347336769104,-0.23197820782661438,2.3762314319610596
241,46027,46025,-0.059786103665828705,0.11323907971382141,1.02859365940094,1.2702116966247559,2.1848373413085938,-0.9692316055297852,2.0568249225616455,4.130380153656006,0.30999404191970825,0.19856075942516327,-0.22201594710350037,2.3681912422180176
242,46037,46035,-0.005951239727437496,0.09517236799001694,0.9743700623512268,-0.5961347222328186,0.3089919090270996,-0.876320481300354,2.0579423904418945,4.131128787994385,0.3113618493080139,0.20106613636016846,-0.2250119298696518,2.374969244003296
243,46047,46045,-0.009940166026353836,-0.000542309251613915,1.0208786725997925,-0.9927173852920532,1.2592065334320068,-0.7738615870475769,2.0591132640838623,4.130979061126709,0.31132909655570984,0.13885463774204254,-0.24586963653564453,2.358383893966675
244,46057,46055,-0.012311671860516071,-0.05194351077079773,1.0035878419876099,-1.4181369543075562,1.022645115852356,-0.7791635394096375,2.0606300830841064,4.131491184234619,0.3112912178039551,0.07672745734453201,-0.2747820317745209,2.362807035446167
245,46067,46065,0.01736707240343094,0.021855056285858154,0.9768404960632324,-0.1854219138622284,-0.8961492776870728,-1.0906046628952026,2.0609591007232666,4.131622791290283,0.3140326142311096,0.1046542301774025,-0.29987895488739014,2.3543756008148193
246,46077,46075,0.025872329249978065,0.0850878581404686,0.9556360840797424,-0.7980501055717468,-2.870474338531494,-0.42517703771591187,2.061113119125366,4.132781028747559,0.3141936957836151,0.15506324172019958,-0.3112836480140686,2.3744168281555176
247,46087,46085,0.024429338052868843,-0.13458581268787384,1.0023884773254395,0.6070099472999573,-4.007348537445068,-0.8599062561988831,2.061516761779785,4.1320319175720215,0.31435009837150574,0.2466159164905548,-0.2434127777814865,2.363173723220825
248,46097,46095,-0.01071095746010542,-0.11931692808866501,1.0942634344100952,2.878357410430908,-3.7733097076416016,-0.8966764807701111,2.062145709991455,4.132779598236084,0.3143061101436615,0.2709554433822632,-0.301486998796463,2.3682994842529297
249,46107,46105,0.043107032775878906,-0.07189733535051346,0.9360939860343933,4.280826568603516,-3.857717514038086,-0.6784305572509766,2.0624160766601562,4.132786273956299,0.3144815266132355,0.35135653614997864,-0.255933552980423,2.369737386703491
250,46117,46115,-0.027306295931339264,0.06686850637197495,0.9503495693206787,3.871978998184204,-3.526545763015747,-0.22330161929130554,2.0650875568389893,4.132171630859375,0.3145177364349365,0.20804756879806519,-0.18447598814964294,2.3492860794067383
251,46127,46125,0.006264748517423868,0.0824359655380249,0.9578994512557983,1.4511237144470215,0.97032231092453,-0.6530457139015198,2.064858913421631,4.133735179901123,0.3147490620613098,0.33659064769744873,-0.14122790098190308,2.389397144317627
252,46137,46135,0.006068042013794184,-0.05870524421334267,0.9886022806167603,0.11238352209329605,2.322385787963867,-0.8576353192329407,2.066394090652466,4.133794784545898,0.3163645267486572,0.2553803026676178,-0.12768305838108063,2.393298864364624
253,46147,46145,0.0018398615065962076,0.001505766180343926,1.0129516124725342,-1.5293123722076416,-1.7417229413986206,-0.6816140413284302,2.0662620067596436,4.134723663330078,0.3165833055973053,0.32962164282798767,-0.1460302770137787,2.3917360305786133
254,46157,46155,-0.02232375554740429,-0.11490169167518616,0.9804115891456604,-1.8241913318634033,-0.5338715314865112,-0.2051638513803482,2.0672760009765625,4.135583400726318,0.31676116585731506,0.2833825647830963,-0.25867241621017456,2.4170656204223633
255,46167,46165,0.007945362478494644,-0.028848392888903618,0.9699171781539917,-2.215425968170166,-0.5728653073310852,-0.4732305109500885,2.0671634674072266,4.135721206665039,0.3156213164329529,0.31024059653282166,-0.21360677480697632,2.4052743911743164
256,46177,46175,0.0411730520427227,-0.04345802217721939,1.0082508325576782,-0.8093570470809937,-1.0262360572814941,-0.7514908909797668,2.066436529159546,4.13643217086792,0.3157285153865814,0.41656845808029175,-0.16689017415046692,2.431708812713623
257,46187,46185,0.03256266564130783,-0.21244733035564423,0.9745863676071167,0.16410808265209198,-1.876937985420227,-1.145023226737976,2.0686373710632324,4.137388229370117,0.31569647789001465,0.2971535921096802,-0.2538469433784485,2.459388017654419
258,46197,46195,0.006051686592400074,-0.1756695657968521,0.9743236303329468,1.2522673606872559,-0.7078683972358704,-0.892969012260437,2.069194793701172,4.13943338394165,0.31517505645751953,0.3419269323348999,-0.24372471868991852,2.4804301261901855
259,46207,46205,-0.0217830091714859,-0.055524975061416626,0.9815813302993774,1.5771528482437134,-0.3683128356933594,-0.061265431344509125,2.0700511932373047,4.14015007019043,0.31516560912132263,0.3733196556568146,-0.22075696289539337,2.512214183807373
260,46217,46215,0.08636397868394852,-0.08371683210134506,0.9845696091651917,1.6955877542495728,1.4788676500320435,-0.12835858762264252,2.0696287155151367,4.139726638793945,0.31514593958854675,0.3810172975063324,-0.11814717948436737,2.487997055053711
261,46227,46225,0.06583630293607712,-0.06559787690639496,1.024946928024292,2.259532928466797,3.2004830837249756,-0.9477192759513855,2.070208787918091,4.140354156494141,0.31518107652664185,0.4340888261795044,-0.0965186208486557,2.502351999282837
262,46237,46235,0.03084685653448105,-0.136797234416008,0.9865173101425171,0.6069707870483398,4.519660472869873,-0.2850126624107361,2.0705690383911133,4.141112327575684,0.3154938519001007,0.383087694644928,-0.07757706195116043,2.5184407234191895
263,46247,46245,0.0332900695502758,-0.07361816614866257,0.9709222912788391,-0.6105973720550537,5.053900718688965,0.19825850427150726,2.0744686126708984,4.141668796539307,0.3153182864189148,0.08307286351919174,-0.1571350395679474,2.5239384174346924
264,46257,46255,0.0757150650024414,-0.09688612818717957,1.0038695335388184,-1.930876612663269,4.205704212188721,-0.41128572821617126,2.0747101306915283,4.143344879150391,0.31533756852149963,0.10813683271408081,-0.24917876720428467,2.543717861175537
265,46267,46265,-0.054224271327257156,0.051678162068128586,1.0427310466766357,-0.37770500779151917,0.6183429956436157,-0.01645871065557003,2.074155569076538,4.143436431884766,0.3123854994773865,0.162331223487854,-0.27649587392807007,2.541874885559082
266,46277,46275,0.047060441225767136,-0.0878051370382309,0.9726375341415405,1.9141879081726074,1.7644424438476562,-0.2644140422344208,2.0761494636535645,4.143926620483398,0.3120299279689789,0.01508266106247902,-0.2604377865791321,2.559547185897827
267,46287,46285,0.056423742324113846,-0.07914562523365021,0.9808077812194824,2.27840518951416,4.879141807556152,0.9500905871391296,2.076956033706665,4.143306255340576,0.3117755055427551,0.01987197995185852,-0.21019110083580017,2.5393481254577637
268,46297,46295,0.06954018026590347,-0.13819387555122375,1.014992117881775,5.401398658752441,-3.3539743423461914,0.6481619477272034,2.076641082763672,4.1426520347595215,0.3148409426212311,0.10044045746326447,-0.14627864956855774,2.5321152210235596
269,46307,46305,-0.01236313208937645,-0.03483020141720772,1.026600956916809,4.939140319824219,-4.911534786224365,1.0132653713226318,2.0769124031066895,4.142711162567139,0.31482788920402527,0.17950764298439026,-0.05655735731124878,2.547672748565674
270,46317,46315,0.01219115499407053,0.00219936016947031,1.0203287601470947,5.1830291748046875,-1.3524898290634155,0.1356571614742279,2.07743239402771,4.142168998718262,0.3148438334465027,0.26539820432662964,0.026114745065569878,2.545778751373291
271,46327,46325,0.017552470788359642,0.011068237014114857,0.9309068322181702,2.3954808712005615,2.917271614074707,0.9073278903961182,2.078235149383545,4.143044948577881,0.3142031729221344,0.29624491930007935,0.022651992738246918,2.563330888748169
272,46337,46335,0.008983982726931572,-0.01291058212518692,0.9892992377281189,0.5859631299972534,-0.3720261752605438,1.202170491218567,2.080627679824829,4.143685817718506,0.3140084743499756,0.11898184567689896,-0.022696813568472862,2.5784518718719482
273,46347,46345,-0.04971642047166824,0.06522512435913086,0.982181191444397,-1.4355419874191284,1.5676615238189697,1.3709591627120972,2.081505537033081,4.143678665161133,0.31391000747680664,0.1450026035308838,-0.01172464620321989,2.5901310443878174
274,46357,46355,-0.03662458434700966,0.08851802349090576,1.0515165328979492,-1.3583555221557617,5.882487773895264,1.1087297201156616,2.081235408782959,4.143746852874756,0.3138716220855713,0.1915718913078308,-0.03307569772005081,2.6115312576293945
275,46367,46365,0.03247450664639473,0.05734369531273842,0.9439252018928528,-1.2752225399017334,4.61345911026001,1.864300012588501,2.0825586318969727,4.144068717956543,0.3163051903247833,0.02960946597158909,-0.053623929619789124,2.626556158065796
276,46377,46375,0.004076449666172266,0.013150651939213276,1.0149070024490356,-0.6326321363449097,4.058379173278809,1.8515743017196655,2.0840373039245605,4.144692420959473,0.31631502509117126,-0.034318067133426666,-0.06761495769023895,2.667609930038452
277,46387,46385,0.03291621431708336,-0.00045370261068455875,1.0277208089828491,1.3784747123718262,1.881800651550293,1.9162770509719849,2.0842041969299316,4.14485502243042,0.31640300154685974,0.00038194135413505137,-0.058690913021564484,2.6948516368865967
278,46397,46395,-0.013822920620441437,-0.06525219976902008,1.0268867015838623,2.990175247192383,-0.7323766946792603,0.9312872290611267,2.0857694149017334,4.145343780517578,0.31837204098701477,-0.07448757439851761,-0.014186140149831772,2.6976230144500732
279,46407,46405,-0.012292670086026192,0.06371021270751953,1.001509428024292,3.072253465652466,0.0796213150024414,1.2794240713119507,2.0853922367095947,4.144093990325928,0.3186868131160736,0.03173338621854782,0.11633863300085068,2.7259674072265625
280,46417,46415,0.012008816003799438,0.07329501211643219,1.030819058418274,2.897791862487793,-2.8602359294891357,0.3611552119255066,2.0873305797576904,4.144081115722656,0.31877461075782776,-0.10255540907382965,0.16053208708763123,2.7284016609191895
281,46427,46425,-0.02599399909377098,-0.00820999313145876,1.0364422798156738,1.118257761001587,-2.7127349376678467,0.5947222709655762,2.0871946811676025,4.144757270812988,0.3216315507888794,0.041337259113788605,0.1150219663977623,2.734833240509033
282,46437,46435,0.03501033037900925,-0.04482489824295044,0.9925699234008789,-1.3965483903884888,-1.0960952043533325,0.3406539559364319,2.086745262145996,4.144238471984863,0.3220728933811188,0.0919843390583992,0.12183817476034164,2.72511625289917
283,46447,46445,0.026816418394446373,0.07818014919757843,1.0351289510726929,-2.5808095932006836,-0.8374357223510742,0.06598752737045288,2.0876986980438232,4.144716262817383,0.3225056231021881,0.12330888211727142,0.08872795104980469,2.721230983734131
284,46457,46455,0.014485696330666542,0.07193908095359802,1.0452572107315063,-3.293520927429199,-0.14336426556110382,-0.32174092531204224,2.0876662731170654,4.144718170166016,0.32300668954849243,0.14095087349414825,0.04110492393374443,2.7366435527801514
285,46467,46465,-0.015142042189836502,0.06547574698925018,1.0022207498550415,-4.10165548324585,3.833366870880127,-0.9989391565322876,2.088186025619507,4.144579887390137,0.3212006688117981,0.04739733785390854,-0.019579678773880005,2.709557056427002
286,46477,46475,0.0033023811411112547,0.10156605392694473,0.9245266318321228,-4.8651580810546875,6.651371002197266,-0.7412092089653015,2.0885519981384277,4.145594596862793,0.32158219814300537,0.05897687375545502,-0.09218620508909225,2.7169547080993652
287,46487,46485,0.004631814546883106,0.10468738526105881,0.9895051121711731,-1.808786153793335,4.779387950897217,-0.6426880955696106,2.0883285999298096,4.145168781280518,0.32192227244377136,0.05843743309378624,-0.13786184787750244,2.686941146850586
288,46497,46495,-0.0052837105467915535,0.04313085600733757,1.0004692077636719,2.0305745601654053,3.4318034648895264,-1.374916911125183,2.089412212371826,4.146266460418701,0.3254941701889038,-0.005261856596916914,-0.13520583510398865,2.696385622024536
289,46507,46505,-0.019733453169465065,0.0410720519721508,0.9411238431930542,3.444507122039795,4.661557197570801,-0.8217294216156006,2.0916430950164795,4.146056652069092,0.3258849084377289,-0.20960633456707,-0.07884567230939865,2.7071516513824463
290,46517,46515,-0.055345360189676285,0.08425392955541611,0.9817432165145874,3.1869125366210938,6.494815349578857,-1.3665354251861572,2.09010648727417,4.146844387054443,0.32653504610061646,-0.11781475692987442,-0.0206696055829525,2.7346737384796143
291,46527,46525,0.05377408117055893,0.014328557066619396,0.9154269695281982,2.5177359580993652,5.304064750671387,-1.3102431297302246,2.0912909507751465,4.1471991539001465,0.32673248648643494,-0.19040913879871368,0.0358399823307991,2.7521750926971436
292,46537,46535,0.08831323683261871,-0.07114169001579285,0.9622823596000671,1.6296952962875366,0.5439778566360474,-0.8271661400794983,2.0920846462249756,4.147704124450684,0.3270226716995239,-0.2297806441783905,0.08062947541475296,2.728349208831787
293,46547,46545,0.056554101407527924,-0.10443984717130661,1.0500599145889282,0.8225699067115784,-1.8162424564361572,-1.4494456052780151,2.0926036834716797,4.1480865478515625,0.3273244798183441,-0.20507439970970154,0.09664455056190491,2.72623872756958
294,46557,46555,0.03105088137090206,-0.07498855143785477,0.9294723272323608,-1.201642394065857,-3.5843088626861572,-1.3125406503677368,2.092672348022461,4.147767543792725,0.327788770198822,-0.1595059186220169,0.08908434212207794,2.711013078689575
295,46567,46565,0.006595840211957693,-0.07424400001764297,0.9402406811714172,-1.2144371271133423,-2.0210154056549072,-1.8649466037750244,2.0933327674865723,4.149209022521973,0.3280281126499176,-0.1756170243024826,-0.08499537408351898,2.685608148574829
296,46577,46575,0.07240194082260132,-0.06509557366371155,0.8686028718948364,-2.2857279777526855,2.8542799949645996,-1.837782382965088,2.09381365776062,4.148423671722412,0.3282172381877899,-0.15502658486366272,-0.022017579525709152,2.668182611465454
297,46587,46585,0.09194468706846237,-0.057072803378105164,0.9189504981040955,-1.7207889556884766,1.2451897859573364,-2.144435167312622,2.0950961112976074,4.148800849914551,0.32820144295692444,-0.2568345069885254,-0.050516027957201004,2.6528749465942383
298,46597,46595,0.06484765559434891,-0.09310312569141388,0.9121153950691223,-1.0439269542694092,0.7740901112556458,-2.1566054821014404,2.095222234725952,4.1491827964782715,0.3270706534385681,-0.18068881332874298,-0.06894418597221375,2.6456971168518066
299,46607,46605,-0.06783395260572433,-0.07773328572511673,1.012821912765503,1.6573013067245483,-1.9681867361068726,-2.4750194549560547,2.0952420234680176,4.14906120300293,0.32698509097099304,-0.17035029828548431,-0.060309793800115585,2.6475579738616943
300,46617,46615,-0.09742705523967743,-0.03613819181919098,0.9604802131652832,1.5473638772964478,1.3977793455123901,-2.3061957359313965,2.095304489135742,4.149595260620117,0.3269278109073639,-0.06474239379167557,-0.021447408944368362,2.625483274459839
301,46627,46625,-0.009724048897624016,0.056940365582704544,0.9831923842430115,1.812281847000122,1.4757159948349,-2.189293384552002,2.0972325801849365,4.149955749511719,0.32569292187690735,-0.16794154047966003,0.015127964317798615,2.613133430480957
302,46637,46635,0.020778220146894455,0.05880928412079811,0.9805892109870911,1.4180655479431152,2.9437952041625977,-2.386276960372925,2.097609043121338,4.149501323699951,0.32544878125190735,-0.19080647826194763,0.044520240277051926,2.572601079940796
303,46647,46645,0.016429953277111053,0.04399995878338814,0.9890199899673462,0.95829176902771,2.4508297443389893,-2.8241989612579346,2.0994975566864014,4.149603843688965,0.32509833574295044,-0.30870142579078674,0.06844116002321243,2.5566041469573975
304,46657,46655,-0.01656067930161953,-0.023009011521935463,0.9489325284957886,-0.46439287066459656,2.2783570289611816,-2.9466540813446045,2.098818063735962,4.149583339691162,0.32428044080734253,-0.22417864203453064,0.0871928259730339,2.5322265625
305,46667,46665,-0.06013471260666847,0.0926641970872879,0.9632887244224548,-2.170894145965576,-0.23992709815502167,-2.4982247352600098,2.0987534523010254,4.150912761688232,0.3239627480506897,-0.1562587320804596,-0.013594108633697033,2.519821882247925
306,46677,46675,0.027921874076128006,-0.01983454078435898,0.9718472957611084,-3.454693078994751,0.6211933493614197,-1.874104619026184,2.0994720458984375,4.151490688323975,0.32356196641921997,-0.22925813496112823,-0.04899028688669205,2.513448476791382
307,46687,46685,0.03916904702782631,0.0612485408782959,1.0421693325042725,-1.4901901483535767,-0.49030306935310364,-1.607780933380127,2.10014009475708,4.1519551277160645,0.32316356897354126,-0.22262148559093475,-0.08682352304458618,2.5005712509155273
308,46697,46695,0.020251439884305,0.05672556161880493,1.058760404586792,0.12651219964027405,-0.7370317578315735,-2.1592118740081787,2.101100206375122,4.152599334716797,0.3188008964061737,-0.1951047033071518,-0.0910479798913002,2.4965264797210693
309,46707,46705,-0.06207585707306862,0.16670259833335876,0.9846790432929993,1.6055335998535156,2.1607308387756348,-2.765983819961548,2.100905179977417,4.152673721313477,0.3183111250400543,-0.09704598039388657,-0.0594688318669796,2.481980800628662
310,46717,46715,-0.07243547588586807,0.21401256322860718,0.9203817844390869,1.8459237813949585,0.10625370591878891,-1.8018207550048828,2.1026017665863037,4.152621269226074,0.31766360998153687,-0.20930470526218414,-0.01957179419696331,2.4584507942199707
311,46727,46725,-0.01804976910352707,0.025110717862844467,1.016974687576294,2.5768840312957764,1.6246508359909058,-1.660759687423706,2.103764057159424,4.152622222900391,0.32168567180633545,-0.22882971167564392,0.01617358811199665,2.440297842025757
312,46737,46735,0.00016151851741597056,-0.04266952723264694,0.9866576790809631,0.9463554620742798,1.9181689023971558,-1.7577208280563354,2.1045308113098145,4.1524248123168945,0.32131054997444153,-0.21996146440505981,0.07062283903360367,2.4295167922973633
313,46747,46745,-0.06582986563444138,0.03195579722523689,1.0212723016738892,-1.8762482404708862,4.7304511070251465,-1.4558008909225464,2.1043684482574463,4.152700901031494,0.32100069522857666,-0.16421128809452057,0.07205253839492798,2.420046806335449
314,46757,46755,0.014918351545929909,0.037328220903873444,0.9917432069778442,-2.216193199157715,5.345914363861084,-1.5472275018692017,2.104517698287964,4.152278900146484,0.32304465770721436,-0.2388698160648346,0.04276379942893982,2.3814380168914795
315,46767,46765,0.007467501796782017,-0.09112705290317535,1.044675350189209,-2.5443873405456543,2.373202323913574,-1.256190299987793,2.10593318939209,4.153773784637451,0.3228611350059509,-0.27776309847831726,-0.0076687452383339405,2.4163761138916016
316,46777,46775,-0.0024344907142221928,-0.04654417932033539,1.0405389070510864,-1.8427308797836304,1.7027205228805542,-1.4926894903182983,2.1069748401641846,4.1536946296691895,0.3226679563522339,-0.39129188656806946,-0.04401833564043045,2.388556718826294
317,46787,46785,0.028457816690206528,-0.032411880791187286,0.9900383949279785,-1.063176155090332,0.4995698928833008,-1.7416245937347412,2.1069655418395996,4.1538238525390625,0.32262542843818665,-0.32016998529434204,-0.06622781604528427,2.373507261276245
318,46797,46795,-0.01028863713145256,-0.008560658432543278,1.0140286684036255,0.09738883376121521,-2.0372812747955322,-1.4446607828140259,2.1080973148345947,4.154179096221924,0.32258719205856323,-0.37378862500190735,-0.0645020380616188,2.3691160678863525
319,46807,46805,0.010032678954303265,-0.0004177879891358316,0.9926390647888184,0.9459418058395386,-3.8762636184692383,-1.101353406906128,2.1073992252349854,4.153871059417725,0.3225800693035126,-0.23030081391334534,-0.045559320598840714,2.3445703983306885
320,46817,46815,-0.002830957295373082,-0.06627080589532852,1.018700361251831,3.5554349422454834,-5.47838020324707,-0.3608391284942627,2.109156847000122,4.154299736022949,0.3223992586135864,-0.2741944193840027,0.005158106330782175,2.3579845428466797
321,46827,46825,0.026196064427495003,-0.05711004137992859,0.9691784977912903,2.946439504623413,-3.315753698348999,-0.7813922166824341,2.109865665435791,4.154940605163574,0.3225114047527313,-0.2559898793697357,-0.01988605409860611,2.3504128456115723
322,46837,46835,-0.017810452729463577,0.01398772094398737,1.0136256217956543,2.0793771743774414,-2.0597076416015625,-1.1295667886734009,2.111309766769409,4.155643939971924,0.3223797082901001,-0.26082512736320496,-0.045764606446027756,2.340721845626831
323,46847,46845,0.0069663263857364655,-0.11785876750946045,0.9973084926605225,1.3473761081695557,-1.0623663663864136,-1.4055064916610718,2.1112239360809326,4.156786918640137,0.3223574161529541,-0.16682010889053345,-0.09061955660581589,2.3427045345306396
324,46857,46855,0.019756469875574112,-0.008076577447354794,0.994645893573761,0.46604689955711365,-0.24841414391994476,-1.5428134202957153,2.1118693351745605,4.156423091888428,0.32247355580329895,-0.21538525819778442,-0.053657371550798416,2.3091132640838623
325,46867,46865,-0.000698698335327208,0.03764033317565918,1.0117266178131104,0.33360570669174194,-0.5898588299751282,-2.184558629989624,2.1119823455810547,4.156692981719971,0.3224722743034363,-0.12654094398021698,-0.03225644305348396,2.312025785446167
326,46877,46875,-0.023241154849529266,-0.03098505549132824,1.0098750591278076,0.5682251453399658,0.02311263047158718,-2.5432469844818115,2.1132333278656006,4.156930446624756,0.3224262595176697,-0.191402405500412,-0.006670329254120588,2.3133718967437744
327,46887,46885,0.030296964570879936,-0.034064434468746185,0.9978018999099731,1.3255702257156372,0.07417235523462296,-2.974416494369507,2.1139986515045166,4.158045768737793,0.32464173436164856,-0.19724510610103607,-0.0632009208202362,2.282701015472412
328,46897,46895,-0.04749199375510216,0.08579005300998688,1.0190255641937256,1.8215603828430176,-0.07264049351215363,-3.1408884525299072,2.1146271228790283,4.157849311828613,0.3247378170490265,-0.1666366159915924,-0.018007047474384308,2.245391845703125
329,46907,46905,0.014316649176180363,-0.034229960292577744,0.9570232033729553,2.8862853050231934,-0.5346367955207825,-3.0788211822509766,2.116119384765625,4.157802104949951,0.3246998190879822,-0.2989881634712219,-0.037098098546266556,2.176938772201538
330,46917,46915,0.016598861664533615,-0.0689256563782692,0.9746448993682861,3.312974452972412,-1.5498512983322144,-2.8222997188568115,2.116495132446289,4.158464431762695,0.32474374771118164,-0.2632446885108948,-0.04044552147388458,2.131915807723999
331,46927,46925,0.0622931644320488,-0.06475859880447388,0.9667466878890991,3.720226764678955,-3.4820971488952637,-3.0104787349700928,2.116025924682617,4.157835006713867,0.32391655445098877,-0.1302666962146759,0.040299102663993835,2.1208419799804688
332,46937,46935,0.0801171138882637,-0.13570468127727509,0.9802253246307373,3.8193588256835938,-5.764076232910156,-2.4936821460723877,2.1174135208129883,4.157891273498535,0.32378920912742615,-0.18664079904556274,0.12745565176010132,2.0949807167053223
333,46947,46945,0.026535607874393463,-0.09947957843542099,1.028630256652832,3.5816943645477295,-4.806402206420898,-3.445037364959717,2.117755889892578,4.158838272094727,0.3238011598587036,-0.14625242352485657,0.1335529088973999,2.0840344429016113
334,46957,46955,0.025262562558054924,-0.03210980072617531,0.9561629891395569,3.433565616607666,-3.7297115325927734,-3.4450294971466064,2.118020534515381,4.159478664398193,0.3257933557033539,-0.05118836835026741,0.13769342005252838,2.037947177886963
335,46967,46965,0.027486443519592285,0.0017086344305425882,0.9486469030380249,4.544145584106445,-5.953785419464111,-3.161672592163086,2.1179511547088623,4.159393310546875,0.32591816782951355,0.11983431875705719,0.22593851387500763,2.000457525253296
336,46977,46975,-0.032276660203933716,0.058299608528614044,0.9561676979064941,4.309310436248779,-4.605985164642334,-1.9984116554260254,2.1188347339630127,4.159911155700684,0.32595881819725037,0.1631726175546646,0.25378352403640747,1.9902726411819458
337,46987,46985,0.07582055032253265,-0.09805291891098022,1.0019209384918213,3.667790651321411,-1.8193155527114868,-2.1071972846984863,2.120771884918213,4.160221576690674,0.32230740785598755,0.004811801481992006,0.2588613033294678,1.9604216814041138
338,46997,46995,-0.006829429883509874,-0.007252010051161051,1.0075435638427734,2.471578359603882,-0.8885594010353088,-1.4524589776992798,2.1222312450408936,4.160151481628418,0.32196512818336487,-0.020740730687975883,0.33528250455856323,1.940943717956543
339,47007,47005,0.031993139535188675,-0.09017843008041382,0.9661364555358887,1.090932846069336,1.5298057794570923,-0.9432799220085144,2.1219658851623535,4.1595778465271,0.3217693269252777,0.07981450110673904,0.38234734535217285,1.914257287979126
340,47017,47015,-0.002795018721371889,-0.019317464902997017,1.0075957775115967,-0.3050619065761566,1.2238452434539795,-0.6217232346534729,2.122446060180664,4.160940647125244,0.3215624988079071,0.15836890041828156,0.33122482895851135,1.935476303100586
341,47027,47025,0.008556482382118702,-0.05670277774333954,1.018548607826233,-0.7087830901145935,1.122955083847046,-0.25583192706108093,2.1234822273254395,4.161099910736084,0.31938713788986206,0.0581272691488266,0.2600211203098297,1.9112091064453125
342,47037,47035,0.008931317366659641,-0.04351033642888069,1.0006790161132812,0.35550835728645325,1.5199726819992065,0.3238771855831146,2.1231937408447266,4.161464214324951,0.3190445005893707,0.13851656019687653,0.27891016006469727,1.9150416851043701
343,47047,47045,-0.0029542231932282448,-0.0022210017777979374,0.9739035964012146,1.9239434003829956,-0.8142709732055664,0.8211864233016968,2.123901844024658,4.162191867828369,0.31863242387771606,0.13551390171051025,0.24226930737495422,1.9296209812164307
344,47057,47055,-0.013781541027128696,-0.09332363307476044,0.9868624210357666,3.81044864654541,2.5209298133850098,0.6298618316650391,2.1234471797943115,4.161749362945557,0.3158765733242035,0.23564501106739044,0.32708996534347534,1.921593189239502
345,47067,47065,-0.005886575672775507,-0.05795997753739357,0.9849267601966858,4.1713666915893555,3.6972248554229736,1.062462568283081,2.125761032104492,4.162259101867676,0.3152143955230713,0.043032482266426086,0.3391646146774292,1.9299882650375366
346,47077,47075,0.05550287663936615,-0.0920642539858818,0.9581659436225891,2.8843793869018555,4.353963851928711,2.3321659564971924,2.1262500286102295,4.1623640060424805,0.31460145115852356,-0.028728710487484932,0.3409544825553894,1.94287109375
347,47087,47085,0.015141930431127548,-0.13359540700912476,1.050010085105896,2.4315035343170166,2.892057418823242,2.316011667251587,2.126509428024292,4.1636528968811035,0.31699833273887634,0.011107636615633965,0.3363344967365265,1.9913067817687988
348,47097,47095,0.04797700047492981,-0.02745194546878338,0.9437024593353271,2.2409255504608154,2.2462878227233887,2.1155898571014404,2.125849723815918,4.162662982940674,0.3165852725505829,0.028284935280680656,0.41515815258026123,1.988912582397461
349,47107,47105,-0.0103386165574193,0.06300212442874908,0.983775794506073,2.5414795875549316,-0.6739233732223511,2.2620584964752197,2.1278014183044434,4.163191318511963,0.3160264194011688,-0.13447293639183044,0.40017834305763245,1.9930459260940552
350,47117,47115,-0.031225645914673805,0.015010709874331951,0.9996422529220581,0.700465738773346,1.6216163635253906,2.5172226428985596,2.1285288333892822,4.162542343139648,0.31570684909820557,-0.04715671017765999,0.452297568321228,1.9882079362869263
351,47127,47125,-0.004665431100875139,-0.13120907545089722,1.0468605756759644,0.43739351630210876,-1.3309146165847778,2.8627114295959473,2.130180597305298,4.162132740020752,0.3144087493419647,-0.11948078870773315,0.48183971643447876,1.986764669418335
352,47137,47135,0.0005381800583563745,-0.1876489669084549,1.0261509418487549,0.9944152235984802,-1.9998183250427246,3.3218002319335938,2.1300761699676514,4.162252426147461,0.31399109959602356,0.016368040814995766,0.5134391784667969,2.015474557876587
353,47147,47145,0.07229302078485489,-0.06429412215948105,0.9677252173423767,0.7429407835006714,-3.5984232425689697,3.8366074562072754,2.1302125453948975,4.161905288696289,0.3135937452316284,0.1379871964454651,0.5420765280723572,2.054624080657959
354,47157,47155,0.04270416498184204,-0.0686323344707489,1.0076411962509155,-1.3472551107406616,-0.4443412125110626,3.1068477630615234,2.1333072185516357,4.161631107330322,0.3133504092693329,-0.05524776875972748,0.5451237559318542,2.0592708587646484
355,47167,47165,0.005724603310227394,0.0320761576294899,1.0513794422149658,-2.2282352447509766,0.007949136197566986,3.392883539199829,2.134216070175171,4.162373065948486,0.31290510296821594,-0.02876771055161953,0.4473296105861664,2.093967914581299
356,47177,47175,0.021090567111968994,-0.02904905192553997,1.0167269706726074,-1.681269645690918,0.16593621671199799,4.136965274810791,2.1350347995758057,4.162497043609619,0.3124571740627289,-0.005232802592217922,0.4307931959629059,2.123246669769287
357,47187,47185,0.08192998170852661,-0.07674988359212875,1.0470439195632935,0.11680824309587479,-0.5655255317687988,3.0049901008605957,2.137197732925415,4.162743091583252,0.3115777373313904,-0.14940011501312256,0.42801931500434875,2.1641335487365723
358,47197,47195,0.10154366493225098,-0.12070398032665253,1.020578145980835,1.4162609577178955,-1.4369901418685913,2.66696834564209,2.1367030143737793,4.162662029266357,0.3112902343273163,-0.03195049986243248,0.4555434584617615,2.200493812561035
359,47207,47205,0.026296930387616158,-0.09371548891067505,1.0265322923660278,2.169506788253784,-1.9233267307281494,2.2055273056030273,2.1374940872192383,4.16273307800293,0.31091901659965515,0.013167186640202999,0.49999046325683594,2.2303097248077393
360,47217,47215,-0.0340602733194828,0.029410716146230698,0.9820600152015686,2.120520830154419,-3.138873815536499,2.4306507110595703,2.1380183696746826,4.162428379058838,0.31056952476501465,0.08320103585720062,0.5505181550979614,2.2541821002960205
361,47227,47225,-0.04585050418972969,0.018575850874185562,0.9977471232414246,1.492910385131836,-2.531249761581421,1.304612159729004,2.137282371520996,4.162073612213135,0.3104230463504791,0.2230360060930252,0.5866188406944275,2.260077953338623
362,47237,47235,-0.005654222797602415,-0.05594196543097496,0.9931095838546753,-1.108498454093933,-0.79505854845047,1.775162696838379,2.1387581825256348,4.163907051086426,0.3100718855857849,0.18537269532680511,0.5193952918052673,2.308826208114624
363,47247,47245,0.030806349590420723,-0.08736679702997208,0.9973418712615967,-2.7286412715911865,0.87967449426651,1.3038790225982666,2.138824701309204,4.1639838218688965,0.30979833006858826,0.25504928827285767,0.486371248960495,2.3449156284332275
364,47257,47255,0.03206805884838104,-0.12270381301641464,1.0710848569869995,-3.7173237800598145,3.694385528564453,0.9550385475158691,2.139861822128296,4.163682460784912,0.30890604853630066,0.16173508763313293,0.43994858860969543,2.3348398208618164
365,47267,47265,0.03854578360915184,-0.0976547971367836,0.999391496181488,-2.990895986557007,5.21425724029541,0.5206620097160339,2.1403324604034424,4.163885593414307,0.3085814416408539,0.17419768869876862,0.385969877243042,2.3466849327087402
366,47277,47275,-0.0012422772124409676,-0.05706648901104927,0.9783312082290649,-2.7358438968658447,7.249413967132568,1.357700228691101,2.1414859294891357,4.163726329803467,0.3081618845462799,-0.022642480209469795,0.35049623250961304,2.3258867263793945
367,47287,47285,0.0691874548792839,-0.16271057724952698,1.0222558975219727,-0.5050575733184814,5.674481391906738,1.1616421937942505,2.1421146392822266,4.163718223571777,0.309581458568573,-0.05656152218580246,0.40149882435798645,2.346421241760254
368,47297,47295,-0.01662886142730713,0.000548715703189373,1.0538221597671509,0.5180084705352783,5.395675182342529,1.052363395690918,2.1433939933776855,4.163185119628906,0.3092587888240814,-0.21542587876319885,0.40317490696907043,2.3609859943389893
369,47307,47305,-0.0031149908900260925,0.0002321432693861425,1.026213526725769,1.8624478578567505,0.9840396046638489,1.9342303276062012,2.145707368850708,4.1633381843566895,0.3089306056499481,-0.3604537546634674,0.4274808168411255,2.354039192199707
370,47317,47315,0.016828514635562897,-0.07979103922843933,0.9855549335479736,1.670596718788147,-4.124624729156494,3.1732921600341797,2.1462764739990234,4.163197994232178,0.3096005916595459,-0.24342648684978485,0.4544024169445038,2.373560667037964
371,47327,47325,0.017567569389939308,-0.11857669055461884,1.0731674432754517,2.788961410522461,-9.593822479248047,2.960965394973755,2.147718667984009,4.163133144378662,0.3093985319137573,-0.2544950544834137,0.4845600128173828,2.3966000080108643
372,47337,47335,0.012984994798898697,-0.14483873546123505,1.0341320037841797,2.5530455112457275,-9.360323905944824,2.815187454223633,2.1475751399993896,4.162677764892578,0.3095022439956665,-0.06880468130111694,0.5033645629882812,2.4082014560699463
373,47347,47345,0.03857658803462982,-0.031224394217133522,0.9229726791381836,-0.865473747253418,-7.103477478027344,2.934636116027832,2.147819995880127,4.162434101104736,0.30949124693870544,0.17876407504081726,0.5501192808151245,2.469316244125366
374,47357,47355,-0.018315346911549568,0.003772767260670662,0.9935021996498108,-3.1365010738372803,-4.856881141662598,3.175863027572632,2.1493313312530518,4.1621294021606445,0.3078345060348511,0.07108773291110992,0.5311964154243469,2.4441208839416504
375,47367,47365,-0.044965460896492004,-0.06793642789125443,1.0505292415618896,-4.544151782989502,-2.1001200675964355,3.6984987258911133,2.1489903926849365,4.162336826324463,0.307754784822464,0.2570556104183197,0.47416284680366516,2.4843971729278564
376,47377,47375,-0.07191247493028641,0.0706130787730217,1.0016041994094849,-6.270663738250732,4.39671516418457,3.8936221599578857,2.1494410037994385,4.161087989807129,0.3075602352619171,0.22887298464775085,0.4232211112976074,2.5136303901672363
377,47387,47385,-0.03552934527397156,0.008416074328124523,1.0120468139648438,-7.026723861694336,7.7129130363464355,3.474731683731079,2.149873733520508,4.161838531494141,0.3096824288368225,0.20510825514793396,0.29593363404273987,2.551401138305664
378,47397,47395,0.024603083729743958,-0.019489740952849388,1.0106325149536133,-6.321314334869385,10.071340560913086,2.6560797691345215,2.1512467861175537,4.161657333374023,0.3096277713775635,0.07409880310297012,0.24179469048976898,2.523505449295044
379,47407,47405,0.06603376567363739,-0.13500121235847473,1.0159541368484497,-5.175607204437256,9.648835182189941,2.231698513031006,2.152113914489746,4.161750793457031,0.3096442222595215,-0.1296563595533371,0.14546538889408112,2.5943050384521484
380,47417,47415,0.0002595932164695114,-0.020644545555114746,1.0106929540634155,-2.2822024822235107,9.518157958984375,1.7968512773513794,2.1528635025024414,4.160696506500244,0.3101354241371155,-0.10429524630308151,0.26195746660232544,2.6192848682403564
381,47427,47425,-0.0006114844582043588,0.06691394001245499,1.035881757736206,0.08568491786718369,2.430466651916504,1.150925636291504,2.1528682708740234,4.1610283851623535,0.31022894382476807,-0.2366412878036499,0.18800856173038483,2.641556739807129
382,47437,47435,-0.009256875142455101,-0.020487410947680473,1.0300843715667725,1.1596720218658447,-1.2596708536148071,0.28488436341285706,2.153977632522583,4.161762237548828,0.3103441596031189,-0.23484618961811066,0.17743781208992004,2.6783671379089355
383,47447,47445,0.05437692999839783,-0.15404081344604492,0.9642177224159241,0.3824794590473175,-4.082590103149414,0.6349340081214905,2.1534676551818848,4.160704135894775,0.31057438254356384,-0.13730135560035706,0.17571569979190826,2.637453317642212
384,47457,47455,0.017389263957738876,-0.04322117939591408,1.006365180015564,0.23811735212802887,-7.476419448852539,1.7071834802627563,2.154092788696289,4.160022735595703,0.31261345744132996,-0.07248051464557648,0.24397778511047363,2.624481439590454
385,47467,47465,0.08546542376279831,-0.1465335488319397,0.9971962571144104,-1.4891021251678467,-4.142794609069824,0.4258243441581726,2.1541333198547363,4.15952205657959,0.3128868043422699,0.022072575986385345,0.2232408970594406,2.6275086402893066
386,47477,47475,-0.018512139096856117,-0.02593519166111946,0.9961457848548889,-1.0968421697616577,-1.3269319534301758,0.20230355858802795,2.1568517684936523,4.159431457519531,0.31308940052986145,-0.13353194296360016,0.18715770542621613,2.621500015258789
387,47487,47485,-0.01789774000644684,0.005701169371604919,1.003406047821045,-1.9831132888793945,1.5021998882293701,-0.4138749837875366,2.1570475101470947,4.159461498260498,0.31258469820022583,-0.012691446579992771,0.15389589965343475,2.623741626739502
388,47497,47495,0.036593783646821976,-0.07583661377429962,0.9395122528076172,-3.193305492401123,3.4404070377349854,-0.8336133360862732,2.156953811645508,4.159491539001465,0.31287214159965515,0.039568401873111725,0.18144692480564117,2.66267466545105
389,47507,47505,-0.07219269126653671,0.0768938958644867,0.9970741271972656,-1.9951777458190918,6.468775272369385,-2.069551706314087,2.158140182495117,4.158615589141846,0.3130430281162262,-0.0587971992790699,0.1618950515985489,2.613680362701416
390,47517,47515,-0.10828549414873123,0.11111300438642502,0.9594975113868713,-4.660916805267334,8.772604942321777,-1.6247354745864868,2.15879487991333,4.159059047698975,0.3128293454647064,-0.030559426173567772,0.1214522272348404,2.634800434112549
391,47527,47525,0.005681281443685293,-0.049850545823574066,0.9336276054382324,-3.7933189868927,10.774219512939453,-1.393288016319275,2.159332275390625,4.1594648361206055,0.31294846534729004,-0.17436982691287994,0.004735760856419802,2.604671001434326
392,47537,47535,0.12011317163705826,-0.1675601452589035,1.015199065208435,-3.861560106277466,6.22932243347168,-1.5026500225067139,2.160728693008423,4.159623146057129,0.3129591643810272,-0.33979061245918274,-0.0952078327536583,2.5800561904907227
393,47547,47545,0.10614562779664993,-0.18996238708496094,0.9888206720352173,-1.2624529600143433,5.18194055557251,-2.276175022125244,2.161153554916382,4.159430503845215,0.313020259141922,-0.2910734713077545,-0.12136823683977127,2.558300018310547
394,47557,47555,0.010895841754972935,-0.013358227908611298,1.003469705581665,1.6200969219207764,3.9151859283447266,-2.7298669815063477,2.161647081375122,4.158651351928711,0.31273066997528076,-0.3471308946609497,-0.07686759531497955,2.492954969406128
395,47567,47565,0.017558636143803596,0.10689791291952133,0.9973353147506714,3.9524459838867188,1.9094959497451782,-2.904362678527832,2.1622462272644043,4.157937049865723,0.3127365708351135,-0.380263090133667,-0.06922680139541626,2.4935948848724365
396,47577,47575,0.05183663219213486,0.0321391224861145,0.8989518880844116,4.960882663726807,2.3196144104003906,-3.4981255531311035,2.163895606994629,4.157557964324951,0.31266170740127563,-0.5041438937187195,-0.0218708124011755,2.455556869506836
397,47587,47585,-0.08389127999544144,0.010603784583508968,1.0220657587051392,3.531177520751953,-0.0797872543334961,-4.522341251373291,2.1638827323913574,4.157615661621094,0.31531384587287903,-0.4284486174583435,0.03978637978434563,2.442986488342285
398,47597,47595,-0.004795367829501629,-0.023697564378380775,0.9844613671302795,2.01336407661438,-0.5057098269462585,-4.54959774017334,2.1636929512023926,4.156741142272949,0.31546342372894287,-0.34487801790237427,0.08432610332965851,2.3679051399230957
399,47607,47605,0.012048741802573204,0.03424707427620888,0.9522896409034729,-2.3223612308502197,0.5997269749641418,-4.08050012588501,2.1637260913848877,4.1564249992370605,0.3156132996082306,-0.2853471040725708,0.09138062596321106,2.275965452194214
400,47617,47615,-0.08736003190279007,0.08082077652215958,0.9786624312400818,-4.4902448654174805,-0.5255674719810486,-4.267474174499512,2.164618492126465,4.1561055183410645,0.31441837549209595,-0.3885406255722046,0.04045671969652176,2.2341203689575195
401,47627,47625,-0.02998156100511551,-0.019101062789559364,0.9311820268630981,-7.12437105178833,2.0066545009613037,-3.963162660598755,2.165128231048584,4.155424118041992,0.3143920302391052,-0.39842405915260315,0.021452104672789574,2.1693832874298096
402,47637,47635,-0.04775223135948181,0.03352655470371246,0.9755061268806458,-7.12775993347168,2.0356783866882324,-4.6382551193237305,2.167356491088867,4.1566901206970215,0.3141864538192749,-0.5920457243919373,-0.11621862649917603,2.2028605937957764
403,47647,47645,-0.0638950914144516,-0.033834315836429596,0.9532743096351624,-5.774744510650635,3.1328721046447754,-4.769960880279541,2.1675302982330322,4.157233715057373,0.3163260221481323,-0.6193851828575134,-0.2486146241426468,2.133608341217041
404,47657,47655,0.019651753827929497,-0.037220247089862823,0.9427822232246399,-3.5085253715515137,3.100046157836914,-5.000844478607178,2.168053388595581,4.157871723175049,0.31629887223243713,-0.6532641053199768,-0.26895758509635925,2.150347948074341
405,47667,47665,-0.05000728368759155,0.02297779731452465,1.0351738929748535,3.3464863300323486,-0.27508345246315,-5.790413856506348,2.167696237564087,4.156722545623779,0.31638097763061523,-0.5709605813026428,-0.23692120611667633,2.0768260955810547
406,47677,47675,0.0006038752617314458,-0.014105790294706821,0.9500459432601929,6.113150119781494,-0.32008135318756104,-5.558829307556152,2.1682794094085693,4.156334400177002,0.31636613607406616,-0.5485358238220215,-0.20406079292297363,2.0083751678466797
407,47687,47685,0.028300980105996132,-0.045658178627491,0.9579986929893494,7.896132469177246,-1.1760541200637817,-5.447845458984375,2.170010566711426,4.15671443939209,0.31579017639160156,-0.6060065031051636,-0.11246615648269653,2.0224084854125977
408,47697,47695,-0.008207995444536209,0.014861186034977436,0.98982834815979,5.656292915344238,-1.3063493967056274,-5.859259605407715,2.1704375743865967,4.156682014465332,0.31564661860466003,-0.5724488496780396,-0.0038273821119219065,1.954187273979187
409,47707,47705,-0.06992596387863159,0.012966099195182323,1.0166277885437012,3.7750425338745117,-5.647026538848877,-6.493345737457275,2.1702377796173096,4.1573591232299805,0.31561514735221863,-0.41945159435272217,0.01176726259291172,1.9190738201141357
410,47717,47715,-0.14316833019256592,0.17083382606506348,0.9799519777297974,-0.8671086430549622,-0.1057242825627327,-5.8070549964904785,2.1694464683532715,4.156650066375732,0.3153524398803711,-0.26948297023773193,0.05611748620867729,1.8428099155426025
411,47727,47725,-0.040289293974637985,0.08517520129680634,0.9706372022628784,-4.553316116333008,3.864454746246338,-5.834486961364746,2.170560836791992,4.156937599182129,0.3151608109474182,-0.3516713082790375,0.026831572875380516,1.7594658136367798
412,47737,47735,0.06452320516109467,-0.04309182986617088,0.9534056186676025,-6.516775131225586,6.942849159240723,-5.750820636749268,2.171942949295044,4.157288551330566,0.31494003534317017,-0.4041207432746887,-0.054685454815626144,1.7147353887557983
413,47747,47745,-0.030973654240369797,0.07552678883075714,0.9698299765586853,-6.814285755157471,6.690304279327393,-6.073904037475586,2.172715663909912,4.157261371612549,0.31477057933807373,-0.5077486634254456,-0.16907314956188202,1.622853398323059
414,47757,47755,-0.009878060780465603,0.012563065625727177,0.9131598472595215,-4.14569616317749,8.830667495727539,-5.602795124053955,2.173576593399048,4.157674312591553,0.31453999876976013,-0.5343071222305298,-0.20404209196567535,1.6108436584472656
415,47767,47765,-0.011504217982292175,0.04093259200453758,1.0122982263565063,1.6717581748962402,4.512535095214844,-5.175951957702637,2.173464298248291,4.157179832458496,0.3142401874065399,-0.5831883549690247,-0.27658528089523315,1.5566799640655518
416,47777,47775,0.028352292254567146,-0.05105018615722656,0.9803775548934937,4.575780868530273,2.296522617340088,-4.7047648429870605,2.1758034229278564,4.158003330230713,0.31383785605430603,-0.7289458513259888,-0.25193092226982117,1.5177009105682373
417,47787,47785,0.07388750463724136,-0.2478688508272171,1.0416572093963623,7.4957356452941895,-3.5376429557800293,-5.438857078552246,2.178361654281616,4.157850742340088,0.3120000958442688,-0.8920257687568665,-0.16544392704963684,1.4920902252197266
418,47797,47795,0.038856279104948044,-0.004587347619235516,0.954563319683075,6.990386486053467,-7.303589344024658,-6.787757396697998,2.179704427719116,4.156545639038086,0.3115112781524658,-0.8939918875694275,0.03108694776892662,1.4285815954208374
419,47807,47805,-0.041086215525865555,0.06204334273934364,1.0328307151794434,3.686969757080078,-9.433884620666504,-6.580106258392334,2.1807808876037598,4.156184673309326,0.31105729937553406,-0.8216469287872314,0.12474513798952103,1.3641802072525024
420,47817,47815,0.02273830585181713,-0.017268164083361626,0.957761824131012,-0.9520814418792725,-12.04196834564209,-5.715397357940674,2.1806375980377197,4.157350540161133,0.30915582180023193,-0.6206367611885071,0.006518261972814798,1.2776137590408325
421,47827,47825,-0.024712763726711273,0.01737779565155506,1.0014524459838867,-6.1413893699646,-9.643038749694824,-6.20740270614624,2.1802473068237305,4.1572771072387695,0.30869123339653015,-0.4019920825958252,-0.020716773346066475,1.1994658708572388
422,47837,47835,0.033578887581825256,-0.12044651806354523,0.9598755240440369,-8.334943771362305,-7.05718469619751,-5.773787975311279,2.1817786693573,4.157247066497803,0.30803725123405457,-0.37220048904418945,-0.11844974756240845,1.134242057800293
423,47847,47845,-0.010697012767195702,0.03831023722887039,1.043808102607727,-7.689866065979004,-5.7743096351623535,-5.074187278747559,2.1824991703033447,4.156383037567139,0.3103015720844269,-0.30115213990211487,-0.09759265929460526,1.0586841106414795
424,47857,47855,0.020910754799842834,-0.04600535333156586,1.013917088508606,-4.963043689727783,-0.7652679085731506,-4.374661922454834,2.183535575866699,4.157760143280029,0.3099013864994049,-0.21244250237941742,-0.23907285928726196,1.067775845527649
425,47867,47865,-0.043942518532276154,-0.005029839463531971,0.9540120959281921,-2.9943196773529053,1.2959942817687988,-4.538845539093018,2.1860361099243164,4.155916213989258,0.30934977531433105,-0.4139088988304138,-0.1711767315864563,0.9835951328277588
426,47877,47875,0.037547070533037186,-0.0407261997461319,0.9607571363449097,1.527357816696167,5.172990322113037,-5.119909763336182,2.1869020462036133,4.156159400939941,0.30911439657211304,-0.3069687783718109,-0.144938126206398,0.9545057415962219
427,47887,47885,0.019280441105365753,0.026624344289302826,0.9741058945655823,2.642022132873535,-0.3645116984844208,-3.971637725830078,2.1867098808288574,4.15472412109375,0.30999407172203064,-0.3098508417606354,-0.14594578742980957,0.8797093629837036
428,47897,47895,0.03795461729168892,-0.005725085735321045,0.9494361877441406,3.109051465988159,-3.387174606323242,-3.2600977420806885,2.1879374980926514,4.156101226806641,0.3095577359199524,-0.3673970401287079,-0.19357319176197052,0.8828226327896118
429,47907,47905,0.026143837720155716,-0.024741459637880325,1.0024983882904053,1.2995256185531616,-6.55239200592041,-3.5481183528900146,2.187715768814087,4.155401229858398,0.3091220259666443,-0.28113460540771484,-0.15586458146572113,0.8224514126777649
430,47917,47915,-0.03768959268927574,-0.08463052660226822,1.0985702276229858,-1.3522294759750366,-9.199823379516602,-3.32524037361145,2.189035415649414,4.155167102813721,0.3090773820877075,-0.29027092456817627,-0.15794558823108673,0.771340548992157
431,47927,47925,-0.022522535175085068,-0.00348242511972785,1.0593287944793701,-3.375131368637085,-7.485958099365234,-2.5503461360931396,2.188768148422241,4.154865264892578,0.3087213933467865,-0.10652077943086624,-0.19794531166553497,0.7105255722999573
432,47937,47935,0.024593260139226913,-0.05824252963066101,0.9961950778961182,-3.003647565841675,-7.4545392990112305,-3.0159969329833984,2.189819812774658,4.155087471008301,0.3083890378475189,-0.017659742385149002,-0.25461822748184204,0.6992853879928589
433,47947,47945,0.012001588940620422,0.1206573024392128,1.0481693744659424,-0.9069693088531494,-5.549190044403076,-3.7215397357940674,2.1901748180389404,4.154937267303467,0.3066195547580719,-0.034481149166822433,-0.30054429173469543,0.6523045897483826
434,47957,47955,-0.015846537426114082,0.013531981036067009,1.0288763046264648,1.9968169927597046,-3.1760401725769043,-4.046407699584961,2.190307140350342,4.155168056488037,0.3062792718410492,0.07844235002994537,-0.31193140149116516,0.6349165439605713
435,47967,47965,-0.03844110295176506,0.0233982615172863,1.0408077239990234,4.444437026977539,-1.040995478630066,-4.699155807495117,2.1920278072357178,4.153936386108398,0.3058525621891022,0.0010856401640921831,-0.2772247791290283,0.5357099175453186
436,47977,47975,-0.03763537108898163,-0.03499767556786537,1.0223044157028198,3.1808125972747803,0.06112866848707199,-4.956265926361084,2.1928422451019287,4.156517028808594,0.3060673177242279,0.04758767411112785,-0.3653699457645416,0.5558413863182068
437,47987,47985,-0.017132151871919632,0.059025838971138,1.0208090543746948,-0.6036551594734192,1.2907426357269287,-6.782643795013428,2.1927263736724854,4.15602970123291,0.3059399127960205,0.14995208382606506,-0.3072623908519745,0.5002323389053345
438,47997,47995,-0.0019762071315199137,-0.020378021523356438,1.0037717819213867,-0.5684130787849426,0.48782140016555786,-6.2767462730407715,2.1931045055389404,4.155722618103027,0.3057466745376587,0.15267693996429443,-0.29360708594322205,0.408595472574234
439,48007,48005,0.016539346426725388,-0.05188945308327675,0.9728446006774902,2.6167943477630615,-0.46213656663894653,-5.185018062591553,2.1938586235046387,4.154812335968018,0.3055996298789978,0.1688467413187027,-0.20343564450740814,0.33047008514404297
440,48017,48015,0.009224284440279007,-0.01213139109313488,1.0112513303756714,5.488667011260986,3.235459327697754,-4.043675899505615,2.194094181060791,4.154716968536377,0.30241280794143677,0.17667536437511444,-0.23055702447891235,0.24162454903125763
441,48027,48025,-0.027333131060004234,-0.019832327961921692,1.019714593887329,5.022688865661621,6.476324558258057,-2.5295522212982178,2.1949753761291504,4.154192924499512,0.30200764536857605,0.1302161067724228,-0.13615693151950836,0.1822657287120819
442,48037,48035,0.013752546161413193,-0.01610327512025833,0.9857675433158875,5.238491058349609,8.10952377319336,-1.8179548978805542,2.1958887577056885,4.153114318847656,0.3015894591808319,0.036665014922618866,-0.04735172167420387,0.15434888005256653
443,48047,48045,-0.026718005537986755,-0.011277258396148682,1.0029352903366089,6.300612926483154,8.524251937866211,-0.7128841876983643,2.196619749069214,4.153415203094482,0.3036516010761261,-0.004838671535253525,-0.032047372311353683,0.11349387466907501
444,48057,48055,-0.00700422702357173,-0.014308776706457138,1.0173040628433228,6.8321146965026855,7.854352951049805,1.4292594194412231,2.1972782611846924,4.153463840484619,0.30346834659576416,-0.05354161933064461,0.0023564817383885384,0.08840852975845337
445,48067,48065,0.06146164983510971,-0.016392208635807037,0.9180444478988647,7.984272003173828,5.799168109893799,3.5093352794647217,2.1978747844696045,4.1534504890441895,0.3033064007759094,-0.0979047417640686,0.05690249055624008,0.08381490409374237
446,48077,48075,-0.03986756503582001,-0.0019036057638004422,1.0100587606430054,7.42500114440918,1.4067199230194092,3.9411237239837646,2.199432849884033,4.153370380401611,0.3050117790699005,-0.24681976437568665,0.19707275927066803,0.14384986460208893
447,48087,48085,0.04751626402139664,-0.07064312696456909,0.9977293014526367,3.360766649246216,-2.8705620765686035,4.167377948760986,2.2002406120300293,4.15336275100708,0.3048912584781647,-0.2526368200778961,0.23402275145053864,0.15648148953914642
448,48097,48095,-0.010568300262093544,-0.049985915422439575,0.9542216062545776,-4.698660850524902,-8.028141021728516,4.524813175201416,2.200317144393921,4.1530890464782715,0.30490806698799133,-0.10563772171735764,0.2811514139175415,0.17603422701358795
449,48107,48105,-0.007604798302054405,0.007393828593194485,1.0126317739486694,-10.105401992797852,-10.324992179870605,5.168160915374756,2.2019402980804443,4.153445243835449,0.30469080805778503,-0.10488289594650269,0.19591933488845825,0.21836455166339874
450,48117,48115,0.012843153439462185,0.0167173333466053,1.0147616863250732,-10.979323387145996,-10.174283981323242,5.725924015045166,2.202859401702881,4.154153823852539,0.3071429133415222,0.0056135873310267925,0.03408324718475342,0.27174273133277893
451,48127,48125,-0.03152730315923691,0.07739166915416718,1.0490750074386597,-13.163135528564453,-8.364052772521973,5.1650190353393555,2.204418897628784,4.152917861938477,0.3070981204509735,0.04466385021805763,0.0077634840272367,0.283697247505188
452,48137,48135,-0.012975520454347134,0.10169713199138641,0.956671953201294,-13.149192810058594,-5.069265842437744,4.9952263832092285,2.2048192024230957,4.154009819030762,0.3071458339691162,0.1814788430929184,-0.20828211307525635,0.3688795268535614
453,48147,48145,-0.04651964083313942,0.02471897564828396,1.0749446153640747,-10.376421928405762,-1.411219835281372,4.295502185821533,2.205716848373413,4.153496265411377,0.3102884888648987,0.21484431624412537,-0.26036468148231506,0.4025987982749939
454,48157,48155,0.0014453965704888105,-0.007564910687506199,1.0906031131744385,-4.817495346069336,3.0749013423919678,3.898922920227051,2.206211566925049,4.15398645401001,0.3105839490890503,0.3086789846420288,-0.3318127691745758,0.4872792661190033
455,48167,48165,-0.009957077912986279,0.015198053792119026,1.0488488674163818,0.8426613211631775,6.492062568664551,3.5455126762390137,2.207390546798706,4.15432071685791,0.3108755648136139,0.19004711508750916,-0.38751712441444397,0.5494480133056641
456,48177,48175,-0.058939896523952484,0.05753083527088165,0.9876732230186462,3.016406536102295,8.728941917419434,2.818389415740967,2.2090463638305664,4.155383110046387,0.31045085191726685,0.08437690138816833,-0.36014196276664734,0.6577059030532837
457,48187,48185,-0.010829828679561615,0.003562979167327285,0.9565357565879822,3.2001006603240967,5.449123382568359,1.6185925006866455,2.2089426517486572,4.154507160186768,0.3108559250831604,0.05502215772867203,-0.3052525818347931,0.6743009686470032
458,48197,48195,-0.031234050169587135,0.0630546435713768,0.9917368292808533,2.365482807159424,0.19189774990081787,0.6318234801292419,2.2088491916656494,4.155568599700928,0.3112812340259552,0.07106611877679825,-0.25859707593917847,0.7293944954872131
459,48207,48205,-0.009609470143914223,0.03238486871123314,1.0391813516616821,-0.18836228549480438,-5.276983261108398,-0.5280464291572571,2.2101235389709473,4.156400680541992,0.3069663643836975,0.042172499001026154,-0.31171855330467224,0.7499842643737793
460,48217,48215,-0.0034731635823845863,-0.03331969305872917,1.0382816791534424,-3.962831497192383,-8.291214942932129,-0.8948767185211182,2.2090389728546143,4.156154632568359,0.30711573362350464,0.24677535891532898,-0.3259509205818176,0.7170203328132629
461,48227,48225,0.03881411254405975,-0.16746047139167786,1.0073060989379883,-5.72873067855835,-7.933931350708008,-1.1914170980453491,2.2109246253967285,4.155971050262451,0.30713242292404175,0.1612483710050583,-0.3155673146247864,0.7184589505195618
462,48237,48235,-0.02765566110610962,0.030177637934684753,0.9963876008987427,-6.697742938995361,-3.5874311923980713,-2.366151809692383,2.210479974746704,4.156188488006592,0.3073103427886963,0.3490702509880066,-0.41994568705558777,0.690723180770874
463,48247,48245,0.02281973883509636,0.018457619473338127,0.89975506067276,-4.576650619506836,-0.14980857074260712,-3.5236501693725586,2.2104313373565674,4.1567158699035645,0.30327168107032776,0.2935696244239807,-0.5229485630989075,0.6689385771751404
464,48257,48255,-0.005300702527165413,-0.005151820369064808,0.9613601565361023,-1.3456099033355713,3.566309690475464,-4.962230682373047,2.210089683532715,4.15563440322876,0.30307263135910034,0.35734596848487854,-0.56557297706604,0.6039407849311829
465,48267,48265,-0.008584068156778812,-0.04092219099402428,0.9634247422218323,1.7886077165603638,6.73903226852417,-5.366876602172852,2.2110304832458496,4.1563239097595215,0.3026842474937439,0.18457473814487457,-0.6236345767974854,0.5346397757530212
466,48277,48275,0.04015740379691124,-0.04048212990164757,0.9805181622505188,4.379848957061768,8.106271743774414,-5.961036205291748,2.21077823638916,4.1557745933532715,0.3006577789783478,0.11683712899684906,-0.5569915175437927,0.4544324576854706
467,48287,48285,0.0348418690264225,-0.014027103781700134,0.9685302972793579,5.323740005493164,8.798344612121582,-5.490846633911133,2.2110188007354736,4.155877590179443,0.30018365383148193,0.06385213136672974,-0.5994734764099121,0.33905383944511414
468,48297,48295,0.001931075006723404,-0.016008779406547546,0.9878673553466797,6.278288841247559,7.764481067657471,-5.247488498687744,2.2099521160125732,4.156266689300537,0.2996784448623657,0.00861622765660286,-0.46949127316474915,0.3170107901096344
469,48307,48305,-0.02387862652540207,-0.10272905975580215,1.0061057806015015,6.758759498596191,5.096205234527588,-5.920415878295898,2.2097911834716797,4.155026435852051,0.2972698509693146,-0.015394947491586208,-0.3336978256702423,0.26462844014167786
470,48317,48315,-0.0005144977476447821,-0.020567888393998146,0.9883056282997131,3.5605108737945557,4.8231329917907715,-5.730703353881836,2.209425687789917,4.155603408813477,0.29670193791389465,-0.016219373792409897,-0.30902788043022156,0.20209401845932007
471,48327,48325,-0.014200094155967236,0.0810895785689354,0.9748741388320923,1.1171289682388306,6.515008926391602,-5.400437831878662,2.209608316421509,4.155247211456299,0.2961158752441406,-0.04387721046805382,-0.24032269418239594,0.11338784545660019
472,48337,48335,-0.004143587779253721,0.04427323117852211,1.002608299255371,-2.2065768241882324,8.702631950378418,-3.6340622901916504,2.209644317626953,4.155579090118408,0.2955235242843628,-0.10703057795763016,-0.315468966960907,0.03702620044350624
473,48347,48345,-0.0061064912006258965,-0.0729740783572197,0.9858152270317078,-3.820779800415039,11.706981658935547,-3.375701904296875,2.2105793952941895,4.15697717666626,0.2932312786579132,-0.20048415660858154,-0.3454042077064514,0.05574493855237961
474,48357,48355,0.011001032777130604,-0.0016650467878207564,1.000456690788269,-1.5601732730865479,13.43074893951416,-3.210869312286377,2.210925817489624,4.156426429748535,0.2924991846084595,-0.34313181042671204,-0.36906296014785767,-0.0007858416065573692
475,48367,48365,-0.022827647626399994,-0.019854392856359482,1.0315464735031128,2.3208792209625244,14.55977725982666,-2.762810468673706,2.2120323181152344,4.155542373657227,0.2917667627334595,-0.5136858820915222,-0.34669384360313416,-0.11161944270133972
476,48377,48375,0.03326219692826271,0.055707596242427826,0.9505400061607361,8.396533966064453,13.077515602111816,-1.2480581998825073,2.211968183517456,4.155126094818115,0.29618173837661743,-0.6136474609375,-0.23059992492198944,-0.12907743453979492
477,48387,48385,0.010958387516438961,0.11601477116346359,1.0257247686386108,13.305230140686035,12.130155563354492,0.5485572218894958,2.2135207653045654,4.154455661773682,0.2957102358341217,-0.8459725379943848,-0.027789589017629623,-0.12919791042804718
478,48397,48395,0.008977677673101425,-0.018362702801823616,0.994981050491333,14.113243103027344,11.852032661437988,2.8027780055999756,2.213524341583252,4.154958724975586,0.2953992486000061,-0.8850529789924622,0.058936577290296555,-0.11981505155563354
479,48407,48405,0.007828210480511189,-0.025826403871178627,0.9989689588546753,11.665377616882324,7.20245885848999,4.929628372192383,2.213941812515259,4.155196189880371,0.2955438196659088,-0.9785332083702087,0.2172727733850479,-0.06022320315241814
