,timestamp_start,timestamp_end,acc.x,acc.y,acc.z,gyro.x,gyro.y,gyro.z,stateEstimate.x,stateEstimate.y,stateEstimate.z,stabilizer.pitch,stabilizer.roll,stabilizer.yaw
0,54786,54785,0.0066489959,-0.0088026803,1.0816085339,4.310500145,-2.4260444641,-2.2747523785,1.9485069513,3.9300098419,0.1610201001,1.3408733606,0.5298581719,2.8434450626
1,54796,54795,0.0157937724,-0.0180084966,1.076318264,1.4804648161,-1.6061322689,-2.2315149307,1.9491270781,3.9289848804,0.1622711271,1.2003887892,0.628980875,2.7909417152
2,54806,54805,0.0048244786,0.0022977015,1.1017243862,-0.39589113,1.3929742575,-2.3163702488,1.9479410648,3.9270365238,0.1639877707,1.4116765261,0.8152394295,2.7555272579
3,54816,54815,-0.0520711988,-0.0141094932,1.0591723919,-3.3754041195,3.832805872,-1.7514238358,1.9468905926,3.9251744747,0.1659237295,1.4129313231,0.7237583995,2.7456982136
4,54826,54825,0.0249898806,-0.004687184,1.0729963779,-5.2754597664,6.9692111015,-1.8997117281,1.947414875,3.9266967773,0.1664010584,1.3494944572,0.4593223929,2.775282383
5,54836,54835,0.0350448564,-0.0309339352,1.0449761152,-4.3695220947,8.8088235855,-2.3618838787,1.9460891485,3.9230525494,0.1684280932,1.3137081861,0.6361483335,2.7019617558
6,54846,54845,-0.0155016184,-0.0231019501,1.0627102852,-1.788911581,8.8616981506,-1.6612380743,1.9486109018,3.9197375774,0.1704010963,0.8240965009,1.1551024914,2.4984090328
7,54856,54855,-0.0358999148,0.0087016989,1.0847139359,-1.6550211906,7.1338834763,-0.8310286999,1.9475839138,3.9187486172,0.1729606092,1.1039199829,1.1941457987,2.5344851017
8,54866,54865,0.0260744877,0.0389803909,1.0875912905,-4.9357056618,4.8309903145,-0.9933835864,1.9475851059,3.9161024094,0.1750366092,1.0087558031,1.4116486311,2.474121809
9,54876,54875,0.0018611043,-0.0487340465,1.0143816471,-12.0672883987,2.2997858524,-1.1423120499,1.9430931807,3.9135694504,0.1755425036,1.7253267765,1.6527793407,2.5594983101
10,54886,54885,0.0322176218,-0.0144314729,1.0292705297,-21.1032238007,3.4869060516,-0.9853855968,1.9431476593,3.913954258,0.179360345,1.6525936127,1.309489727,2.5822477341
11,54896,54895,-0.0009267648,-0.0236450136,1.028014183,-29.9552307129,9.3806362152,-1.4071885347,1.9429534674,3.9147388935,0.1830982417,1.4611504078,0.8353837729,2.5911076069
12,54906,54905,-0.0337480083,0.1003381759,1.0001723766,-33.8602104187,16.1331691742,-1.7544406652,1.9432193041,3.9137001038,0.1858201325,1.2405738831,0.4883449972,2.5588881969
13,54916,54915,-0.036452055,0.067236416,1.0595424175,-30.4302005768,20.625453949,-1.4191681147,1.9427530766,3.9138088226,0.1886172742,1.0205322504,-0.151486814,2.5951063633
14,54926,54925,0.0417569168,-0.0681876838,0.9874266982,-23.8184566498,23.7583522797,-1.6013323069,1.9442448616,3.9115629196,0.1903087944,0.6090838313,0.0258345939,2.4450240135
15,54936,54935,-0.0144041115,0.0619865991,1.028691411,-11.879029274,19.6645641327,-0.7926642895,1.9427767992,3.9116530418,0.1930927038,0.4089055955,-0.4122229815,2.4745333195
16,54946,54945,0.0418692268,0.0114762923,1.0153183937,-4.4884653091,15.920003891,-0.9022411108,1.9431952238,3.9124712944,0.1955555081,0.1339877546,-0.5849637985,2.4632737637
17,54956,54955,-0.0320985056,-0.0072039571,0.9918217659,2.5557534695,8.1960344315,-1.33400774,1.9428246021,3.9119882584,0.1980083883,-0.0326994248,-0.6227635145,2.4491009712
18,54966,54965,-0.0375343673,0.0514348745,1.0547189713,7.2736845016,2.732937336,-1.8997395039,1.9422190189,3.912225008,0.1994825602,-0.0781098008,-0.6205100417,2.4393520355
19,54976,54975,0.0316399187,-0.0728196129,0.9779682755,8.0228023529,-1.4459189177,-1.5319088697,1.9415793419,3.9108994007,0.2019242793,-0.1326717734,-0.5700630546,2.420719862
20,54986,54985,-0.0426642969,0.0445928462,0.9791578054,4.8567752838,-6.4272508621,-1.6879119873,1.9407038689,3.9114897251,0.2043645978,-0.0971830264,-0.7213410735,2.4155232906
21,54996,54995,-0.0193475187,0.0649439767,0.9896333814,-0.5607158542,-6.5203723907,-1.8700255156,1.9408705235,3.9113237858,0.2056335956,-0.086171627,-0.7089808583,2.398182869
22,55006,55005,0.0565251485,-0.0274965763,0.931096077,-2.6053957939,-5.7893180847,-1.9365224838,1.9445412159,3.9112677574,0.2077618688,-0.6076980829,-0.758859694,2.3765604496
23,55016,55015,-0.0170300938,0.1028610617,1.0415970087,-4.1637973785,-4.3089432716,-1.9552308321,1.9390648603,3.9065806866,0.2131912857,0.2072627395,-0.4371115565,2.3561341763
24,55026,55025,0.0095489742,-0.0358103067,0.9141733646,-3.1092596054,-4.7264370918,-1.6036596298,1.938459754,3.9068031311,0.2141462564,0.2307869345,-0.5593572259,2.3369550705
25,55036,55035,0.0515668429,-0.035242144,0.9325191975,-2.5451292992,-1.1347243786,-1.4870313406,1.9373921156,3.9066672325,0.21646595,0.3133117557,-0.5924067497,2.3203883171
26,55046,55045,-0.1105650887,-0.0685452744,1.0360399485,-1.9558070898,2.6758265495,-1.7761906385,1.9383486509,3.9033844471,0.2189053148,0.1516257375,-0.2721008956,2.3179693222
27,55056,55055,-0.0216884296,-0.0196804311,0.9598084092,-2.021548748,8.4795970917,-1.7291365862,1.9370507002,3.9065747261,0.221602425,0.1629619747,-0.8023219109,2.2849287987
28,55066,55065,0.0067739715,0.0264765173,0.9967824817,-2.8504807949,6.2825651169,-2.1485509872,1.9436223507,3.9132499695,0.2238191813,-0.8112799525,-1.6702852249,2.2701864243
29,55076,55075,-0.0426020101,0.0193569921,0.9895496368,-4.5407085419,9.5893440247,-1.5354491472,1.9441300631,3.9162566662,0.2247338742,-0.9978121519,-1.9175020456,2.2394268513
30,55086,55085,-0.0594660453,0.0151469419,0.9783702493,2.1167652607,3.9243812561,-0.7444153428,1.9475746155,3.9190006256,0.2238315493,-1.4115742445,-2.2397260666,2.2269666195
31,55096,55095,-0.0600125678,0.0039816238,0.986715734,13.3288507462,-6.0270848274,-0.6767363548,1.9469934702,3.9183852673,0.2292580754,-1.2771875858,-2.0593128204,2.2160015106
32,55106,55105,-0.0107450364,-0.0282734595,0.9389193654,26.7436752319,-17.849149704,-0.6060743928,1.9462457895,3.9189066887,0.2325228155,-0.9825564623,-1.8212254047,2.1916122437
33,55116,55115,0.0332858823,0.1183937639,0.9081168771,39.7918586731,-28.9874095917,-0.2262610942,1.9459660053,3.9183034897,0.2360790372,-0.6492323875,-1.2316424847,2.2160704136
34,55126,55125,0.0098303678,0.1155168563,0.9358481169,46.4993476868,-34.950138092,0.0671622008,1.9458442926,3.9202251434,0.2374016494,-0.3229567409,-0.9073234797,2.2019295692
35,55136,55135,0.022763636,-0.0006863283,0.9109576344,42.8402404785,-32.2829246521,0.7214096785,1.9453579187,3.9203634262,0.2396685332,0.1018382981,-0.3244734406,2.2126681805
36,55146,55145,0.0456733108,-0.0088012302,0.938986063,34.0760040283,-26.9318065643,0.2835775316,1.944445014,3.9194772243,0.2418012768,0.6011899114,0.3504450619,2.2245123386
37,55156,55155,-0.0932641849,-0.0822824091,0.942470789,20.2956542969,-17.5732040405,-1.1492426395,1.9463528395,3.9204137325,0.243977502,0.716037631,0.5597341061,2.2282810211
38,55166,55165,-0.0123945437,-0.0306794047,0.9369854927,5.230700016,-4.8949222565,-1.3244673014,1.9455670118,3.921444416,0.2458578646,0.9813150764,0.7286256552,2.2055029869
39,55176,55175,-0.0079645049,0.0148849729,0.9658336639,-9.0551719666,4.8867578506,-1.5182896852,1.9461420774,3.9213769436,0.2476391345,1.0476564169,0.7974472642,2.1919744015
40,55186,55185,-0.1413767636,0.0523724295,0.988935411,-15.9213294983,11.0525112152,-1.206189394,1.9465447664,3.9206843376,0.2493765205,0.9979097843,0.7622539997,2.1795547009
41,55196,55195,-0.0187390577,-0.0223588329,0.9208769202,-15.1850500107,13.3699474335,-0.9620603323,1.947188139,3.9219663143,0.2512861192,0.8567349315,0.5717074275,2.1686339378
42,55206,55205,0.0051184781,-0.0057184855,0.9362748861,-10.6222143173,11.8228273392,-0.6411544085,1.9465450048,3.9211990833,0.2529566884,0.7611836791,0.4975272417,2.1613149643
43,55216,55215,-0.0627873316,0.0249799863,0.976480782,-1.3759462833,7.0614013672,-1.0114785433,1.9464434385,3.9216959476,0.2545831203,0.700627327,0.4404019713,2.1565423012
44,55226,55225,-0.0525305532,0.0101728952,0.9598228335,5.9861683846,2.2275116444,-0.7859171629,1.9470709562,3.9209837914,0.2573380172,0.6472335458,0.5892071724,2.1432123184
45,55236,55235,-0.0850069225,0.0596349463,0.9597076774,13.6328630447,-4.0304608345,-0.8844385147,1.9476547241,3.9206836224,0.2589415908,0.6137092113,0.7803317904,2.1281135082
46,55246,55245,-0.1312929988,0.1207943559,0.9411924481,15.2468357086,-8.2332954407,-0.8969088197,1.9477142096,3.9204375744,0.2604135871,0.7345817089,1.0367400646,2.117105484
47,55256,55255,0.0016258889,-0.0355148762,0.8808306456,10.1918964386,-9.0207147598,-0.7625201941,1.9469400644,3.9190709591,0.2586848438,0.898565352,1.266471982,2.1108987331
48,55266,55265,0.040947929,-0.0370908119,0.9270809889,1.6727516651,-6.4040904045,-0.7545033693,1.9464836121,3.9189226627,0.2598977089,1.0513926744,1.3788377047,2.1059844494
49,55276,55275,-0.0219711456,0.0316407941,0.9874128103,-8.3020544052,-1.7546910048,-0.9106066227,1.9465738535,3.9198656082,0.2612559199,1.1371158361,1.2613172531,2.1071779728
50,55286,55285,-0.0116666332,-0.0267542023,0.9320346117,-14.7265319824,2.4566140175,-1.2974871397,1.9460092783,3.920050621,0.2625578344,1.1294564009,1.0788251162,2.1019318104
51,55296,55295,0.0374437943,-0.0622109845,0.908336997,-19.2583293915,8.5807294846,-1.0529979467,1.9458018541,3.920511961,0.2648401558,1.0928615332,0.8738321066,2.0974297523
52,55306,55305,0.0205019936,-0.0264452174,0.9128723145,-17.7906551361,11.4112043381,-0.7702019811,1.9461945295,3.9209117889,0.2659474313,0.9233436584,0.5783063173,2.0805323124
53,55316,55315,0.0126272133,-0.0626803115,0.9409299493,-12.8902177811,12.6669874191,-0.3709954917,1.9453042746,3.9217135906,0.2669128776,0.8697713017,0.3333505392,2.0932781696
54,55326,55325,0.022659855,-0.0098626474,0.9678179026,-5.156853199,11.0797052383,-0.4329465032,1.9454003572,3.916218996,0.2691875696,0.7167233825,0.8366860151,2.0287015438
55,55336,55335,-0.0066663348,0.1172364056,0.9585869908,1.4815374613,11.6197118759,-0.2893627584,1.946808219,3.916059494,0.2703076303,0.4321870208,0.7440186739,2.0060126781
56,55346,55345,-0.0289699547,0.0345884189,0.9295224547,4.1100931168,6.7081284523,0.2109928578,1.9437918663,3.9158394337,0.2713703811,0.6464340687,0.822042346,2.0474741459
57,55356,55355,0.0285710972,-0.0687405542,0.9556251764,1.4403147697,2.5813465118,-0.4904054701,1.9344866276,3.9141638279,0.2720266879,1.4934499264,0.8986777067,2.1744306087
58,55366,55365,-0.0167641379,-0.0081208842,0.9707989097,-4.042678833,3.3309242725,-1.5160057545,1.9344153404,3.9144530296,0.2734512985,1.3154537678,0.8296949267,2.1521275043
59,55376,55375,-0.0222830884,-0.0591419935,0.9270202518,-11.1092414856,10.1340723038,-1.6848109961,1.9348551035,3.9163405895,0.2748548985,1.0980629921,0.6632009149,2.1260006428
60,55386,55385,-0.0225810409,-0.0013104191,0.9736425877,-16.0829868317,17.0335388184,-1.3631660938,1.9342477322,3.9160513878,0.2758285701,0.9210404754,0.5461025238,2.1015751362
61,55396,55395,0.0399149768,-0.0600049458,0.900300622,-18.9436950684,23.7847557068,-1.3103445768,1.9332157373,3.915364027,0.2779401243,0.6282636523,0.3578164279,2.0774466991
62,55406,55405,-0.004795772,0.0193373859,1.0139951706,-17.6372642517,26.9281864166,-0.540600121,1.9322990179,3.9160065651,0.2788586318,0.3290406466,0.1556497514,2.0650620461
63,55416,55415,-0.0166806132,0.0415307879,1.0079128742,-14.9276275635,27.3025474548,-0.5048022866,1.932077527,3.9171233177,0.279697448,0.0110307653,-0.1575130522,2.0666732788
64,55426,55425,0.057469964,-0.0577167422,0.9022145867,-8.8131637573,23.5637073517,-0.4438916147,1.9320137501,3.9156107903,0.2825469077,-0.3666244745,-0.1704353094,2.044598341
65,55436,55435,-0.0766380355,-0.0272379015,1.0080151558,-2.3823390007,16.0351963043,0.007052518,1.9300657511,3.9142057896,0.2835091054,-0.5600085855,-0.2252142727,2.0428936481
66,55446,55445,-0.0083074616,0.0196851175,0.9459890127,1.9709205627,7.0168738365,0.7593885064,1.9296985865,3.9136855602,0.284363389,-0.7191551924,-0.2642395496,2.0419204235
67,55456,55455,0.0057684639,0.0057593668,0.9639967084,3.9503526688,1.3800426722,0.6371453404,1.9281398058,3.9128911495,0.2825651765,-0.7155505419,-0.2391532511,2.051201582
68,55466,55465,-0.0169766117,-0.0201800223,0.9769786,4.775141716,-3.3604376316,0.6647209525,1.9273378849,3.9125955105,0.2832124233,-0.6971855164,-0.194532454,2.0578541756
69,55476,55475,-0.0546866246,0.0005877526,0.980035305,2.5738828182,-5.8465304375,0.652589798,1.9277486801,3.9128878117,0.2838378549,-0.7640970945,-0.1632352769,2.0561568737
70,55486,55485,0.0325659811,0.0007727586,0.9487735629,0.5268668532,-6.1811127663,0.5626309514,1.9275267124,3.9126703739,0.2821319401,-0.7210479379,-0.1742907614,2.0605401993
71,55496,55495,-0.0112604704,0.0249580182,1.0107148886,-2.6638691425,-4.5244908333,0.2870355546,1.9281811714,3.9124026299,0.2825337648,-0.764262259,-0.0820726678,2.070836544
72,55506,55505,0.0179004762,-0.0747469962,0.9266150594,-4.4161996841,-1.703725934,0.3582390845,1.9279174805,3.911665678,0.2829278708,-0.7557290196,-0.1826315373,2.0662362576
73,55516,55515,0.0390069224,0.0072151078,0.9912957549,-6.4517674446,1.3104819059,0.1371944398,1.9277685881,3.9120824337,0.2832392156,-0.8146647811,-0.2344902605,2.0691406727
74,55526,55525,0.0118464557,-0.0148933269,0.9793936014,-7.8014521599,1.8029876947,0.2292517573,1.9265921116,3.9103102684,0.2834200859,-0.8063380718,-0.2427013665,2.0776512623
75,55536,55535,0.0592346862,-0.0581190027,1.0333070755,-7.079182148,1.7416541576,0.37150684,1.9259898663,3.9108259678,0.2837351561,-0.8041430712,-0.4064734578,2.0713713169
76,55546,55545,0.076991193,-0.047764264,0.9405834675,-5.5041122437,0.3057810068,0.4746688306,1.9266097546,3.9111218452,0.2840043008,-0.9342195392,-0.4682475924,2.0748758316
77,55556,55555,-0.0167497732,0.1010841951,1.022236228,-2.5569884777,-1.5272140503,0.6208792329,1.9267300367,3.9120056629,0.2825348377,-0.9562263489,-0.5653091669,2.0725436211
78,55566,55565,0.0323498771,-0.0335099995,0.9278821945,0.0445012487,-4.3499236107,0.8481198549,1.9261755943,3.9122407436,0.2826649249,-0.9265046716,-0.6100586057,2.0747401714
79,55576,55575,-0.0108705629,0.0155051025,1.0143524408,3.0383582115,-6.0851669312,1.5464619398,1.9258819818,3.9109489918,0.2827886045,-0.8495376706,-0.5909878016,2.0882763863
80,55586,55585,0.0170131531,-0.0282437392,1.0226188898,4.6037726402,-7.9870009422,1.5604311228,1.9257106781,3.9105203152,0.2812771201,-0.8140237927,-0.5352092981,2.108912468
81,55596,55595,0.0331157297,-0.0230228044,0.9921361208,5.0604448318,-8.236989975,1.4778510332,1.9247661829,3.9089038372,0.2812994421,-0.6865775585,-0.4672280848,2.1250858307
82,55606,55605,-0.0419649631,0.0165696945,1.0434918404,3.9192700386,-6.8098378181,1.2845265865,1.9235720634,3.9069671631,0.281314522,-0.5763026476,-0.407151103,2.1406521797
83,55616,55615,0.071933575,-0.1027201489,0.9852128029,2.0232918262,-4.7179985046,1.5055562258,1.9228038788,3.9077548981,0.2813830674,-0.4859597087,-0.3752030432,2.1551859379
84,55626,55625,-0.0042991624,0.0164459571,1.0416558981,-0.379253,-2.4658031464,1.5591914654,1.9225951433,3.9059782028,0.2809226811,-0.5131774545,-0.3799105883,2.1713619232
85,55636,55635,-0.0099691674,-0.0301423166,1.0030341148,-1.8577262163,0.0074787415,1.606159091,1.923257947,3.9058201313,0.2809818685,-0.5783668756,-0.4166155756,2.1877856255
86,55646,55645,0.0054747118,-0.0279197283,1.0117650032,-3.2150337696,0.1375945956,1.3858788013,1.9244794846,3.905700922,0.281064868,-0.6574836373,-0.398807615,2.2133567333
87,55656,55655,0.0701033622,-0.1121508405,1.0211158991,-2.8727297783,-0.6787742376,1.5368638039,1.9246279001,3.9048614502,0.2832646072,-0.6433593035,-0.4738658667,2.2224953175
88,55666,55665,-0.0221200623,-0.038773004,1.0269641876,-1.5299966335,-3.7183842659,1.5861625671,1.9242168665,3.9053618908,0.2834937274,-0.590041399,-0.5154467225,2.2354643345
89,55676,55675,-0.0188240632,-0.0417441837,1.0615893602,1.5403012037,-8.0382709503,1.3086330891,1.9227808714,3.9039700031,0.2837586105,-0.464631021,-0.4429949224,2.2591495514
90,55686,55685,-0.0346786417,-0.1497944891,1.022480011,4.7955751419,-10.7532463074,1.0658978224,1.9235281944,3.9036359787,0.284840256,-0.437995702,-0.3968963325,2.2782051563
91,55696,55695,0.0190302245,-0.0435575955,1.0065319538,5.3905358315,-6.8566412926,1.0395458937,1.9227429628,3.9041807652,0.2851965427,-0.3082660735,-0.3213217258,2.2886111736
92,55706,55705,0.0063384073,-0.0175567679,1.0159261227,4.5010972023,-5.4230351448,1.2546383142,1.9236980677,3.9041018486,0.2856090069,-0.3548175395,-0.3316573203,2.2972226143
93,55716,55715,-0.0674959049,0.099208951,1.0594007969,1.8853408098,-3.4741346836,1.5480837822,1.9233567715,3.9051194191,0.288819164,-0.2415750772,-0.2849325538,2.3105890751
94,55726,55725,0.0452549569,-0.1271252185,0.9606305957,-0.7260344625,-4.0196185112,1.6522846222,1.9223417044,3.9057664871,0.2894058228,-0.175959751,-0.2932208478,2.3236911297
95,55736,55735,-0.0253040176,0.1115230471,1.019821763,-2.5257453918,-4.0336112976,1.3468573093,1.9224984646,3.9059820175,0.2900428474,-0.2013243437,-0.336048007,2.3377869129
96,55746,55745,0.0014643657,0.0172834843,1.0225294828,-2.0784099102,-3.0876059532,1.256147027,1.9228028059,3.9058189392,0.290648818,-0.2031883299,-0.3829918802,2.3501441479
97,55756,55755,0.0288387146,-0.0350352935,0.9722251892,-1.4974770546,-3.4629170895,1.0618213415,1.9224904776,3.9060854912,0.2903276384,-0.1225602925,-0.4115158617,2.3599429131
98,55766,55765,0.0275512692,0.0488249809,1.039129734,-0.272751689,-4.9814510345,1.2605540752,1.9236377478,3.9068543911,0.2909086049,-0.178350687,-0.4222186804,2.3757314682
99,55776,55775,-0.0232228059,-0.0154547635,1.0070056915,1.4913697243,-6.6010456085,0.7890255451,1.9229626656,3.9063737392,0.2915070653,-0.0508349836,-0.4074616432,2.3842778206
100,55786,55785,0.0180572271,-0.096598953,0.9260758758,3.7371938229,-6.7649173737,0.9229423404,1.9228832722,3.9064750671,0.2957867384,0.0043585729,-0.3585223854,2.3956520557
101,55796,55795,-0.030907739,0.1856221706,1.0418419838,5.4871153831,-6.7204437256,0.4861861467,1.9227589369,3.9061291218,0.2965823412,0.1304519027,-0.2752104402,2.4012932777
102,55806,55805,0.046501752,-0.0749406666,0.893758297,5.357884407,-6.1176142693,0.0488455705,1.9231694937,3.9062168598,0.2973315418,0.1941776425,-0.1870534867,2.4066820145
103,55816,55815,-0.0547849536,0.0169180017,1.0346626043,3.8103222847,-4.7158727646,-0.0877016857,1.9233418703,3.9057629108,0.2941745818,0.2368054241,-0.1128852144,2.4083182812
104,55826,55825,0.0303432532,-0.027689226,0.9524018764,1.3721145391,-2.8721051216,0.1887797862,1.9227735996,3.9051165581,0.2946398854,0.3238093853,-0.0801284164,2.4068946838
105,55836,55835,0.0113255214,-0.0299587026,0.9656301737,-2.272367239,-2.0243697166,0.2076468617,1.9231461287,3.9054644108,0.2951327264,0.2972553968,-0.1000046879,2.4104459286
106,55846,55845,-0.0032846439,-0.0888451934,0.9905356765,-4.6547956467,-0.9138216972,0.3121086061,1.9228636026,3.9056580067,0.2955672443,0.3454420865,-0.1703255922,2.4107265472
107,55856,55855,0.0242887251,-0.0517713577,0.9584889412,-4.4869275093,-3.4240090847,0.015361134,1.9229972363,3.905601263,0.2982816398,0.3682575524,-0.1794496179,2.4118201733
108,55866,55865,0.0044243941,-0.0486322381,0.9625200629,-4.7985010147,5.9277868271,-0.0137807336,1.9237769842,3.9063010216,0.2988065481,0.2745486498,-0.3423455656,2.4126210213
109,55876,55875,0.1389780492,-0.0712556988,0.9547064304,-3.6220681667,13.2515468597,0.1247096509,1.9239320755,3.9059123993,0.2992859483,0.182725057,-0.4089766145,2.4127042294
110,55886,55885,0.0285790395,-0.0180198736,0.9935865402,-0.8756414652,16.6982975006,0.627220273,1.9256048203,3.9057736397,0.2989355326,-0.1274632365,-0.3558837175,2.4177567959
111,55896,55895,0.0361145474,-0.0601696894,0.9230234623,0.4734358788,17.689201355,0.6910076141,1.9253922701,3.9060251713,0.2993485928,-0.2417132854,-0.3502325714,2.421612978
112,55906,55905,-0.0006175684,0.1703166515,0.9997578859,2.1610162258,16.3730487823,0.4347419143,1.9259591103,3.9059400558,0.2996897101,-0.438192904,-0.3258945346,2.4247283936
113,55916,55915,0.0051806034,-0.0043440042,0.9357108474,2.9366793633,12.8612470627,0.3131155372,1.9255766869,3.9063420296,0.2970381081,-0.5615255833,-0.2790066898,2.4290449619
114,55926,55925,-0.0062073418,-0.0072243316,1.0079700947,3.533772707,7.7977700233,-0.2034226656,1.9254206419,3.9057598114,0.2971859574,-0.6093404889,-0.2183030546,2.4283144474
115,55936,55935,0.0883118212,-0.0787023157,0.9587838054,1.833378315,2.434823513,-0.7922528982,1.9252387285,3.9064104557,0.2972836196,-0.6821267605,-0.1855080128,2.4234330654
116,55946,55945,0.0206023622,-0.0079767611,0.9866503477,-0.9434607625,-2.2342321873,-0.8373410106,1.9250360727,3.9067440033,0.2973865867,-0.6505535245,-0.259408921,2.4118192196
117,55956,55955,0.0039299629,-0.0580960438,0.963875711,-4.3914999962,-4.2399806976,-1.4349131584,1.9247561693,3.9059622288,0.29696697,-0.5667929053,-0.2294014394,2.4018027782
118,55966,55965,-0.0434753299,0.0350581594,1.0500905514,-4.9096536636,-2.9282550812,-2.7256987095,1.9244523048,3.9061174393,0.2970203459,-0.4760979414,-0.315520823,2.3790972233
119,55976,55975,-0.0048017092,-0.1615751535,0.9861437678,-3.3275823593,1.2374788523,-3.2088971138,1.9255430698,3.9066264629,0.2970967889,-0.4864574671,-0.370860815,2.3515641689
120,55986,55985,-0.059354946,-0.0411409996,1.0293180943,-1.7931078672,6.0947885513,-4.0373945236,1.9257341623,3.9063746929,0.2988682985,-0.5046674013,-0.3992674053,2.3167512417
121,55996,55995,0.0222508069,0.0001276471,1.0033299923,-0.4897747338,9.6687316895,-4.3769717216,1.9255902767,3.9056107998,0.2990656197,-0.5484114289,-0.4079277813,2.2728652954
122,56006,56005,-0.0498304516,0.1177566871,0.991777122,0.8996379972,11.1423597336,-4.3506650925,1.9263955355,3.9056682587,0.2992293537,-0.7011095881,-0.3951841891,2.2284052372
123,56016,56015,-0.0013285446,-0.0080283238,0.99238801,1.8610464334,11.3395853043,-5.2495756149,1.926805377,3.9052095413,0.2972475886,-0.8716461658,-0.3617236912,2.1833341122
124,56026,56025,-0.0524864458,0.1316624731,1.0376241207,0.9176157117,8.818936348,-6.1805849075,1.9266513586,3.9050664902,0.2973257303,-0.9400180578,-0.4145331681,2.115326643
125,56036,56035,0.0296914447,-0.0685974509,0.9940838218,0.5053827763,3.2861096859,-6.3125305176,1.9266132116,3.905397892,0.2973958254,-0.9808211923,-0.3882581592,2.0556719303
126,56046,56045,-0.0542257577,0.0437343083,1.0488495827,0.6334028244,-1.377379775,-6.763001442,1.9262582064,3.9047007561,0.298686564,-0.9747271538,-0.374771893,1.9913283587
127,56056,56055,0.0183761287,-0.0641342849,0.9847131371,2.4307322502,-3.7799565792,-7.5396766663,1.9257137775,3.9045190811,0.2989269495,-0.8931073546,-0.3377543688,1.9195141792
128,56066,56065,-3.87198306270875E-05,0.0443315729,1.0738357306,3.3612613678,-3.5803916454,-8.2159786224,1.925481081,3.9043021202,0.2991667092,-0.8078259826,-0.279997617,1.8429336548
129,56076,56075,-0.0248620193,-0.051109612,0.9829221964,3.1600534916,-1.5408471823,-9.13438797,1.9261023998,3.9040515423,0.2993814647,-0.81758219,-0.2192306668,1.7602545023
130,56086,56085,-0.0032746491,-0.00179825,1.0143101215,3.1158893108,2.9594142437,-9.2305288315,1.9258123636,3.904255867,0.2984335423,-0.81233567,-0.1627569646,1.6699914932
131,56096,56095,-0.0300410707,-0.0514125191,0.9857278466,3.7853093147,9.0509138107,-9.4218597412,1.9267708063,3.9060249329,0.2986676097,-0.8959269524,-0.2508153021,1.5637134314
132,56106,56105,-0.0368465297,0.0464291312,1.0622315407,5.4292664528,13.6261873245,-9.0247755051,1.9274855852,3.9048132896,0.2988120317,-1.0578730106,-0.1555431932,1.4768753052
133,56116,56115,0.0185001455,-0.0916893184,0.9312170744,5.5746259689,15.3843946457,-8.9090099335,1.9278863668,3.9038469791,0.3014490306,-1.1797927618,-0.0561190583,1.3928711414
134,56126,56125,-0.0164429918,0.062391866,1.0710829496,4.7460923195,14.0913305283,-8.7075777054,1.9275399446,3.902769804,0.3016829491,-1.3824176788,-0.0398932919,1.2901188135
135,56136,56135,0.073194772,-0.0195407849,0.9371677041,3.3233482838,15.051150322,-8.5299415588,1.927832365,3.9015498161,0.3020206392,-1.5055481195,0.0272444822,1.2075506449
136,56146,56145,0.0481384024,0.0342608467,0.9858605266,3.3732535839,7.5704011917,-8.4641218185,1.9253436327,3.9002249241,0.3025736809,-1.5372431278,0.0116371606,1.1058918238
137,56156,56155,0.0286373068,0.0042169946,0.9881116152,2.5307450294,1.2618943453,-7.9672966003,1.9256628752,3.9002790451,0.3029071093,-1.5607185364,0.0702312738,1.0293506384
138,56166,56165,-0.0030119354,-0.0173751861,0.9966788888,0.350946784,-4.4761557579,-7.4054098129,1.9249824286,3.900002718,0.3032660484,-1.491265893,0.0970302969,0.9530377984
139,56176,56175,-0.0289669707,-0.0517940372,0.9852263927,-2.2433047295,-10.769443512,-6.4689922333,1.925211668,3.9002561569,0.3035978675,-1.3875695467,0.0774319544,0.8827083111
140,56186,56185,-0.045899,-0.041971162,1.0087200403,-1.5735356808,-11.1140127182,-5.4024276733,1.9250679016,3.8997085094,0.3037171662,-1.2383840084,0.0513459966,0.8216897845
141,56196,56195,0.0074025281,0.0008185622,1.0022181273,0.1155531257,-9.1152791977,-4.2689838409,1.9255131483,3.8995249271,0.3040506542,-1.10351789,0.0460447706,0.7727403641
142,56206,56205,-0.0726090074,-0.036763601,1.0211334229,2.909776926,-4.4112224579,-2.627966404,1.9263317585,3.9004142284,0.3043653071,-1.095848918,0.0092800576,0.7248858809
143,56216,56215,0.005695723,-0.0231863838,0.9851853848,4.5522537231,0.4104323983,-1.3864336014,1.9267429113,3.8998878002,0.3058958054,-1.0971726179,0.0848945081,0.7106979489
144,56226,56225,-0.0184362121,-0.0193076376,1.0049334764,5.8470788002,3.6587204933,-0.3743323684,1.9273146391,3.8996565342,0.3063041866,-1.0953130722,0.1799389571,0.7107810974
145,56236,56235,0.0640642792,0.0831670836,1.0022163391,4.857708931,4.7850661278,-0.0146314651,1.9277685881,3.9001166821,0.3066858649,-1.1589912176,0.2694019973,0.7154459357
146,56246,56245,0.0122023346,-0.0434020869,0.9657789469,2.5951662064,3.6655540466,0.2700780034,1.928403616,3.8995280266,0.3061778545,-1.1955304146,0.3331922889,0.7184010148
147,56256,56255,-0.0380623564,-0.0310688876,0.996768713,0.2793697119,2.4750421047,0.3988299966,1.9277188778,3.9000735283,0.3062418699,-1.2121397257,0.2848052979,0.7088639736
148,56266,56265,-0.049948588,-0.025749201,1.0036141872,-2.2858481407,0.4820582271,0.7418588996,1.9284025431,3.9001119137,0.3065314591,-1.2542592287,0.2634415627,0.7118757963
149,56276,56275,0.0326808318,0.0112303961,0.9909308553,-2.1074934006,-0.2168029398,1.4802974463,1.9288293123,3.8998699188,0.3068100512,-1.2713297606,0.2324923128,0.7195550799
150,56286,56285,-0.0585599318,0.0532440282,0.986387074,-1.2257725,-3.5618953705,1.8588608503,1.9289366007,3.9005594254,0.3052463531,-1.1484155655,0.2097471803,0.7389737368
151,56296,56295,-0.0536613911,-0.0148143293,0.9897269607,-0.1181587279,-3.4074866772,1.9479644299,1.9309403896,3.9019351006,0.3051313162,-1.3412636518,0.0556102656,0.7264360785
152,56306,56305,0.0435896292,-0.0105206342,0.9775303602,1.5764487982,-3.3203639984,2.3521485329,1.9309750795,3.9029519558,0.3054687083,-1.2034635544,0.0889006481,0.7599268556
153,56316,56315,-0.0054824241,-0.0531756803,1.0170083046,3.3626208305,-4.6265001297,2.6152539253,1.930562973,3.9024512768,0.3074588478,-1.0646461248,0.2298696637,0.8111821413
154,56326,56325,0.0435766764,-0.0686610416,0.9520082474,3.4248890877,-5.2279868126,1.8679790497,1.9309686422,3.9021761417,0.307728678,-0.9934580326,0.2930688858,0.837870121
155,56336,56335,-0.0042357356,0.0253779218,1.0291911364,1.1303775311,-4.7471880913,2.3025276661,1.9316945076,3.9029901028,0.3080080748,-0.9293205142,0.3302887976,0.8621391654
156,56346,56345,-0.0167534407,-0.0354361236,0.9652881622,-2.5861930847,-5.1477370262,2.2599680424,1.9314613342,3.9031748772,0.3094916344,-0.7812381387,0.2335591018,0.8790436983
157,56356,56355,-0.0421536155,-0.0346633457,1.0015125275,-4.5141587257,-4.5472769737,2.598351717,1.9327747822,3.9032919407,0.3097907603,-0.916680038,0.2882002592,0.8796815872
158,56366,56365,-0.10970743,-0.0332097895,1.0102038383,-5.914290905,-0.9695487022,3.1144547462,1.9330052137,3.9033403397,0.310082674,-0.8591943383,0.2158821672,0.8990627527
159,56376,56375,-0.0012560314,0.0177071039,1.0007427931,-5.891503334,0.0964011252,3.7254025936,1.9328736067,3.9033956528,0.3089984059,-0.7749343514,0.0646454096,0.9605106711
160,56386,56385,-0.0069446503,-0.0230334979,0.981317699,-5.3681297302,-0.4381396472,3.8498692513,1.9352624416,3.9034683704,0.3090995252,-1.012262702,-0.0196561683,0.9805513024
161,56396,56395,-0.004239263,0.0080866851,1.018769145,-3.2253353596,-1.5666431189,4.3627929688,1.9361430407,3.9035642147,0.3092620075,-1.0671647787,-0.0311825238,0.9687483907
162,56406,56405,0.0400014035,-0.1029938459,1.007363081,0.0684755892,-6.1430306435,5.1807436943,1.9354301691,3.9029405117,0.3096652031,-0.9375481009,-0.0647815466,1.0163884163
163,56416,56415,-0.0096143885,-0.0924300402,0.9723494649,3.4102911949,-10.9752140045,5.9390358925,1.9368100166,3.9023725986,0.310557574,-0.9701450467,-0.0447849594,1.0639081001
164,56426,56425,-0.0499229431,0.0056629404,1.0137662888,5.8108577728,-12.8951911926,7.2366733551,1.9366190434,3.9024136066,0.3108823001,-0.7744259834,-0.0496775024,1.1235929728
165,56436,56435,0.0279693175,-0.0086895376,0.9626913071,5.9559364319,-13.890083313,7.4384694099,1.9382702112,3.9017689228,0.311057061,-0.7641862035,0.0591749363,1.2015568018
166,56446,56445,0.0195959248,0.024287574,1.0140867233,4.5711522102,-10.0579824448,8.1720619202,1.9374630451,3.9021732807,0.3140484393,-0.4499195814,0.089765653,1.2792445421
167,56456,56455,-0.0162746981,-0.0007897372,0.9986744523,2.9803628922,-9.1226406097,8.3973112106,1.9372987747,3.9028792381,0.3144607842,-0.2711917758,0.100239262,1.3562155962
168,56466,56465,-0.0766257644,0.0020944218,1.0287202597,-0.8014187217,-5.3529229164,8.689157486,1.9393752813,3.9025070667,0.3148113191,-0.3565109968,0.1456128061,1.4256417751
169,56476,56475,0.0012460079,-0.0490418933,0.956674099,-5.1802520752,-1.0851787329,8.4946775436,1.938782692,3.9028494358,0.3142614961,-0.1962690949,0.1223151386,1.5124803782
170,56486,56485,0.0212784056,0.0844743922,0.9781947136,-9.3233747482,6.2833991051,8.2888326645,1.9395037889,3.903375864,0.3145951331,-0.2117441744,0.0318723395,1.5901569128
171,56496,56495,0.0064389687,0.0602128282,0.9701679349,-10.0151691437,8.4110355377,8.0503978729,1.94010818,3.9041531086,0.3149496317,-0.2275685966,-0.1045284048,1.6728470325
172,56506,56505,0.0032906006,0.0118915606,0.9906751513,-5.9535479546,11.2021455765,7.7234215736,1.9411998987,3.9039134979,0.3152503371,-0.3741110265,-0.1591204256,1.7520405054
173,56516,56515,-0.0162343197,0.0119670415,0.9851757288,2.2880206108,11.0658006668,6.7444200516,1.9420711994,3.9026129246,0.3178454936,-0.472451508,-0.1401972771,1.8225622177
174,56526,56525,0.0101055754,-0.0624710023,1.0350297689,9.2960929871,10.6236219406,6.0412530899,1.942868948,3.9027824402,0.3182779253,-0.5679844022,-0.0780883282,1.9008274078
175,56536,56535,0.0584390536,-0.0876864716,0.9216128588,13.5780134201,9.0497074127,4.2337627411,1.9430902004,3.9034979343,0.3188016117,-0.5838625431,-0.0559033342,1.9645812511
176,56546,56545,-0.0244517643,0.0242618434,1.006157279,15.4318275452,6.6196522713,2.3884792328,1.943116188,3.9038310051,0.3174550831,-0.6532040834,0.105937019,2.0165305138
177,56556,56555,0.0270252209,-0.0199409574,0.9506776333,15.5243701935,5.0691194534,0.90290308,1.9439407587,3.9049766064,0.3177685142,-0.6846282482,0.1449507624,2.0410583019
178,56566,56565,-0.0013680928,-0.0158199221,0.9666950703,13.1952390671,3.9878697395,-0.3462240696,1.9449410439,3.9040884972,0.3179582953,-0.7664309144,0.3356851935,2.0444800854
179,56576,56575,0.0282578431,-0.075268276,0.8823245168,10.912815094,-1.4746836424,-0.5611326694,1.9452732801,3.9042432308,0.3181193173,-0.748139441,0.5564818382,2.0575973988
180,56586,56585,-0.0411369503,-0.1006873325,0.9947957993,6.8991985321,-1.2454890013,-1.9805361032,1.945068121,3.9047925472,0.3182981014,-0.650372684,0.6533834934,2.0599780083
181,56596,56595,0.0931723714,-0.1965511292,0.9161997437,1.3543022871,-1.8530458212,-2.823492527,1.9474207163,3.9055426121,0.3182683885,-0.7905934453,0.6781803966,2.038059473
182,56606,56605,0.0238733888,-0.0303842835,0.9940781593,-2.6982905865,-2.4072339535,-2.8460981846,1.9468227625,3.9051795006,0.3184011579,-0.6987332106,0.6901045442,2.0095944405
183,56616,56615,0.0101928432,-0.0269939136,0.9321513176,-6.826587677,-3.8779509068,-3.0699055195,1.9469064474,3.9049091339,0.3172009587,-0.6422264576,0.6364398003,1.9723854065
184,56626,56625,-0.0612356104,0.0404198766,1.0088424683,-8.5345058441,-3.9792788029,-3.5191030502,1.9491248131,3.9053332806,0.3169616163,-0.7915229797,0.605065465,1.9298237562
185,56636,56635,-0.0384604186,0.0258072596,0.999981761,-7.2568159103,-4.2947597504,-3.0576422215,1.94797647,3.9046823978,0.3170292974,-0.5712541938,0.5488883853,1.8973912001
186,56646,56645,0.0563766398,-0.1422277391,0.9349533916,-6.7508440018,1.5674858093,-4.6555461884,1.9480178356,3.9054472446,0.3162723184,-0.4702994227,0.4269881248,1.8833274841
187,56656,56655,-0.0052836747,-0.0073467307,1.0285110474,-4.0603666306,4.5566673279,-5.2652192116,1.9494946003,3.9065465927,0.3161381781,-0.5065737963,0.4124159515,1.8504798412
188,56666,56665,0.0801796168,-0.0715051293,0.9114118814,-0.5268346071,7.5958065987,-5.3941602707,1.9500128031,3.9059603214,0.3159422278,-0.5949149132,0.3666504323,1.7870547771
189,56676,56675,0.061182566,-0.0522399396,0.9731254578,3.306150198,6.7355594635,-4.6644940376,1.9511950016,3.9059185982,0.3164994717,-0.6425356865,0.4454474449,1.7500940561
190,56686,56685,-0.0209117699,0.0621559471,0.9914344549,5.2556829453,2.8265120983,-4.444378376,1.9520808458,3.906037569,0.3162735701,-0.7307928205,0.4965473711,1.7106086016
191,56696,56695,-0.0399587303,0.1273807287,0.9697381258,5.3050022125,-1.6704502106,-3.9169194698,1.9541045427,3.9051985741,0.3158752024,-0.8982380033,0.5706341267,1.6453005075
192,56706,56705,-0.0236494541,0.0377423093,0.9760780334,5.0164570808,-5.0610527992,-3.2155902386,1.9545224905,3.905888319,0.3157111406,-0.837464571,0.5657397509,1.6123564243
193,56716,56715,-0.0050988779,-0.1360302716,1.0370281935,4.5488352776,-11.6594228745,-2.7165877819,1.9529474974,3.9053630829,0.3139350116,-0.6151694059,0.6351877451,1.5823818445
194,56726,56725,0.0666855797,-0.0785909966,0.962751627,2.3210828304,-11.6355485916,-3.0691978931,1.9558933973,3.9054131508,0.313424021,-0.726867795,0.6826671362,1.5524125099
195,56736,56735,0.0003341567,-0.0022786306,1.0198581219,-1.882807374,-9.195101738,-3.2086117268,1.95490098,3.9041085243,0.313206315,-0.4573243558,0.7566023469,1.5216058493
196,56746,56745,-0.0145668304,-0.0608397201,0.959344089,-5.9937810898,-7.4858121872,-3.1279420853,1.9556847811,3.9044189453,0.3148570359,-0.3804671466,0.6836198568,1.4860086441
197,56756,56755,0.0221142974,0.012313473,1.0073866844,-9.4441728592,-2.9139063358,-2.5800890923,1.9572585821,3.9042298794,0.3145363927,-0.4206570983,0.5509141684,1.4285799265
198,56766,56765,-0.0381798893,-0.039125748,0.9878149033,-10.8820781708,0.7852941155,-2.3498849869,1.9572027922,3.903491497,0.3143528998,-0.2905561924,0.527931869,1.3992459774
199,56776,56775,0.0084187221,-0.0008118278,1.0125998259,-9.6891145706,1.8588865995,-2.6565527916,1.9596101046,3.9019370079,0.3153521419,-0.4423739016,0.4841607511,1.3622953892
200,56786,56785,0.0105947219,0.0147812301,1.0178519487,-7.2760000229,2.0338699818,-2.8701739311,1.9609563351,3.9017403126,0.3152098358,-0.4476237297,0.3820793927,1.3374351263
201,56796,56795,-0.006713049,-0.0350340493,0.9991666079,-5.8195185661,1.4470012188,-2.2512354851,1.9608049393,3.9016497135,0.3151735067,-0.3783646226,0.3152619302,1.3179759979
202,56806,56805,-0.0082768044,0.0200316831,1.0230176449,-4.5412435532,-0.5149645209,-2.2750003338,1.9626181126,3.9012389183,0.3145783246,-0.5209047198,0.2731547356,1.2840887308
203,56816,56815,0.009545791,-0.0602738708,0.9696378708,-4.2917208672,-1.9849361181,-1.7269971371,1.9630725384,3.9015679359,0.3144642711,-0.4699805379,0.1673344672,1.2473856211
204,56826,56825,-0.0097978497,0.0464250594,1.0437531471,-4.2843651772,-3.3702790737,-1.3942152262,1.9628804922,3.900187254,0.3144443929,-0.3209819198,0.1455855817,1.2378480434
205,56836,56835,-0.0052761007,0.0277189314,0.9959686399,-4.350464344,-3.9581573009,-1.1875995398,1.9648046494,3.8987345695,0.3142028749,-0.3957616091,0.198676765,1.2067779303
206,56846,56845,-0.0079898713,-0.0013231767,0.9702216983,-3.5784080029,-5.1831049919,-0.9261277914,1.9644808769,3.8988428116,0.3148097992,-0.2183160335,0.095114924,1.203110218
207,56856,56855,-0.0023962779,-0.0093636997,1.0007332563,-3.6038322449,-4.2307391167,-0.145090282,1.9660289288,3.8987250328,0.3146298528,-0.2693104148,0.0057456479,1.1815395355
208,56866,56865,0.0366132148,-0.0272194091,0.9916141629,-4.9288277626,-1.9228790998,0.4946272969,1.9676709175,3.8981251717,0.3146009147,-0.1853809804,0.1371570975,1.2164069414
209,56876,56875,-0.0330619626,0.079866901,0.9629386067,-5.9640393257,0.7031717896,0.5329654217,1.9697701931,3.8992071152,0.3131884933,-0.2925494611,0.0074786167,1.2175816298
210,56886,56885,-0.0704004988,0.0420430824,1.0123113394,-6.5014486313,3.4858906269,0.4884215891,1.9703263044,3.898722887,0.313064903,-0.2059359998,-0.0520690754,1.2151174545
211,56896,56895,0.0377524272,0.1066607535,0.9793131948,-6.8683600426,5.8538842201,0.3269581199,1.9730117321,3.8985724449,0.3126687706,-0.4037589729,-0.1219729111,1.2164039612
212,56906,56905,-0.0141027588,0.0703695938,0.9679831266,-4.6909427643,0.500666976,1.0756833553,1.973534584,3.8971705437,0.3079367578,-0.41760391,-0.1798615754,1.204282403
213,56916,56915,-0.0774242505,0.0019982818,1.0952950716,-0.9313775301,-5.0036792755,1.276763916,1.9735797644,3.8971817493,0.307502985,-0.3573007584,-0.2730230689,1.2166413069
214,56926,56925,-0.0020333424,-0.111355722,0.9587817788,2.1538321972,-7.6182098389,1.7560472488,1.9735767841,3.8962500095,0.3071946502,-0.1457087845,-0.2254118621,1.2279182673
215,56936,56935,0.0669331551,0.0094661918,0.993353188,2.9094800949,-5.5393776894,3.177809,1.9765123129,3.8954694271,0.3065785468,-0.3101029098,-0.2207357883,1.2319872379
216,56946,56945,0.059045203,-0.0131200105,1.0269067287,3.3965947628,-9.5743217468,4.5076355934,1.9777675867,3.8945364952,0.3065315187,-0.2659171522,-0.1211595461,1.2588213682
217,56956,56955,0.0297138486,0.0136206234,1.0013073683,0.205742985,-7.3297538757,5.9763417244,1.9779324532,3.8947873116,0.3061933219,-0.0671424866,-0.1221060976,1.3140426874
218,56966,56965,-0.0166308247,-0.044298064,0.9961282015,-6.3630633354,-3.2539148331,7.0644340515,1.9786490202,3.8951947689,0.3058230281,0.0733135343,-0.1889614463,1.3585978746
219,56976,56975,-0.0094469329,-0.0392787792,0.9901368618,-10.721031189,0.3035089076,7.196064949,1.9814538956,3.8941645622,0.3093129098,-0.0789033771,-0.1862561107,1.4376586676
220,56986,56985,-0.0138153899,-0.0247047357,0.9883938432,-14.2163619995,0.1109694913,7.7193617821,1.9817100763,3.8948597908,0.30927068,0.0553267077,-0.4105557799,1.506070137
221,56996,56995,-0.0145282047,-0.0380114391,1.017385006,-14.8331613541,-1.5642373562,8.287191391,1.9818198681,3.8945527077,0.3091433048,0.1060607806,-0.5147907138,1.5794831514
222,57006,57005,0.037756905,-0.0984665677,0.9891011715,-12.5583496094,-3.1642577648,8.3094768524,1.9822326899,3.8926272392,0.3086636961,0.1720016897,-0.5438380837,1.6325294971
223,57016,57015,-0.0437148325,-0.0741649568,1.0127311945,-8.27435112,-5.7892889977,8.1228513718,1.9839988947,3.892313242,0.3083854616,0.1166235656,-0.6904683113,1.7144895792
224,57026,57025,0.0043617641,0.0405644365,1.0650901794,-1.8003742695,-8.635928154,7.025472641,1.9836063385,3.8927509785,0.3083305359,0.3326093554,-0.8265830874,1.7948397398
225,57036,57035,0.0241924021,0.0226060804,1.0477679968,3.8228445053,-12.8550930023,5.9801745415,1.9857738018,3.8911969662,0.3081079423,0.28012532,-0.786398828,1.8665561676
226,57046,57045,0.1313930154,0.0115327379,1.0438848734,7.8776898384,-14.947227478,4.9595656395,1.9866890907,3.8908731937,0.3075628877,0.3634301722,-0.743058145,1.9308927059
227,57056,57055,0.0133450618,-0.0784871057,1.0044324398,8.417637825,-13.5399951935,3.9059810638,1.9864022732,3.890127182,0.3075368702,0.6304780841,-0.6446709037,1.9674155712
228,57066,57065,-0.0348803625,0.0313026719,1.0663028955,6.0891256332,-10.3044919968,2.7990937233,1.9882884026,3.8899462223,0.3074528277,0.63094455,-0.55276227,2.0274949074
229,57076,57075,0.0399002098,-0.0262780767,0.9952292442,-0.004217349,-3.1917889118,0.6501646042,1.9885228872,3.8896663189,0.3079927266,0.7952363491,-0.5200635195,2.0562410355
230,57086,57085,-0.0272578243,-0.0422810838,1.0123872757,-6.052816391,2.1630680561,-0.5418815017,1.9892860651,3.8907623291,0.3080528975,0.8481041789,-0.654348433,2.0692062378
231,57096,57095,-0.0165512562,0.0895146281,0.9540703297,-11.0183448792,4.3024010658,-0.8771398067,1.9909667969,3.8902075291,0.3080766499,0.7406412959,-0.7206166387,2.0750520229
232,57106,57105,-0.0455794148,0.0765022114,1.0771994591,-11.9020013809,4.3247046471,-1.458658576,1.9915971756,3.8896026611,0.3067709506,0.7663424611,-0.7681609988,2.0490782261
233,57116,57115,0.0276650283,0.0127672013,1.0349696875,-10.0201692581,4.0933218002,-1.9665613174,1.99345541,3.8896346092,0.306668669,0.6373938322,-0.9002337456,2.0446596146
234,57126,57125,0.0012395601,-0.024683781,1.0052400827,-8.2003488541,3.3844089508,-1.3666132689,1.9935640097,3.8902909756,0.3067140877,0.6745524406,-1.000241518,2.0419454575
235,57136,57135,-0.0368911922,0.0159996711,1.032384634,-4.3874268532,2.3575201035,-1.3013199568,1.9945757389,3.8900103569,0.3054852784,0.6408028007,-1.0521076918,2.0045049191
236,57146,57145,-0.0114387898,0.0780170113,1.0428416729,1.29249084,3.1343941689,-1.7362889051,1.9953457117,3.8899793625,0.3054316938,0.6058317423,-1.1142003536,2.0080068111
237,57156,57155,-0.0024755585,-0.0873463079,0.9700195789,6.9370331764,3.4859757423,-2.4191515446,1.995659709,3.8894114494,0.3055153191,0.635245204,-1.0074554682,1.974563241
238,57166,57165,0.0193477254,-0.0263867714,1.014418602,9.4710502625,1.8197776079,-2.4823548794,1.9957668781,3.8896718025,0.3055813909,0.6726192236,-0.9775179625,1.9540520906
239,57176,57175,-0.0459463336,-0.0211501606,1.0221087933,7.1629228592,0.4213224351,-2.9432582855,1.9976532459,3.8894724846,0.3059883118,0.4989822805,-0.9240438342,1.9406483173
240,57186,57185,0.0292891841,0.0121362973,1.0066874027,2.8249881268,-1.6979955435,-3.1111032963,1.9975829124,3.8891625404,0.3061152995,0.5985592008,-0.8326386809,1.88228333
241,57196,57195,-0.0559060387,0.0903182253,0.9896209836,0.2592276335,-3.5531527996,-2.5857410431,1.9978452921,3.8898026943,0.3061981797,0.6408615112,-0.8752652407,1.8738868237
242,57206,57205,-0.0301629175,0.0850086585,1.0251761675,-2.5390172005,-2.1241514683,-1.6622029543,1.9988026619,3.8899588585,0.3044003844,0.6148638725,-0.883053422,1.8490004539
243,57216,57215,-0.0104037412,-0.1089209467,0.9827119708,-3.1320118904,3.6922607422,-0.4387648702,1.9989386797,3.8901896477,0.3043927252,0.7077362537,-0.9227624536,1.8299074173
244,57226,57225,-0.0889559016,-0.0220983382,1.0674232244,0.2096730769,9.4313955307,-0.7542882562,1.9994601011,3.8887684345,0.3044064045,0.7114234567,-0.871445179,1.7739361525
245,57236,57235,-0.0649128482,0.0279774256,1.0062744617,3.3272502422,15.7134075165,-0.2739444375,2.0001516342,3.8881869316,0.3045853376,0.6191607714,-0.8524207473,1.7450525761
246,57246,57245,-0.017966345,0.0047130054,0.9959109426,3.0896208286,20.5145225525,-0.4966255724,2.0004768372,3.888225317,0.3046536744,0.4958772063,-0.8761946559,1.7435712814
247,57256,57255,-0.0145947281,0.0156577583,1.0227884054,2.9321336746,20.4726448059,-1.0968942642,2.0014123917,3.8881850243,0.3047476113,0.307782948,-0.8162320852,1.7312543392
248,57266,57265,0.0172937308,-0.0804313496,0.9521597028,5.1912508011,16.0275268555,-1.3338708878,2.0024373531,3.8894968033,0.3047598004,0.0595945641,-0.8990423679,1.7438063622
249,57276,57275,0.0016977753,-0.0176405907,0.9978771806,6.6289548874,8.3577852249,-1.9782048464,2.0027887821,3.8887088299,0.3049038947,-0.1153256446,-0.7833377719,1.7064061165
250,57286,57285,0.0220142957,0.0424137861,1.0189032555,10.1904535294,0.5659955144,-1.3255921602,2.0029447079,3.8884007931,0.3050287962,-0.1459977925,-0.6354562044,1.6731208563
251,57296,57295,0.0016446506,0.0235506501,0.9821232557,11.9590787888,-5.1706423759,-0.5966386795,2.0027415752,3.8893182278,0.3052046001,-0.0541545078,-0.5886933804,1.6560790539
252,57306,57305,0.0183379203,0.0045374734,1.0105000734,11.1526174545,-9.9100704193,-0.0454849452,2.0027842522,3.8883516788,0.3066512644,0.11871095,-0.3778446615,1.6254743338
253,57316,57315,0.0014369364,0.0053995298,1.0076767206,6.8654403687,-10.387011528,0.2782454789,2.0023477077,3.8891890049,0.3068404198,0.2500822544,-0.367565155,1.6228512526
254,57326,57325,-0.0295336824,-0.0592720881,0.9826403856,1.4300240278,-5.1160759926,-1.1161897182,2.0043313503,3.88950634,0.3070231676,0.195957765,-0.2701194286,1.6498363018
255,57336,57335,-0.0152619882,0.0534019843,1.0125313997,-0.2910666168,1.2514469624,-2.6549162865,2.0048806667,3.8905351162,0.3095540106,0.221034348,-0.3207857013,1.6548594236
256,57346,57345,-0.0665282011,0.0265848469,1.0048818588,-0.1011945158,5.3821220398,-3.2444226742,2.0056636333,3.8901457787,0.3098366857,0.153116703,-0.3072341681,1.6181926727
257,57356,57355,0.0814473629,0.0430722609,0.9708416462,1.6391612291,8.6950416565,-3.5976510048,2.0075750351,3.8908157349,0.3101154268,0.0069268574,-0.3584272265,1.5972528458
258,57366,57365,-0.0184348524,0.0132648731,1.0124778748,2.879989624,8.8679113388,-3.6695547104,2.0073137283,3.890848875,0.3105175495,-0.0007740844,-0.300011456,1.5557594299
259,57376,57375,-0.0603830963,-0.0107183261,1.0101673603,5.7148532867,8.282459259,-3.0940601826,2.0076310635,3.8922948837,0.3113209307,-0.0866966695,-0.441480875,1.5208256245
260,57386,57385,0.0178679246,-0.0470971242,0.9448596239,10.0423202515,6.5135159492,-2.8286747932,2.0079030991,3.8916544914,0.3117185235,-0.1572614461,-0.2815675139,1.4835281372
261,57396,57395,-0.0443915203,0.049244158,1.0494230986,15.1741037369,5.7161207199,-2.8113026619,2.0080649853,3.8909521103,0.3121198118,-0.2098690569,-0.1124000177,1.4340591431
262,57406,57405,-0.0749171004,-0.0207622238,0.9718917608,18.5555114746,1.8505558968,-2.727257967,2.0077643394,3.8902854919,0.3127625287,-0.2049808949,0.0404907465,1.3754754066
263,57416,57415,-0.0343456455,0.0030271492,0.9965437651,18.6251678467,1.2539018393,-2.4814479351,2.0082976818,3.8918664455,0.3131246567,-0.2538503408,0.1490426958,1.3620187044
264,57426,57425,-0.015081618,-0.0433135778,0.9536058307,16.3824291229,2.4867565632,-2.2291283607,2.0079469681,3.8902621269,0.3134854436,-0.2278064042,0.4780387878,1.3127365112
265,57436,57435,-0.0258036554,-0.019947065,0.9688369632,11.6376991272,4.4328365326,-1.7670651674,2.0082397461,3.8921058178,0.3123883307,-0.2253114879,0.5247405767,1.3028262854
266,57446,57445,0.0875853002,-0.0531835556,0.9101905823,1.3378589153,6.3495078087,-2.3186633587,2.0082445145,3.8917059898,0.3125799,-0.2782748342,0.6599653959,1.287397027
267,57456,57455,-0.0189422686,-0.0011386869,0.9477638602,-9.5077323914,7.7171726227,-2.7633676529,2.0097978115,3.8924870491,0.312720418,-0.4387681782,0.6079214811,1.259108901
268,57466,57465,0.0032663175,-0.0226586759,0.9532825947,-13.1898736954,4.9929385185,-2.1397542953,2.0096116066,3.8937020302,0.3152996004,-0.4921172261,0.4400957823,1.2449423075
269,57476,57475,0.0009297429,-0.0100236088,0.9811327457,-13.7917013168,0.3787388504,-0.4492458403,2.0094363689,3.8943924904,0.3154984117,-0.4792381227,0.2438305616,1.2240982056
270,57486,57485,0.0154533079,0.0005063703,0.9974489808,-10.5123548508,-5.287665844,0.6277883649,2.0089640617,3.8944752216,0.3157390356,-0.3772366345,0.150533393,1.2354547977
271,57496,57495,-0.0413127504,0.0318081677,1.0239337683,-6.1391201019,-9.3899974823,1.4089335203,2.0108501911,3.8953483105,0.3158728778,-0.4290412366,0.0492270961,1.2602815628
272,57506,57505,-0.0250345934,-0.0399735458,0.9571110606,-0.3639944196,-7.7728896141,2.2543051243,2.0110838413,3.8950917721,0.319593668,-0.2956500649,0.0279694553,1.2643922567
273,57516,57515,-0.0200732984,-0.0970352888,1.0116745234,3.5652325153,-5.3997616768,2.8573589325,2.0114507675,3.8943302631,0.3199799955,-0.2010977119,0.1638906598,1.2793931961
274,57526,57525,-0.0593261719,-0.1781589687,0.965741694,7.6092510223,0.5499100685,3.3834321499,2.0118443966,3.8937411308,0.3203499317,-0.182135582,0.2795486748,1.3208420277
275,57536,57535,-0.0291447956,-0.0011957514,0.9830982089,11.9468688965,8.3433141708,3.3973343372,2.0121798515,3.8936934471,0.3226146102,-0.1855112165,0.3820989132,1.3580005169
276,57546,57545,-0.0212152973,-0.0341125838,0.9562447667,13.2436161041,15.7993049622,3.6669583321,2.013304472,3.8923819065,0.3229904175,-0.3290003836,0.6077021956,1.3738311529
277,57556,57555,-0.0288659111,0.0093055172,0.9711742401,9.5769529343,18.7724895477,3.3332562447,2.0135338306,3.8918292522,0.3233857453,-0.4929959178,0.6492206454,1.3558344841
278,57566,57565,-0.0390077904,-0.0651237816,0.9478808045,0.7448539734,16.8321342468,2.7045516968,2.0145916939,3.8919811249,0.3217273951,-0.7277775407,0.7312991619,1.3948982954
279,57576,57575,-0.0602671765,0.0169257876,0.9962077141,-10.9069128036,10.6039085388,2.1683561802,2.0151531696,3.8922095299,0.3219447732,-0.8923607469,0.6269735098,1.4065474272
280,57586,57585,-0.0193782281,-0.1059893072,0.9619501233,-16.4974460602,1.3911700249,1.8758866787,2.0156111717,3.8925540447,0.3221274614,-0.8469011188,0.4007877707,1.4345234632
281,57596,57595,-0.0272097699,-0.0005257716,0.9514781237,-15.9727830887,-4.2575125694,1.7088410854,2.0147294998,3.893453598,0.3224424124,-0.7679525614,0.2220895886,1.4459758997
282,57606,57605,0.0542611256,-0.0088285748,0.9263113737,-10.5308980942,-2.4951651096,0.8394917846,2.0142028332,3.8938038349,0.3221205473,-0.7513559461,0.0213353205,1.4517896175
283,57616,57615,-0.0560842566,0.0181675479,1.010076046,-4.136551857,-0.823423624,0.6418985128,2.0150763988,3.8939578533,0.3221861422,-0.7441605926,0.0033043027,1.4707573652
284,57626,57625,-0.0065470091,-0.036394015,0.9333741069,0.8801677227,3.0552558899,-0.2690208554,2.0152893066,3.8938441277,0.3221976161,-0.7255014181,-0.0019347268,1.4625412226
285,57636,57635,-0.1089229062,0.0198026169,0.9798080325,5.5122928619,2.0426287651,-0.6598984599,2.0148735046,3.8935880661,0.3194458485,-0.7263130546,0.0643566921,1.4789544344
286,57646,57645,-0.0918570906,-0.0097781159,0.9693281651,6.8380002975,4.5880737305,0.7982004285,2.0159618855,3.8924694061,0.3192037344,-0.8211164474,0.1749107391,1.45005548
287,57656,57655,-0.0045632045,0.0427765511,1.0033444166,6.8589606285,4.6500720978,1.487610817,2.0162060261,3.892534256,0.3189655244,-0.8473592401,0.2193730325,1.4532216787
288,57666,57665,0.0030708225,0.0108692646,0.9732701182,5.5130748749,1.2220681906,2.3992235661,2.0167388916,3.8920872211,0.3191345632,-0.9145662189,0.2518996,1.4464119673
289,57676,57675,0.0218730271,0.1045262888,0.9529260993,7.8832006454,-1.917047143,3.5445215702,2.0168025494,3.891220808,0.3189078271,-0.8627833724,0.365621537,1.4591685534
290,57686,57685,-0.0149502717,0.0794752017,1.0128163099,12.0113935471,-2.0614080429,4.047492981,2.0197873116,3.8918259144,0.318484664,-1.0726850033,0.3886142969,1.4698368311
291,57696,57695,-0.0270500612,-0.0283312965,0.9918503761,15.2848014832,-3.6759066582,3.822063446,2.0201177597,3.8908574581,0.3183149993,-0.9474232793,0.6286220551,1.530762434
292,57706,57705,-0.0227340143,-0.091101788,0.9697290659,13.9840326309,-2.8719847202,3.9570479393,2.0207254887,3.8914084435,0.3164831698,-0.9055510163,0.6437479854,1.5740876198
293,57716,57715,-0.022678202,0.0661289394,0.9839086533,12.1634616852,0.3265779912,3.8116724491,2.0211400986,3.8923909664,0.3161426783,-0.8942040801,0.7952870727,1.6060701609
294,57726,57725,0.0987486094,0.0592904016,1.0258142948,7.9324216843,3.819177866,3.9020848274,2.0235507488,3.8941898346,0.3156748116,-1.0060641766,0.8874794841,1.6922341585
295,57736,57735,0.1472159773,-0.0917863101,0.9477881789,2.4752573967,3.1422479153,3.2929363251,2.0242202282,3.8956694603,0.3146466613,-1.0455167294,0.9074964523,1.7560987473
296,57746,57745,-0.0268320795,-0.0243369378,1.0255316496,-4.2415041924,1.2128889561,3.454433918,2.0249779224,3.8959445953,0.3141746223,-0.9925405979,0.9004400373,1.8138129711
297,57756,57755,0.0903503299,-0.1022338867,1.0176334381,-8.4449501038,-3.4688239098,3.7965259552,2.0247364044,3.8960688114,0.3138150871,-0.8911219239,0.7986518741,1.8479814529
298,57766,57765,0.0363150872,-0.0819722638,1.1024771929,-7.4999270439,-2.7372841835,3.5991873741,2.0243453979,3.8965787888,0.3152240813,-0.8357497454,0.6776332259,1.8681395054
299,57776,57775,-0.0034900147,-0.016636841,1.0335321426,-2.6835546494,1.1371756792,3.3532085419,2.0250542164,3.8965718746,0.3149793148,-0.8214675784,0.6127841473,1.9042568207
300,57786,57785,-0.0820670724,0.0839756504,1.0023175478,2.6358120441,5.5966944695,3.5876438618,2.0254583359,3.8976266384,0.3147858977,-0.9560222626,0.7074381113,1.9505181313
301,57796,57795,-0.0049520605,0.0588878989,0.9167942405,6.3910460472,7.9392485619,3.6006567478,2.0272271633,3.8965010643,0.3150245249,-1.0066926479,0.7847112417,2.0098454952
302,57806,57805,-0.0419368148,0.006795628,0.9786936045,7.686498642,9.1067848206,4.4384331703,2.02922225,3.8968548775,0.3146927953,-1.2150679827,0.8357333541,2.0392122269
303,57816,57815,0.002087611,0.0239968058,1.020888567,3.9791402817,8.1341915131,5.2213320732,2.0291535854,3.8968660831,0.3146236241,-1.1882596016,0.9338659048,2.122505188
304,57826,57825,0.0101365484,-0.0740903616,0.9328102469,-2.5326690674,2.6018126011,5.1631536484,2.0301239491,3.896392107,0.3143767416,-1.2620996237,0.9366798401,2.1632404327
305,57836,57835,0.1226728484,-0.0153060509,1.0148619413,-10.2275810242,-5.9309616089,5.1595950127,2.030841589,3.8968834877,0.3096425533,-1.3145810366,0.8924595714,2.2146670818
306,57846,57845,-0.0074616605,0.0193553846,1.0441293716,-16.4145908356,-11.885178566,5.3397841454,2.0306520462,3.8972046375,0.3092368543,-1.1431993246,0.6605650783,2.229367733
307,57856,57855,0.0961588919,-0.0511405431,0.9609864354,-20.6700630188,-15.1292314529,5.215297699,2.0312509537,3.8973755836,0.3087630272,-0.9773173332,0.4988685548,2.2998895645
308,57866,57865,-0.0351768956,0.0064014993,1.0166393518,-20.7835388184,-12.9112710953,5.0074772835,2.033493042,3.8951852322,0.3079114556,-0.9523023963,0.4485179484,2.3299708366
309,57876,57875,0.0121433139,0.0215200596,1.0304874182,-15.9977855682,-7.6239089966,4.8106598854,2.0346360207,3.894616127,0.3073653579,-0.8387228847,0.2546396255,2.3565311432
310,57886,57885,0.0063996874,-0.0231315959,0.9894185066,-7.2072434425,-1.439792037,4.5172395706,2.0355205536,3.8948152065,0.3068346083,-0.7806136012,0.083501026,2.3979990482
311,57896,57895,-0.0011753058,0.0366351828,1.0333036184,1.3250054121,2.2961089611,3.8883259296,2.0361709595,3.8957912922,0.3093664348,-0.7443948388,-0.0107946498,2.4717316628
312,57906,57905,-0.0085901311,0.1274151951,1.0186433792,9.0995702744,1.493679285,2.8776443005,2.037147522,3.894744873,0.3090492487,-0.7411898971,0.1487965584,2.5209901333
313,57916,57915,0.0421219878,0.1455595046,1.0426485538,10.7339887619,2.4203379154,1.3860834837,2.0378417969,3.8937411308,0.3087516427,-0.757234633,0.2443985939,2.5274555683
314,57926,57925,0.0046832436,0.0347211249,1.0474030972,7.026638031,-1.9426621199,-1.0341715813,2.0407721996,3.8923721313,0.3082519472,-0.9673870802,0.3988664448,2.4909141064
315,57936,57935,0.0138992639,-0.115505591,0.9782984853,0.1307373494,-6.5929136276,-2.3354332447,2.0410759449,3.8922684193,0.3075918257,-0.868514657,0.4706113338,2.4998369217
316,57946,57945,0.0637170672,-0.0587454624,1.0158088207,-9.3586606979,-12.2919492722,-4.0037155151,2.0422165394,3.8912191391,0.3073171973,-0.795206666,0.3798598349,2.4423127174
317,57956,57955,-0.0430394448,0.1076762229,1.0476195812,-15.3265285492,-17.3932285309,-4.0768818855,2.0435376167,3.8917250633,0.3070504665,-0.6581564546,0.2638410628,2.3894808292
318,57966,57965,0.0718056783,-0.0428410619,0.9675569534,-18.5723819733,-18.814201355,-5.626098156,2.0452368259,3.8905780315,0.3046993315,-0.4600453377,0.1870100498,2.353354454
319,57976,57975,0.0080198273,-0.0008911574,1.0307596922,-17.4006519318,-13.0965747833,-6.8065056801,2.0454969406,3.8913197517,0.3044385314,-0.1922260225,-0.0776749253,2.3055055141
320,57986,57985,0.1007577032,-0.1313256323,1.0495644808,-14.346455574,-6.1621432304,-7.2718696594,2.0478971004,3.8896861076,0.303986758,-0.1838641316,-0.1608071178,2.2076489925
321,57996,57995,0.0809959322,-0.0290829539,1.0561611652,-9.0708913803,4.6983890533,-7.637860775,2.0489492416,3.8890037537,0.3046795428,-0.1832515746,-0.260427177,2.1244277954
322,58006,58005,0.0184712894,0.0883032382,1.0453746319,-5.6911563873,8.1466674805,-7.8597464561,2.050568819,3.8892712593,0.3043958545,-0.2977032959,-0.4334079623,2.0223693848
323,58016,58015,0.0175981,0.1519712359,1.0523159504,-3.6644654274,7.9099974632,-7.5985760689,2.0517971516,3.8880360126,0.3042219877,-0.384152323,-0.3972896039,1.9385367632
324,58026,58025,0.0597612113,0.0740169883,1.0599544048,-3.2020893097,1.6482186317,-7.946082592,2.0528450012,3.8883938789,0.3026639223,-0.4516966045,-0.4928171039,1.8558250666
325,58036,58035,-0.0537712201,0.0113530019,1.0081025362,-2.3908069134,-5.7016329765,-7.7884511948,2.0538132191,3.8871688843,0.3025399745,-0.3901693523,-0.4952620566,1.7378816605
326,58046,58045,-0.0604131073,0.0823898315,1.0412033796,-4.1151294708,-12.2084436417,-7.1648802757,2.0554726124,3.8873839378,0.302305907,-0.3762105405,-0.5720248222,1.6531569958
327,58056,58055,-0.043131128,-0.0048536221,1.0435101986,-4.9502987862,-13.1685600281,-7.2438664436,2.0567903519,3.8869247437,0.3021568656,-0.2613989711,-0.594858706,1.5819135904
328,58066,58065,0.0325110778,0.0725752041,1.0288755894,-5.1085176468,-13.46687603,-7.2999768257,2.0574281216,3.8865733147,0.3020968139,-0.0466040075,-0.6308211684,1.5113626719
329,58076,58075,-0.0199477896,-0.0035259032,1.041279912,-5.0110225677,-11.0392141342,-7.318087101,2.0579185486,3.8868684769,0.3021086454,0.1499546468,-0.7407260537,1.4357867241
330,58086,58085,-0.0332700685,-0.1256452799,1.0356750488,-4.0599956512,-6.9647169113,-7.6337976456,2.0602402687,3.8849701881,0.3020372689,0.1461583227,-0.6865184903,1.3293228149
331,58096,58095,-0.0046893861,-0.0004662048,1.0618613958,-2.546053648,-2.4602563381,-7.645427227,2.0624623299,3.8852212429,0.302739501,0.1606560796,-0.7768191099,1.2563018799
332,58106,58105,0.0663357675,0.0010251496,0.9771558642,-1.1142864227,2.3852448463,-7.6460466385,2.0634791851,3.885453701,0.3028407693,0.1815350056,-0.8345615864,1.1847136021
333,58116,58115,-0.1019273624,0.0485936999,1.0444155931,0.1345837414,-0.2659687996,-7.3660550117,2.0642859936,3.8842630386,0.3030283749,0.1935346872,-0.7938662171,1.0739189386
334,58126,58125,-6.87919091433287E-05,-0.0358532071,1.0397292376,-1.1059274673,6.1819748878,-6.8028063774,2.0671460629,3.8843986988,0.3022602499,-0.0312341824,-0.8223381639,1.0152089596
335,58136,58135,-0.0664252043,0.0254952721,0.9829655886,-0.4372754693,3.6564400196,-6.7096204758,2.067912817,3.8838880062,0.3025322855,0.0207954794,-0.8529466391,0.9064612389
336,58146,58145,-0.0898068026,0.1802383512,1.0824245214,-0.1365749389,1.6707240343,-6.1982645988,2.0694026947,3.8834908009,0.3026602566,-0.0518103912,-0.8726739883,0.8170369864
337,58156,58155,-0.0198091194,-0.0159138981,0.9920914173,1.1226220131,0.5008741617,-5.5378546715,2.070319891,3.8834176064,0.3029842079,-0.0073688924,-0.803809464,0.7829838395
338,58166,58165,0.0206737891,-0.0935645252,1.0212327242,4.789018631,-4.7517566681,-5.155772686,2.0716073513,3.8831615448,0.3042385876,-0.0157091618,-0.7807098031,0.7249916792
339,58176,58175,0.0427869931,-0.0473043621,0.9876366854,6.9476413727,-8.001958847,-4.9584026337,2.071472168,3.882778883,0.3047442138,0.2167182565,-0.7037144303,0.6510688066
340,58186,58185,0.0107064145,-0.1585086584,1.0015499592,6.6644310951,-7.9428768158,-4.2593975067,2.0745947361,3.8823735714,0.3048520982,0.0913678855,-0.5969728827,0.6287430525
341,58196,58195,0.0164479651,-0.1999471039,0.9933030605,3.6207695007,-8.0698013306,-4.3221626282,2.0760724545,3.8827941418,0.3018144667,0.2303961664,-0.581284523,0.5851402283
342,58206,58205,-0.0132485144,-0.0367702097,1.0316596031,-0.8710535765,-9.9885721207,-4.7057499886,2.07782197,3.8837196827,0.3018889427,0.2795109749,-0.5445237756,0.6026477814
343,58216,58215,0.0339043215,-0.1196134388,0.9413654208,-5.3847618103,-6.7609639168,-5.3319535255,2.0784254074,3.8847022057,0.3022025228,0.4966829419,-0.5886411667,0.5866577625
344,58226,58225,-0.0250982381,0.0574738272,1.0617008209,-7.8156218529,-4.8845276833,-5.7737426758,2.0804827213,3.8849363327,0.3046144545,0.4979682565,-0.6175636053,0.5659508109
345,58237,58235,-0.0384472311,-0.1348350346,1.0037684441,-7.1089997292,-0.3902076781,-6.5757889748,2.0814130306,3.8855144978,0.3048859239,0.3833924234,-0.8013437986,0.5529406071
346,58246,58245,0.0228830166,0.0155815594,1.0121327639,-3.8526520729,6.3239827156,-6.5708742142,2.0844721794,3.8858914375,0.30506441,0.3876086771,-0.8636749983,0.4635802209
347,58256,58255,0.0360778794,0.0307172425,0.9562607408,0.8883868456,5.3950843811,-6.1337547302,2.0847690105,3.8862066269,0.3055904508,0.4359849989,-0.8277179599,0.4169956446
348,58266,58265,0.0129545741,-0.0291496255,0.9444782138,6.0203032494,4.1970181465,-4.8747906685,2.0868680477,3.8858127594,0.3037317693,0.3085258603,-0.7404352427,0.3502269685
349,58276,58275,-0.0329067335,0.0400650464,1.0532813072,9.7775735855,1.8830118179,-3.842748642,2.0877234936,3.8851799965,0.3039346337,0.2856245041,-0.6629619002,0.2940987647
350,58286,58285,0.0210390892,-0.0460902378,0.9430282116,11.001750946,-1.2460446358,-3.3236508369,2.087998867,3.884768486,0.3042922616,0.4048446715,-0.4954963028,0.2519882619
351,58296,58295,-0.0039053352,0.0170239154,0.9830730557,10.561589241,-6.4871864319,-2.81133008,2.091080904,3.8856930733,0.3045794666,0.2818512321,-0.4672867656,0.2527033985
352,58306,58305,0.0327200294,0.0046767709,0.9851426482,7.0977210999,-10.3234128952,-3.0866444111,2.0904123783,3.8865129948,0.304953903,0.5509259701,-0.3791309297,0.2476793975
353,58316,58315,-0.059523616,0.0511145219,0.9945704937,2.365036726,-11.3864631653,-4.3424553871,2.0924623013,3.8867435455,0.3049769402,0.5481119752,-0.3474784195,0.2253433019
354,58326,58325,-0.0267572291,0.0060427263,0.981970191,-4.578057766,-8.3749008179,-5.0314769745,2.0931518078,3.8866889477,0.3034287691,0.7051253319,-0.3304757774,0.1702030301
355,58336,58335,-0.0930067226,0.100128606,1.0206185579,-8.7713451385,-5.9968214035,-5.0037355423,2.0948429108,3.8862948418,0.3034129143,0.740057826,-0.4219466746,0.0783349574
356,58346,58345,-0.0739289746,0.1097448915,0.9905903339,-8.1027526855,-3.7845110893,-4.5784401894,2.0951783657,3.8867468834,0.3034992516,0.885201633,-0.5619535446,0.0177248623
357,58356,58355,-0.0326606445,0.011455874,0.9980354309,-2.8362834454,-1.7594945431,-4.1704616547,2.0981423855,3.8870580196,0.3053369224,0.7558947802,-0.6573595405,-0.022849327
358,58366,58365,0.0409571305,-0.0952051803,1.0179225206,3.8588414192,-0.7787051797,-3.8690087795,2.0981013775,3.8867561817,0.3056305945,0.9086199999,-0.6525476575,-0.1077360734
359,58376,58375,0.0642459765,-0.1149598956,1.025001049,10.8420991898,0.0290968865,-3.5602505207,2.0993762016,3.8864591122,0.3057952821,0.8956512213,-0.5270789862,-0.1524529308
360,58386,58385,0.0842154175,-0.1280760467,0.9529401064,15.7404756546,-2.2645676136,-2.9441649914,2.1013255119,3.886567831,0.3058571219,0.8109375834,-0.3720903695,-0.1678821743
361,58396,58395,0.0087249856,0.0828876719,0.9915344119,16.5039329529,-5.0414705276,-3.0600278378,2.1018686295,3.8861124516,0.3064383566,0.9174367189,-0.1544165909,-0.2133401334
362,58406,58405,0.0141751198,0.1171446741,0.9915258288,14.9859619141,-1.851467967,-2.9700026512,2.1021773815,3.884786129,0.3066406548,0.9943678975,0.0038164062,-0.2552051544
363,58416,58415,-0.0074051353,-0.0864606574,1.0162130594,9.5402946472,1.3869711161,-3.8429756165,2.1034064293,3.8858294487,0.3068452775,0.9961906075,0.1417602897,-0.3063552082
364,58426,58425,0.0063934131,-0.2741299272,1.0336157084,-1.2171978951,7.7775621414,-5.4014472961,2.1050384045,3.8871028423,0.3059834838,0.8943403363,0.0972975567,-0.3093521297
365,58436,58435,0.0157267079,-0.1233559027,0.9635801911,-10.8873710632,12.4035778046,-6.6101808548,2.1069850922,3.8870742321,0.3060034215,0.6864959002,0.0375525244,-0.3751232922
366,58446,58445,0.0166499093,0.0197789259,0.98347646,-16.4658279419,8.2760791779,-7.6324477196,2.1078605652,3.8879089355,0.3061312437,0.6159178615,-0.1755844951,-0.4378632307
367,58456,58455,-0.0495640859,0.0131317163,1.0074678659,-11.3933000565,0.8994365931,-6.8814663887,2.108600378,3.8884458542,0.3055024743,0.6331210136,-0.4021904171,-0.536227107
368,58466,58465,0.0273762718,-0.0278480817,0.957498014,-2.7605891228,-7.1718349457,-5.3154211044,2.1089646816,3.8866891861,0.3057557046,0.7776305079,-0.2783112824,-0.6406998038
369,58476,58475,-0.0083746249,-0.0133201201,0.9984912276,8.0122098923,-10.5067825317,-2.8295211792,2.1099481583,3.8873519897,0.305808574,0.8731796741,-0.2350030839,-0.6458599567
370,58486,58485,0.0351347923,-0.0943711475,1.0027061701,13.3584880829,-11.5256557465,-1.0762674809,2.1095716953,3.8871583939,0.3058429956,0.9506382942,-0.016315002,-0.6417813897
371,58496,58495,-0.0468239151,-0.0491175577,0.9934540391,16.5686855316,-7.9067034721,-0.9799052477,2.1119599342,3.8870203495,0.3092129529,1.0475164652,0.1388081014,-0.657710135
372,58506,58505,0.0100747785,-0.0066033914,0.9366540313,16.6462421417,-0.4185003638,0.2872361839,2.1127970219,3.8891451359,0.309442848,1.0746170282,0.1264079511,-0.6125680804
373,58516,58515,0.0420197882,-0.0870557874,1.0027649403,11.6432142258,5.7571148872,0.9003186226,2.1142086983,3.8870499134,0.3095870018,0.9948453903,0.4010676742,-0.6930961013
374,58526,58525,-0.0388359949,0.0814340338,1.0090674162,4.9340586662,12.3434944153,1.2482689619,2.1144785881,3.8876063824,0.3113773167,0.7336964607,0.4551831484,-0.6357287765
375,58536,58535,-0.0130228037,-0.0525248908,0.9153226018,-1.1941483021,15.5273666382,1.1224212646,2.1184515953,3.8882696629,0.3118351698,0.5890514851,0.4697016776,-0.6144660115
376,58546,58545,0.0508653708,0.0987561494,0.9623047709,-6.7990870476,14.0551548004,1.1276321411,2.1179189682,3.8888049126,0.3122788966,0.5709742904,0.4197392464,-0.5732605457
377,58556,58555,-0.0597287342,-0.025140563,0.9988699555,-7.4137477875,8.3836727142,0.9757876396,2.1187725067,3.8886942863,0.3092419207,0.4674731195,0.3116053641,-0.5915201902
378,58566,58565,-0.0537832715,-0.0814841166,0.9777018428,-6.5693407059,3.5487782955,0.504478991,2.1188099384,3.8889629841,0.3092872798,0.5762836337,0.17417261,-0.5733112693
379,58576,58575,-0.0078062261,0.0133168371,0.9948624969,-1.2273583412,-2.0184562206,0.2235663384,2.1187412739,3.8900101185,0.3094047308,0.5749042034,0.1354099512,-0.5422908664
380,58586,58585,-0.089028582,0.0133021316,1.0162366629,5.4682035446,-6.2861628532,-0.2133396268,2.1199598312,3.8898136616,0.3093580008,0.5801417232,0.1818287522,-0.5598676205
381,58596,58595,0.0408808999,-0.0345324986,0.9804940224,9.5051937103,-6.6459445953,-0.2077686787,2.1200373173,3.8887293339,0.3077533245,0.6911864281,0.318585217,-0.6091802716
382,58606,58605,-0.0279827304,0.0417974703,0.9532526135,13.6106987,-5.402557373,0.7163125277,2.1192667484,3.8875091076,0.3077686429,0.8092722893,0.5210318565,-0.6461708546
383,58616,58615,0.0345858037,-0.0889337286,0.9901506901,12.262966156,0.792788744,2.5459077358,2.1202976704,3.8876385689,0.3075263202,0.8514832258,0.597535491,-0.6395894289
384,58626,58625,-0.0022751575,-0.079173483,1.0391563177,2.8584132195,12.9463996887,3.1487445831,2.1209974289,3.8881323338,0.3089281321,0.772359252,0.6866773367,-0.5672541261
385,58636,58635,0.0165611971,-0.0219662469,0.9634102583,-5.1388297081,18.9189739227,4.5455770493,2.1214785576,3.8891575336,0.3089567721,0.5140746832,0.5826124549,-0.4940754771
386,58646,58645,-0.007665812,0.0415602177,1.0323703289,-10.0213470459,18.6542510986,6.6528325081,2.1232945919,3.8895788193,0.3087899387,0.3256551921,0.503988862,-0.4342036247
387,58656,58655,0.006956751,-0.0706896484,0.9511592388,-9.8908672333,14.0878200531,8.2318181992,2.1233184338,3.8902204037,0.3085611761,0.1855872124,0.3430097401,-0.3433936238
388,58666,58665,-0.0514308363,-0.0885183662,0.9853413701,-6.591709137,5.5844283104,8.7088518143,2.1242320538,3.890679121,0.3084061742,0.152284205,0.2151538134,-0.2791300714
389,58676,58675,-0.0724112391,-0.0513774976,0.9862383604,-2.2960336208,-3.3862826824,8.7734527588,2.1236319542,3.8909211159,0.3084538579,0.1855672747,0.2709318399,-0.228691563
390,58686,58685,0.0293381903,-0.0531627797,1.001583457,4.9980101585,-6.5994114876,9.9740009308,2.1237778664,3.8908779621,0.3083144426,0.1975581944,0.2273267508,-0.1406629533
391,58696,58695,0.0713058934,-0.2767575383,0.9899491072,10.5776481628,-6.0997552872,11.0922269821,2.1232461929,3.8904459476,0.308149308,0.3408537507,0.3044828176,-0.0534141324
392,58706,58705,0.0001137806,-0.1499851793,1.0782599449,10.4541034698,-0.8807946444,11.8104124069,2.1225750446,3.8896389008,0.3080491424,0.4843562245,0.4763155878,0.0462801568
393,58716,58715,0.006687839,-0.1786730736,1.0157643557,7.0325498581,8.4434652328,11.7946281433,2.1237819195,3.8894665241,0.3079252541,0.4096190631,0.5792626143,0.1058812365
394,58726,58725,0.1004123837,-0.0648827627,1.0318197012,3.1194720268,21.5031738281,12.251332283,2.124237299,3.8888788223,0.3092736006,0.3711305261,0.7135284543,0.2577538788
395,58736,58735,0.0440980345,-0.1630021334,1.0503493547,-4.232319355,27.44298172,13.3346233368,2.1252052784,3.888535738,0.3092936277,0.0903739035,0.6930318475,0.3235069811
396,58746,58745,0.0268519539,-0.0919075385,1.0418645144,-11.0704050064,33.3553085327,14.7203063965,2.1263103485,3.8894231319,0.3093501031,-0.2164632976,0.6425856352,0.4890669286
397,58756,58755,-0.1145870313,0.0017178297,1.0337367058,-14.8406171799,31.8107795715,15.0862693787,2.1266775131,3.889756918,0.3112975359,-0.5447757244,0.4757871032,0.6137548685
398,58766,58765,-0.0504410937,0.1459566504,0.9502714872,-14.0578708649,26.8897609711,14.9175662994,2.1263525486,3.889998436,0.3118158579,-0.7027781606,0.3983217478,0.8225948811
399,58776,58775,-0.0353183076,0.1677378267,0.9790030122,-8.1355400085,19.3925418854,13.1413831711,2.126285553,3.8911049366,0.3121460676,-0.9719102383,0.2380853593,1.0542253256
400,58786,58785,-0.0582252555,0.0350844674,1.0485762358,-2.1909732819,11.3757972717,11.6789999008,2.1266942024,3.8906049728,0.309008956,-1.3426443338,0.1163219586,1.2818366289
401,58796,58795,-0.1052237377,0.0503302068,0.9729692936,-0.6243351698,4.6424913406,10.2418251038,2.1265189648,3.8909459114,0.3091630042,-1.2867754698,0.1013543457,1.3157781363
402,58806,58805,-0.0692417994,-0.0483073033,1.0128773451,1.5189427137,3.192109108,9.8741579056,2.1270430088,3.8913183212,0.3093287945,-1.3276039362,0.1671510786,1.4798516035
403,58816,58815,-0.0256578997,-0.0363347605,1.0067526102,2.375774622,6.1133117676,9.4790649414,2.127425909,3.8905184269,0.3094663918,-1.3396482468,0.2540493608,1.5855708122
404,58826,58825,-0.0596190356,0.0535771549,0.9478974938,2.3156168461,7.5656709671,9.5594949722,2.1285448074,3.8911886215,0.3106949627,-1.4749106169,0.193585217,1.6728839874
405,58836,58835,-0.0553350076,0.1373113096,1.0139496326,2.4060664177,7.6119127274,10.2159032822,2.1287643909,3.8902013302,0.3108623326,-1.5467303991,0.222311303,1.7346736193
406,58846,58845,-0.0931979865,0.0809175298,0.9281519651,1.6555502415,5.9094967842,10.9933586121,2.1291229725,3.8911931515,0.3110322654,-1.6840293407,0.2808943093,1.9953570366
407,58856,58855,-0.0310017206,0.0499373376,0.8790630102,-1.8189452887,4.4442658424,9.8255987167,2.1298742294,3.8916449547,0.3141158819,-1.6680725813,0.2786299884,2.0294713974
408,58866,58865,0.04941063,-0.0032179356,0.9761638641,-3.0167503357,1.4542993307,9.6694498062,2.1307311058,3.8929586411,0.3143143952,-1.7786126137,0.0998922512,2.0838170052
409,58876,58875,0.135298416,-0.1333777159,0.9735432863,-2.4414517879,-2.135787487,10.1368894577,2.130474329,3.8919548988,0.3145907819,-1.7637666464,0.2013097554,2.2271313667
410,58886,58885,0.0152982501,-0.025288498,0.9827349186,0.2008655369,-4.5931835175,10.751411438,2.1318206787,3.8910243511,0.3130412102,-1.8003938198,0.14958179,2.2695593834
411,58896,58895,-0.0726466849,0.0689082667,1.0110366344,2.7808601856,-7.1991090775,11.6015625,2.1326038837,3.8896167278,0.313016206,-1.801261425,0.2882229686,2.4090723991
412,58906,58905,-0.072689414,0.1657110751,0.9791989326,-0.8113116622,-7.1966114044,12.5505304337,2.1327664852,3.8885891438,0.3130641878,-1.6828368902,0.3054933846,2.4662466049
413,58916,58915,-0.0609010085,0.123705551,1.0225484371,-4.1549711227,-10.059715271,13.0108203888,2.1335837841,3.8888683319,0.3130648732,-1.6227935553,0.2842310369,2.5721852779
414,58926,58925,0.008526708,-0.083637163,0.9640856981,-6.2881970406,-10.8469486237,12.402964592,2.1334536076,3.8880221844,0.3161461651,-1.443576932,0.2118714452,2.6469209194
415,58936,58935,-0.0093286317,-0.0891603827,0.9407903552,-6.9281997681,-10.0067491531,12.0341863632,2.1340475082,3.887499094,0.3163002729,-1.3362665176,0.1009940505,2.6867282391
416,58946,58945,-0.1228251681,0.0482791737,1.0149985552,-8.1057863235,-6.589425087,11.834113121,2.1363973618,3.8873341084,0.3163169026,-1.3799411058,0.0530682616,2.8061103821
417,58956,58955,0.1326806843,-0.0868866742,0.9666316509,-4.7697534561,-6.0056834221,11.9102535248,2.1374628544,3.8859348297,0.3141348064,-1.3131899834,0.0598739833,2.9006323814
418,58966,58965,0.0659098774,-0.0098300809,1.0160175562,-4.7822356224,-9.3735389709,10.4840011597,2.1373622417,3.8867976665,0.3142082393,-1.1842260361,-0.0407630131,3.0510547161
419,58976,58975,0.022668492,-0.0123088295,0.9669408798,-8.3401241302,-13.8795089722,9.5334100723,2.1398653984,3.8866589069,0.3140498698,-1.2355099916,-0.059687674,3.1680688858
420,58986,58985,0.1735841781,-0.0982792377,0.9578106403,-14.0459108353,-18.0632839203,7.9382414818,2.1403028965,3.8872671127,0.3136898875,-1.0441627502,-0.2107794732,3.1979367733
421,58996,58995,0.0377624966,-0.055669114,0.9435462952,-15.3180217743,-22.117811203,6.4822597504,2.1396272182,3.8871362209,0.3136899173,-0.7140378356,-0.3664903343,3.316110611
422,59006,59005,0.0643189922,-0.0777321085,0.9887287617,-11.1440038681,-15.4451036453,4.7955179214,2.1423649788,3.8859908581,0.3134370446,-0.7190830112,-0.4065562189,3.3995761871
423,59016,59015,-0.0003531998,-0.0154523617,0.9946632981,-1.3292964697,-8.9754829407,4.3443903923,2.1428239346,3.8861196041,0.314175725,-0.491831392,-0.5452212691,3.4628694057
424,59026,59025,-0.1313881129,-0.1060916185,1.0290317535,7.3871054649,-0.2931353152,3.7675719261,2.1434788704,3.8847751617,0.3140150607,-0.3483956158,-0.5229945183,3.4635438919
425,59036,59035,-0.1318120211,-0.0174140278,1.0744860172,8.9631071091,3.6053729057,3.3359191418,2.1451396942,3.8843748569,0.313863039,-0.3665305674,-0.4390471578,3.5589137077
426,59046,59045,-0.1151524261,-0.0233221278,0.9683588147,10.5770664215,3.7066988945,1.9707770348,2.1469426155,3.884660244,0.3136811554,-0.4490498006,-0.3125073314,3.6204385757
427,59056,59055,-0.0871830136,0.0597651452,1.027875185,8.4616136551,3.5138969421,0.8886303902,2.1468429565,3.8843402863,0.3141424358,-0.3868233263,-0.2428898066,3.6060557365
428,59066,59065,0.0274975169,0.0362262726,0.8929236531,4.8426699638,0.3085117936,-0.7371203899,2.1479027271,3.8836631775,0.3140652776,-0.4305308759,-0.1245019883,3.6074457169
429,59076,59075,-0.0823252872,0.0768516958,1.035687089,0.8576101065,-4.3634886742,-0.8839172125,2.1490821838,3.8844585419,0.313957274,-0.5058184266,-0.2169520557,3.5558891296
430,59086,59085,-0.0648343563,-0.1248074248,1.0050960779,-3.3460052013,-8.2618999481,-0.6685262918,2.1487207413,3.884272337,0.3163537085,-0.3502399325,-0.2117772549,3.5332610607
431,59096,59095,-0.0413684845,-0.0169266053,1.0040301085,-6.3196592331,-14.7760486603,-1.1466567516,2.1512868404,3.8842980862,0.3162901998,-0.4286891222,-0.2790672183,3.5055656433
432,59106,59105,-0.0123478482,0.0318986252,0.9848853946,-5.3614964485,-20.2674121857,-1.0860375166,2.1527063847,3.8848185539,0.3163300455,-0.2973483801,-0.3828427196,3.4973974228
433,59116,59115,-0.083277218,0.0876569971,1.0165984631,-3.1464209557,-18.5029582977,-0.3941859305,2.1523423195,3.884914875,0.3140771091,0.0627969205,-0.3985028267,3.525121212
434,59126,59125,0.0540592633,-0.0069436198,0.9066423774,1.387422204,-13.0907535553,0.4172389805,2.1538805962,3.8848521709,0.3139038384,0.167654261,-0.4518634677,3.499434948
435,59136,59135,-0.0618218705,0.1115510091,0.9123783112,4.1792759895,-7.6223807335,0.7411323786,2.1548910141,3.8848016262,0.313703835,0.2925117016,-0.4360411465,3.51278615
436,59146,59145,-0.07848645,0.0687727556,1.0058119297,0.1705370694,-4.8765873909,0.5505333543,2.1564071178,3.8848319054,0.3134075105,0.3084548116,-0.3797456324,3.5386211872
437,59156,59155,-0.0455302298,-0.0315063335,0.9877423048,-5.9619817734,0.5578765869,-0.52701509,2.1580007076,3.8849930763,0.3136433661,0.3687662184,-0.3722205758,3.5472819805
438,59166,59165,0.0033340673,-0.0186055824,0.9745606184,-8.7288599014,1.5799992085,-0.6913251877,2.159460783,3.8853273392,0.3133094311,0.328360647,-0.4650163352,3.5294864178
439,59176,59175,0.0553316101,-0.0309954137,0.943749547,-7.160844326,-1.0247058868,0.5064456463,2.1596889496,3.8853895664,0.3130898476,0.4124744534,-0.6045226455,3.4807252884
440,59186,59185,-0.0256919824,-0.1025679931,0.9748128057,-3.2559177876,-1.6972482204,1.8334935904,2.1604521275,3.8849079609,0.3110894859,0.3933431506,-0.6406547427,3.4656093121
441,59196,59195,-0.1194703579,-0.0591084696,1.0430030823,5.2686576843,-4.0626134872,3.2699995041,2.1611402035,3.8838427067,0.3106503487,0.4597870708,-0.619907558,3.4519026279
442,59206,59205,-0.0318860449,0.0004633405,1.04680264,15.2470016479,-6.7771196365,3.3114972115,2.1628341675,3.8828754425,0.3100975752,0.4188193679,-0.5408182144,3.4227814674
443,59216,59215,-0.0272854082,-0.0612220392,1.0833001137,24.5063838959,-5.7685518265,3.9339776039,2.163844347,3.882547617,0.3100955188,0.4879763424,-0.377166748,3.4541759491
444,59226,59225,0.0170718431,-0.0596405715,1.0654563904,30.6439361572,-5.2103939056,3.0226149559,2.1638419628,3.8814833164,0.3098241389,0.6881244183,0.0122803831,3.523733139
445,59236,59235,-0.1412609369,0.1070467457,1.0527744293,25.2554702759,-0.2956826687,0.4983276427,2.164888382,3.8833785057,0.3096305728,0.7292177081,0.1089934707,3.5848240852
446,59246,59245,-0.0299365669,-0.0117699355,1.046563983,12.8422822952,7.406648159,-2.9542706013,2.1662151814,3.8846781254,0.309351474,0.6723464131,0.3863321841,3.6974544525
447,59256,59255,0.0129395379,-0.0737933666,0.9722738266,-0.9155604839,11.0706262589,-3.8314371109,2.1667277813,3.8839874268,0.3104436398,0.6620961428,0.5455132127,3.6582255363
448,59266,59265,0.1041723043,-0.0428992249,0.8834191561,-14.091711998,12.4482545853,-3.4810087681,2.1676900387,3.8854727745,0.3103623092,0.5146951675,0.4723524749,3.6401541233
449,59276,59275,0.036641039,-0.0585417859,1.0323029757,-21.2078781128,9.3584718704,-3.7440648079,2.1687657833,3.8857886791,0.3101647794,0.3303439021,0.2630193532,3.5586180687
450,59286,59285,0.0661900491,0.0090013221,1.0113694668,-19.1009540558,9.8728513718,-3.4171895981,2.1694235802,3.8869245052,0.307914257,0.2636342049,0.0043803346,3.5297746658
451,59296,59295,-0.07213144,0.1478920579,1.0022361279,-12.6264972687,5.6403532028,-3.5086481571,2.1693460941,3.8863487244,0.3076334,0.2028517872,-0.1477940083,3.5041174889
452,59306,59305,0.0636694506,0.0794861168,0.9666393399,-3.1678786278,3.9934792519,-2.7950708866,2.1695995331,3.885935545,0.3074047565,0.195475325,-0.2786389589,3.4227368832
453,59316,59315,0.1612435281,-0.0681873709,1.0194003582,4.2651195526,0.9484125376,-2.7784237862,2.1692383289,3.8854725361,0.3064669371,0.2205862403,-0.259024322,3.4007775784
454,59326,59325,0.0306978058,-0.0850543827,0.9939603209,10.4087972641,2.3517885208,-2.1860260963,2.1709988117,3.8850486279,0.3061035275,0.130045563,-0.1963837594,3.3559305668
455,59336,59335,0.0588523448,-0.0819288492,1.0019443035,14.8608379364,1.3828477859,-2.8915212154,2.1717505455,3.8843860626,0.3058011532,0.1250196844,-0.0220230892,3.3310210705
456,59346,59345,0.0968462527,-0.1052248552,1.0388095379,14.4460964203,-4.1789736748,-3.8625435829,2.1732296944,3.8849420547,0.3056083024,0.028170323,0.0621429868,3.3098785877
457,59356,59355,-0.0090962714,-0.0681649819,1.0330886841,10.0475282669,-7.5870380402,-6.3047790527,2.1740603447,3.8844850063,0.305275619,0.048511669,0.1576396972,3.1975514889
458,59366,59365,-0.0235053394,-0.0962292254,1.0742245913,1.3168967962,-6.5441918373,-7.1686844826,2.1734199524,3.8847494125,0.3051687479,0.2988964915,0.3450146317,3.2014322281
459,59376,59375,0.0599551946,-0.0989874676,0.959700942,-9.304397583,1.6806063652,-8.1877450943,2.1741037369,3.884622097,0.3049301803,0.3253951669,0.3802953959,3.1200640202
460,59386,59385,-0.0408680961,0.1224985123,0.9448590279,-19.423166275,0.8889837861,-10.0804853439,2.1755142212,3.886071682,0.3055392802,0.254745394,0.2391438037,3.0936703682
461,59396,59395,-0.0326936394,0.0628880709,0.9155057073,-24.2642173767,5.5718793869,-10.6069402695,2.1750621796,3.8867650032,0.3054190874,0.3389873803,-0.0585564487,2.9608504772
462,59406,59405,-0.0096297776,0.0237172656,1.015857935,-23.4858703613,6.0731425285,-11.0287714005,2.1773722172,3.8845355511,0.3050668538,0.1026798934,-0.1345487088,2.7341089249
463,59416,59415,0.1436489224,-0.2066230476,1.089165926,-14.6287250519,5.9679403305,-11.3581161499,2.1774339676,3.8847420216,0.3055699766,0.1070254743,-0.4511882961,2.6360676289
464,59426,59425,0.0948224217,-0.1018161997,0.9947798252,-7.7112193108,3.574154377,-12.0589694977,2.1779532433,3.8849189281,0.3053586483,0.0353982486,-0.6265058517,2.5223431587
465,59436,59435,-0.0403526686,-0.0947916955,1.054484129,-0.9698550105,0.3213543594,-12.7568597794,2.1795327663,3.8847463131,0.3051770329,-0.0827470943,-0.6763783097,2.4019150734
466,59446,59445,0.0063111917,0.0024574273,1.0044748783,5.3799858093,-1.3314630985,-13.2707109451,2.1795318127,3.8850164413,0.3051491678,0.0219925046,-0.6832224727,2.2848954201
467,59456,59455,-0.0290068202,0.0608133525,1.0591475964,7.8959684372,-7.9984478951,-13.1779747009,2.179274559,3.8845040798,0.3051817715,0.1471983492,-0.5903256536,2.204543829
468,59466,59465,-0.0907832235,-0.0522736534,1.0347981453,3.9161355495,-8.0327835083,-14.0472564697,2.1805586815,3.8850390911,0.3050988913,0.1202825457,-0.4550538063,2.0992488861
469,59476,59475,-0.0179415699,-0.0516431145,1.0701818466,-2.7935297489,-6.1249475479,-15.8611345291,2.1807665825,3.8854107857,0.3051793873,0.2715883851,-0.457434237,1.9523963928
470,59486,59485,-0.0430169031,-0.0271653756,1.0506563187,-8.5605602264,-2.0452497005,-17.0196704865,2.1814844608,3.8856356144,0.3055199385,0.311709553,-0.4846428633,1.8010646105
471,59496,59495,0.0114669455,-0.0357324108,0.9821170568,-10.3668985367,2.4382019043,-18.8258533478,2.1835489273,3.8859651089,0.3055882454,0.2126009315,-0.5305454731,1.6703464985
472,59506,59505,0.0028750796,-0.0003736835,1.0155733824,-8.2795095444,10.2373523712,-19.5399494171,2.1840026379,3.8866913319,0.3057806492,0.267873913,-0.6924278736,1.486978054
473,59516,59515,-0.0089119999,-0.1088220477,0.9950704575,-1.7679866552,17.0060272217,-17.7850723267,2.1851708889,3.8870196342,0.3076309264,0.1271702796,-0.8170622587,1.2788763046
474,59526,59525,0.0130086029,0.0314632282,0.9762654305,6.8020777702,19.5223064423,-14.9788618088,2.1858215332,3.8860030174,0.3079216778,-0.0465569124,-0.7572419643,1.0660020113
475,59536,59535,0.0166697074,-0.0242652278,0.9717468023,14.9326858521,16.5103759766,-11.7761001587,2.1870882511,3.8854925632,0.3081712127,-0.2746554017,-0.6427602768,0.9065124989
476,59546,59545,-0.0546704493,0.094027929,0.9936920404,19.1763324738,9.042514801,-10.1781597137,2.1880562305,3.8843989372,0.3069253862,-0.4560700059,-0.4771733582,0.7080229521
477,59556,59555,0.0276638996,0.0164183769,0.9644885659,17.0068626404,-2.7361118793,-7.2500076294,2.1881775856,3.8833341599,0.307107389,-0.5123328567,-0.2314079404,0.5732657313
478,59566,59565,-0.0495415218,-0.0008659911,0.9926644564,8.9055051804,-15.2588386536,-4.5208501816,2.1876385212,3.8821408749,0.3074214458,-0.3864346445,-0.0161825884,0.4246123433
479,59576,59575,0.0197595097,-0.0088522639,0.9881785512,-0.4262064397,-25.4076900482,-2.863878727,2.1891932487,3.8830318451,0.3074864745,-0.3666431308,-0.0812831298,0.3463040888
480,59586,59585,-0.0397001542,0.0996388942,1.0377227068,-8.1198120117,-32.5548210144,-3.1702148914,2.1887321472,3.8843960762,0.3075354099,-0.0073242728,-0.1337400228,0.3293040991
481,59596,59595,0.0032438808,-0.1971493065,0.9935621023,-14.7166481018,-34.7679443359,-4.9456930161,2.18755126,3.884806633,0.3077090979,0.4580586553,-0.2337909341,0.2866250575
482,59606,59605,0.027034631,-0.118138127,1.0275316238,-16.471780777,-31.7123298645,-7.0819191933,2.1902749538,3.8855075836,0.3077889979,0.5833875537,-0.4377001524,0.2316406816
483,59616,59615,-0.0200326722,0.0314694345,1.0367664099,-10.2161312103,-24.0749225616,-7.3402943611,2.1906266212,3.8860917091,0.3062150776,0.9160322547,-0.5977575779,0.1936101019
484,59626,59625,-0.0134227816,-0.0417174995,1.0309883356,2.5205316544,-13.0890455246,-6.5792503357,2.191382885,3.8861637115,0.3062756658,1.2240741253,-0.7505120039,0.0914192572
485,59636,59635,-0.0082071843,-0.0407560021,1.0314800739,13.3913669586,-1.8334006071,-5.7833299637,2.1940791607,3.8862884045,0.3064134717,1.1638222933,-0.673127532,0.0418334715
486,59646,59645,-0.0464471318,-0.0338575915,1.0437470675,23.1967506409,5.4364352226,-4.4525856972,2.194355011,3.8848214149,0.3077225983,1.24104321,-0.4170844257,-0.0611681156
487,59656,59655,-0.0131589817,0.0030846989,1.0644857883,28.3738555908,12.2746114731,-2.9809505939,2.1948215961,3.8830416203,0.3079669476,1.253580451,-0.0155204916,-0.1608204097
488,59666,59665,-0.0055444157,-0.1538774073,1.0757366419,33.9941062927,17.3157196045,0.9449164867,2.1952345371,3.8842899799,0.3082631528,1.1390156746,0.0879656076,-0.1913948357
489,59676,59675,-0.0519046187,-0.0363324434,1.028222084,32.61693573,17.1511440277,4.0241475105,2.1960310936,3.8826527596,0.3085090518,0.953964889,0.5278496146,-0.2508987486
490,59686,59685,-0.0040274118,-0.0407054462,0.9865894318,18.3109874725,10.6953620911,8.476392746,2.1967182159,3.8829200268,0.3117791712,0.7722893953,0.9156640768,-0.1477849483
491,59696,59695,-0.0389256552,0.019387627,1.0695409775,1.7611911297,5.8527002335,10.3435487747,2.1955118179,3.8846173286,0.3125863671,0.8380930424,0.936561048,-0.0567704551
492,59706,59705,-0.0155760348,-0.0133886691,1.0448887348,-11.9854536057,3.2554330826,9.9606761932,2.196075201,3.8863551617,0.3133049309,0.7383095026,0.8264732361,0.0797286406
493,59716,59715,-0.0614657663,0.0266422201,1.0721971989,-18.7051429749,0.1831017435,9.6437587738,2.1963207722,3.8873202801,0.3145546615,0.7500815988,0.6507421136,0.19002828
494,59726,59725,-0.0825431198,0.0022647262,1.0647183657,-17.0670051575,-1.8372386694,10.3169727325,2.1977925301,3.8878030777,0.3152456284,0.6490047574,0.4537025988,0.2815242112
495,59736,59735,-0.1109764427,-0.0076820008,1.0695034266,-12.5898513794,2.3915069103,11.169921875,2.1972894669,3.8881678581,0.3161255121,0.7334221601,0.2715047002,0.399056226
496,59746,59745,-0.0990473628,-0.0214210805,1.051833272,-4.3703074455,9.0245103836,11.9786128998,2.1970233917,3.8866522312,0.3145825267,0.7489215732,0.3147492409,0.5100644827
497,59756,59755,-0.1237378269,0.0200369209,1.0402251482,6.4688358307,13.6057605743,11.1577091217,2.19764781,3.8871059418,0.3154113293,0.6709174514,0.2627677321,0.6298946142
498,59766,59765,-0.0674123615,0.0353071578,1.0612264872,9.2178602219,18.2580394745,9.3594560623,2.1990020275,3.8862521648,0.3161762059,0.4282654524,0.3857257664,0.7030341625
499,59776,59775,0.0479651503,-0.0224098507,0.9165243506,8.2562017441,21.5775661469,8.2558965683,2.1990413666,3.8862812519,0.318071723,0.2238745689,0.4742775857,0.7540314198
500,59786,59785,0.016913088,-0.09920571,0.8812643886,10.2006464005,22.5401287079,9.5010051727,2.1993837357,3.8871335983,0.3189570308,-0.0061819791,0.4734078646,0.8936574459
501,59796,59795,-0.030581234,-0.0800616518,0.9976621866,10.6933279037,18.6946773529,9.4056568146,2.1998915672,3.8853008747,0.3197545409,-0.2615542412,0.6755133271,0.9035473466
502,59806,59805,-0.0649660751,0.0005066377,0.9984566569,8.8507108688,22.8429603577,10.0426664352,2.199763298,3.8854570389,0.3205768466,-0.3654818237,0.7842629552,1.0079337358
503,59816,59815,-0.0019329515,-0.008593902,0.9198727012,4.5347676277,23.1142463684,10.1034164429,2.2006027699,3.88560462,0.3220926225,-0.6146448255,0.8461914659,1.0980092287
504,59826,59825,-0.0319013186,0.0119529068,0.8568466306,0.7700278759,24.5983829498,12.159825325,2.1996436119,3.8848967552,0.3229011595,-0.7251622677,0.9187928438,1.1961681843
505,59836,59835,0.030270284,0.0514825843,0.8757030964,-0.2185803056,18.3637523651,13.7794017792,2.2004008293,3.8860230446,0.3234679401,-1.0107908249,0.854255259,1.3514341116
506,59846,59845,0.1045074835,-0.12462385,0.8802412748,-2.6940569878,12.7569036484,14.6340923309,2.2000029087,3.8869278431,0.324167192,-1.0948511362,0.8621852994,1.5739746094
507,59856,59855,0.1380635649,0.0084201451,0.8761465549,-4.3994693756,6.5245842934,14.5148134232,2.2001895905,3.8870465755,0.3245489597,-1.2384653091,0.8262937665,1.7204910517
508,59866,59865,0.0293362774,0.0222929288,0.9246619344,-5.63676548,-4.6411705017,12.6806325912,2.1986916065,3.8866615295,0.3250076175,-1.1092133522,0.7453340292,1.8234604597
509,59876,59875,-0.0238140002,-0.0225299671,0.9301435351,-2.1808056831,-6.9718775749,11.343837738,2.1995077133,3.8882851601,0.3219822943,-1.0736775398,0.5880376101,2.0095949173
510,59886,59885,-0.0265264641,-0.0024147253,0.9375218153,-0.0403447002,-8.0714435577,10.3842229843,2.2005970478,3.88646698,0.3218737245,-1.0643082857,0.8140101433,2.1309347153
511,59896,59895,-0.0209077187,0.050412368,0.9687470794,2.5042877197,-7.7686362267,9.7710561752,2.1999444962,3.8862447739,0.3217768669,-0.8656951785,0.8145774007,2.2378532887
512,59906,59905,-0.0167235117,0.0978655294,0.9835178852,1.2626714706,-0.2852385938,9.4439811707,2.1999056339,3.8862700462,0.3216320574,-0.8031699061,0.8362343311,2.3514413834
513,59916,59915,-0.0406708308,0.043576546,0.9844996929,0.2066086829,7.1026363373,8.438085556,2.2000319958,3.8854050636,0.322989136,-0.7967181206,0.8516674638,2.3906402588
514,59926,59925,-0.0553612225,0.0018836064,1.0005104542,2.3626251221,5.7355790138,7.4123725891,2.2013010979,3.8841941357,0.322801888,-0.9515355825,0.9979814291,2.522687912
515,59936,59935,-0.0351484567,-0.0356864892,0.9742413163,-1.7515113354,10.0469293594,6.4638805389,2.2016260624,3.8858990669,0.322709769,-1.0383099318,0.9113334417,2.6869757175
516,59946,59945,-0.0076431045,-0.0305861775,0.9185658097,-5.8892974854,9.866601944,4.7551574707,2.2022373676,3.8859815598,0.3226163387,-1.1454896927,0.8450931311,2.7285118103
517,59956,59955,0.0082695158,-0.0298151094,0.9128469825,-11.1204814911,10.2031898499,2.7429277897,2.2023892403,3.8861372471,0.3223735094,-1.2695372105,0.7829644084,2.7823722363
518,59966,59965,-0.1007472053,0.1131341979,1.0171016455,-13.6015481949,6.7073965073,0.6355603933,2.2024457455,3.885923624,0.3220471442,-1.3813254833,0.5598017573,2.7143297195
519,59976,59975,-0.1649618298,0.1278516948,1.0429925919,-13.1014480591,-1.7225397825,0.5993007421,2.2043423653,3.8850469589,0.3208801448,-1.5584195852,0.4743466973,2.6963925362
520,59986,59985,-0.0881496593,0.0077170138,1.0188521147,-8.9142408371,-3.2877378464,-1.5631591082,2.2035832405,3.8841428757,0.320776701,-1.380043149,0.4031111002,2.7276294231
521,59996,59995,0.0725842044,-0.1046207696,0.992016077,-5.3605098724,-1.1106399298,-4.226099968,2.2031259537,3.8849687576,0.3206129074,-1.234847784,0.1636973172,2.625218153
522,60006,60005,0.0412237532,-0.0134140775,0.9730885625,-5.289855957,-7.5374603271,-6.3544440269,2.2038123608,3.8835623264,0.3204202056,-1.2066093683,0.2964587808,2.6501054764
523,60016,60015,-0.0521087609,0.0511708111,0.9710034132,-9.7445240021,-7.5054302216,-9.33244133,2.2041773796,3.8832805157,0.3173085749,-1.1628459692,0.1655375361,2.5061895847
524,60026,60025,0.0615731329,-0.0594570339,0.9033530951,-11.1099672318,-13.5412778854,-11.3945808411,2.2048470974,3.8832147121,0.3167954981,-1.0489096642,0.0566516481,2.4022095203
525,60036,60035,0.0977641195,-0.1228973418,0.9070518017,-10.6657009125,-14.7128973007,-16.8086948395,2.2051045895,3.882039547,0.3162516057,-0.8704021573,0.0782483146,2.3220071793
526,60046,60045,-0.0733240992,0.0262236018,1.0312066078,-9.7008914948,-8.6642189026,-18.5271186829,2.2055225372,3.8820199966,0.3155375719,-0.7239191532,-0.0556877106,2.1710937023
527,60056,60055,-0.0450407155,0.0362998508,1.0450828075,-7.7702479362,2.0143182278,-18.8543567657,2.2057368755,3.8818073273,0.3155221343,-0.7156533003,-0.1004963368,1.9776222706
528,60066,60065,0.0877497271,-0.1579200625,1.005420208,-5.3645524979,11.3837308884,-19.2771682739,2.2089130878,3.8819160461,0.3146903515,-1.0732810497,-0.1841610372,1.791798234
529,60076,60075,-0.0570150577,-0.0407820158,1.0804775953,-1.019010067,14.1913156509,-18.3839740753,2.2093999386,3.8810436726,0.3120744228,-1.1762298346,-0.2124964446,1.5653518438
530,60086,60085,0.0580230094,-0.0102768252,0.9752651453,-0.1656583101,16.9873771667,-16.3312263489,2.2102167606,3.8797874451,0.3113567531,-1.3416086435,-0.1074991226,1.4251992702
531,60096,60095,-0.0402209461,0.130186528,0.9979336858,-2.1106789112,6.6857995987,-14.3745698929,2.2103197575,3.8795068264,0.3107707798,-1.3748497963,-0.1616062671,1.1967506409
532,60106,60105,-0.0483300462,0.0650281161,1.0433859825,-8.8570795059,-3.5604431629,-12.1214342117,2.2110338211,3.87844491,0.312294662,-1.4073386192,-0.2063225359,1.101752162
533,60116,60115,-0.0250893626,-0.0025930768,0.9949218035,-16.5842247009,-13.8705291748,-11.1241912842,2.2105875015,3.8792879581,0.3119284809,-1.1866015196,-0.4482862055,0.9841585755
534,60126,60125,-0.0316618718,-0.1284562945,1.0384913683,-19.7637271881,-19.4244689941,-10.7524471283,2.2124085426,3.8805122375,0.3113209307,-1.1218336821,-0.7033069134,0.9307425618
535,60136,60135,-0.0341949165,0.0155377015,1.0874381065,-16.0739154816,-19.4791507721,-10.4194431305,2.2116730213,3.8785476685,0.3110694289,-0.7456492782,-0.7357556224,0.8294870853
536,60146,60145,0.0168177113,-0.0142243886,1.0082556009,-8.7039880753,-12.9168653488,-9.1820259094,2.2140345573,3.8757045269,0.3109553456,-0.8140490055,-0.6893703938,0.6520656943
537,60156,60155,0.0087407753,-0.0375799984,0.9958023429,-4.2595348358,-4.1648020744,-7.2076086998,2.2143580914,3.8758571148,0.3106269538,-0.6817320585,-0.8510023952,0.575609386
538,60166,60165,0.0729582831,-0.009271116,1.0198973417,-5.4176921844,2.3982825279,-5.9918284416,2.2137978077,3.8757059574,0.3103629947,-0.5353583694,-0.9710880518,0.4747634232
539,60176,60175,-0.0067022196,-0.0522293001,1.0099471807,-8.6724405289,5.5944070816,-6.157222271,2.2159602642,3.874489069,0.3096141517,-0.6806907058,-0.8129264116,0.5523830056
540,60186,60185,0.1467786878,-0.0508085489,0.956985116,-12.1396379471,12.4556350708,-6.4841270447,2.2170944214,3.8741326332,0.3091726601,-0.7631069422,-1.0052378178,0.4055148363
541,60196,60195,0.1456308812,-0.1007286236,0.9886872172,-13.7391738892,10.66705513,-6.3457131386,2.2175352573,3.8738510609,0.3088677824,-0.8326649666,-1.1553021669,0.3007772565
542,60206,60205,0.0325296,-0.0823325291,1.0212646723,-11.0214719772,5.661096096,-5.7293329239,2.2196779251,3.873519659,0.3095326424,-1.0332350731,-1.255911231,0.2694802582
543,60216,60215,-0.0178855546,-0.0005009467,1.0320978165,-5.9283518791,3.1011288166,-6.3612275124,2.2200026512,3.8740084171,0.3093173206,-1.0113419294,-1.4766764641,0.1794680059
544,60226,60225,-0.0058795698,0.0350499526,1.0423834324,2.021600008,-1.6712509394,-7.4593715668,2.2213413715,3.8736486435,0.3090130389,-1.0981580019,-1.5276235342,0.114328064
545,60236,60235,0.0294737034,-0.1527925283,0.9976652265,11.3924121857,-8.7988166809,-8.981221199,2.2208538055,3.8719551563,0.3090094924,-0.9480382204,-1.4525458813,0.00684202
546,60246,60245,-0.0684634298,0.177923888,1.0007272959,18.0825920105,-14.4537267685,-10.9380435944,2.2230174541,3.8715214729,0.310121417,-1.0051081181,-1.3030803204,-0.0209909882
547,60256,60255,0.041142799,0.0313450843,0.9505202174,23.5040168762,-18.9473819733,-11.588757515,2.2248849869,3.8709087372,0.3099120855,-0.9443951845,-1.1918514967,-0.1783542037
548,60266,60265,-0.0085457554,-0.0365873314,1.0547815561,24.5995044708,-18.7913150787,-13.2398262024,2.2252361774,3.8706998825,0.3099240959,-0.6488514543,-1.0604422092,-0.3745134473
549,60276,60275,0.0485062711,-0.1339937449,0.9809246063,23.299451828,-17.1723213196,-14.1969194412,2.2256662846,3.8691139221,0.3112496436,-0.3524362743,-0.6609812975,-0.4990754426
550,60286,60285,0.0235974696,-0.0643048957,0.9810001254,19.0171890259,-12.8560523987,-14.6140356064,2.2303020954,3.8693730831,0.3109977245,-0.5366984606,-0.4370138645,-0.5564873219
551,60296,60295,-0.0123752495,-0.0235155672,0.9684370756,9.4241781235,-8.5496139526,-14.4266996384,2.2299685478,3.8698625565,0.3112222552,-0.2212537676,-0.2801735401,-0.7069789767
552,60306,60305,0.0263773445,-0.0221749526,0.9444144368,-1.0272220373,-9.6409883499,-15.1541748047,2.2307617664,3.8721227646,0.3098586202,-0.0739525482,-0.1913297474,-0.6977285743
553,60316,60315,-0.0157126244,0.0055402359,0.9818676114,-11.9229135513,-10.6068706512,-16.4666881561,2.2331244946,3.8726348877,0.309630394,-0.0794366449,-0.2821522951,-0.8351487517
554,60326,60325,0.0094447993,-0.0277759209,0.939881444,-16.2080993652,-11.4889240265,-16.0541267395,2.2326118946,3.8736550808,0.3095654547,0.1686074883,-0.3814174533,-0.9792003036
555,60336,60335,-0.0428955257,0.0871257856,0.9379373789,-13.5183029175,-9.2887115479,-15.3765716553,2.2330341339,3.8721549511,0.3093144596,0.3398735821,-0.4873864353,-1.2322524786
556,60346,60345,-0.0779402107,0.0424123295,0.9875754118,-4.8911690712,-4.023639679,-12.590672493,2.2352473736,3.8719696999,0.3057465553,0.3205758035,-0.6389258504,-1.3957368135
557,60356,60355,0.0031745955,0.0044140317,0.9763865471,7.9343290329,0.0645416826,-10.6021461487,2.2363703251,3.8716697693,0.3051914871,0.3887364864,-0.7347880006,-1.5314429998
558,60366,60365,-0.0012251181,0.0110016987,1.0013500452,23.6807422638,2.3292868137,-8.0359306335,2.2376875877,3.8701746464,0.3046325147,0.3846910596,-0.5449569225,-1.6677814722
559,60376,60375,-0.0472278148,-0.0546730347,0.9789142609,35.4972267151,6.2922434807,-4.4000473022,2.2390859127,3.8705189228,0.3029558957,0.3317268193,-0.4201535285,-1.7588096857
560,60386,60385,-0.0202171467,-0.0052790935,0.9894908071,36.7379684448,8.6736602783,-0.6064918637,2.2396175861,3.8689985275,0.3023330271,0.3659424782,-0.0060464116,-1.8495489359
561,60396,60395,0.0223452561,-0.0324995182,0.9576112032,29.2180156708,6.4865088463,3.3511555195,2.2416930199,3.8697524071,0.3016132712,0.1987104565,0.2911329269,-1.8637062311
562,60406,60405,-0.0543849021,0.0338512324,0.9709649682,17.9054260254,0.3765044808,6.0734224319,2.2427377701,3.8709414005,0.3020722866,0.1457904428,0.4879022241,-1.8283766508
563,60416,60415,-0.0065014018,0.0009924921,0.9734864831,5.2193546295,-9.1491937637,8.1695928574,2.244202137,3.8699638844,0.3013646007,0.1065312997,0.7389315367,-1.8372768164
564,60426,60425,0.0120458771,-0.0699786171,0.971832931,-5.9883494377,-18.4152603149,9.3072166443,2.2446870804,3.8709468842,0.3007525504,0.2154676467,0.7770366669,-1.7201441526
565,60436,60435,0.0813535005,0.0527052991,1.0232870579,-13.6706695557,-12.9758167267,10.628657341,2.2462484837,3.8713364601,0.2983705699,0.3162235618,0.6281304955,-1.6818966866
566,60446,60445,-0.0168400537,-0.0072035687,0.9944970608,-11.3682069778,-7.4612579346,13.4600925446,2.2469980717,3.8715839386,0.2976076603,0.5428251624,0.5119162202,-1.572543025
567,60456,60455,0.00605939,-0.029455686,1.0363961458,-8.2170944214,5.9626312256,14.7126502991,2.2479496002,3.8706686497,0.2967748642,0.6574826837,0.4085516632,-1.520093441
568,60466,60465,-0.0106112678,-0.0353706963,1.0155751705,-4.7883276939,16.5089569092,15.63975811,2.2497019768,3.8709037304,0.2958837152,0.5613678694,0.2778021097,-1.3819503784
569,60476,60475,0.002711155,-0.0875762999,1.0437567234,-4.9416847229,26.7656936646,13.6203403473,2.2514686584,3.8706791401,0.2981645465,0.3534398973,0.3586074412,-1.1556402445
570,60486,60485,0.023375541,-0.0662379563,0.9955120683,-6.3568367958,32.1713447571,11.5109767914,2.2527794838,3.871316433,0.2976481616,-0.1550667882,0.228014037,-0.8651387691
571,60496,60495,0.0316284411,0.0177256986,1.0558791161,-7.6432437897,30.6048297882,9.5712614059,2.2539355755,3.8714156151,0.2970724702,-0.1587934047,0.1859341711,-0.8843032718
572,60506,60505,-0.0103737144,-0.0400393642,1.0196617842,-4.9652042389,19.9980106354,8.1783723831,2.255500555,3.8717842102,0.2969242036,-0.541680932,0.0698916912,-0.7813736796
573,60516,60515,-0.015189223,-0.0141750779,1.0453603268,0.5321673155,4.731212616,5.8236660957,2.2554240227,3.8716549873,0.296582371,-0.681684196,-0.0028985091,-0.7739203572
574,60526,60525,-0.002036138,0.0073576057,0.9769980311,8.2610225677,-11.5261392593,5.4843635559,2.2560286522,3.8701188564,0.2962985933,-0.7433517575,0.1609628648,-0.6769834757
575,60536,60535,0.0478369705,-0.0182447918,0.9937825203,12.7838907242,-24.0420475006,5.810397625,2.2558786869,3.8698353767,0.2964811325,-0.5174507499,0.203226611,-0.6468736529
576,60546,60545,0.022549523,-0.0042512417,1.0597032309,15.7715129852,-40.5612411499,5.4675931931,2.2589216232,3.8690388203,0.295897454,-0.5017186403,0.4140672088,-0.5966804624
577,60556,60555,-0.0184007287,0.0118861431,1.0696707964,9.6920175552,-43.1074981689,3.7534906864,2.2592844963,3.8688726425,0.2957003415,-0.0221998524,0.501693666,-0.5866647363
578,60566,60565,-0.0044645132,-0.0050880276,1.0210307837,0.1396212131,-34.7791557312,2.0145938396,2.259005785,3.8682684898,0.2955148816,0.5146952868,0.6655802131,-0.5544903874
579,60576,60575,0.0035403182,-0.0301250871,1.0550107956,-11.3678264618,-13.2062540054,0.37843135,2.263099432,3.8704891205,0.2986970544,0.5125851035,0.586594522,-0.4219660163
580,60586,60585,-0.0155953234,0.076149933,1.037823081,-19.7011795044,6.0974545479,-0.8520280719,2.2630090714,3.8698954582,0.2988304198,0.8451274633,0.4169219136,-0.5077368617
581,60596,60595,-0.1027910262,0.0603993237,1.1068283319,-22.0787181854,21.024969101,-0.5393697619,2.2642986774,3.8694837093,0.2988960743,0.8495666981,0.2663163841,-0.540128231
582,60606,60605,-0.0043275007,-0.071788013,1.0926249027,-19.7947273254,32.3654403687,-0.4839453101,2.2666702271,3.8678774834,0.2976199985,0.5963702202,0.1307202578,-0.6406376362
583,60616,60615,-0.0334227234,-0.0569448173,1.0403465033,-11.61028862,29.0100288391,-0.1535963118,2.2684009075,3.8690907955,0.2976438105,0.229217425,-0.2088986784,-0.6237587333
584,60626,60625,0.0342606641,-0.0043816417,1.0090155602,0.0075184098,20.3249511719,0.4439975619,2.2697036266,3.8679955006,0.2979691923,-0.0399133526,-0.2591039538,-0.6613371372
585,60636,60635,-0.0024829097,0.1140869111,0.9890805483,11.8504600525,6.1729035378,1.1858307123,2.2706017494,3.8668045998,0.2985336185,-0.2557713687,-0.2092897147,-0.6919949055
586,60646,60645,-0.0574958213,0.0635792315,1.0815452337,21.602519989,-9.423989296,2.1404161453,2.2715144157,3.8663907051,0.2988936901,-0.3159955144,-0.0467973202,-0.6511977911
587,60656,60655,0.0119126458,-0.0806032941,0.9573787451,22.8521099091,-15.5992126465,2.7225437164,2.2722039223,3.8668994904,0.2993094027,-0.2061337829,0.120528087,-0.5840982199
588,60666,60665,0.004323482,0.0060613914,0.9905325174,16.6588058472,-23.9152908325,3.5326709747,2.2734441757,3.8666298389,0.299433887,-0.0600053221,0.4003897607,-0.5344980955
589,60676,60675,-0.0126712499,0.0450639203,0.9881747961,3.818618536,-21.7636032104,4.0354418755,2.2734098434,3.8656663895,0.2998373806,0.2860032022,0.6625156403,-0.4768185616
590,60686,60685,0.0172984619,-0.0458710454,0.876676321,-10.5145254135,-18.2420749664,5.2564949989,2.2753469944,3.8664252758,0.3002508283,0.4071918428,0.5701239705,-0.4656136632
591,60696,60695,0.0102654025,-0.015721824,0.9387545586,-23.3638877869,-10.2956237793,7.2010393143,2.2774951458,3.8680632114,0.3004697859,0.4769160748,0.4065667391,-0.385065347
592,60706,60705,-0.0251613539,-0.0728162527,1.0701181889,-30.6890029907,0.6916306019,8.0932855606,2.2771942616,3.8685045242,0.301312685,0.8104333878,0.1868965924,-0.2894398868
593,60716,60715,0.0364383981,-0.1458914429,0.9735751748,-27.6795520782,7.3729376793,9.0375680923,2.280025959,3.8687012196,0.3014550805,0.6470469832,-0.0851804018,-0.1884119213
594,60726,60725,-0.0104329353,-0.0055440934,1.0137183666,-17.6208248138,9.1523771286,9.2578859329,2.281693697,3.8686878681,0.3015832603,0.5193269253,-0.4070467949,-0.0830672011
595,60736,60735,0.0138996337,-0.0172057301,0.9764411449,-7.6818547249,7.8452372551,9.4895334244,2.2830095291,3.8687691689,0.3025125563,0.4351131618,-0.6500852704,-0.0419403128
596,60746,60745,0.0294819474,-0.0159864593,1.0003523827,7.7621173859,6.1571221352,10.3128070831,2.284301281,3.8675272465,0.3029101193,0.3559155166,-0.5681103468,0.069244802
597,60756,60755,0.0658666044,0.003117291,0.9849422574,17.7831687927,3.7098240852,10.8042316437,2.2839543819,3.8643169403,0.3030789495,0.3031978607,-0.4918697476,-0.0445094109
598,60766,60765,0.0624129362,0.0266902745,0.9936423898,22.5208740234,-3.7733874321,12.1351890564,2.2850193977,3.8637077808,0.3022718728,0.2993983328,-0.3128106296,0.0298226345
599,60776,60775,-0.0920081213,0.0778461918,1.0419106483,20.4974079132,-10.4372882843,12.1572723389,2.2859969139,3.8619418144,0.3024408221,0.4434574842,0.1821141243,0.2036999464
600,60786,60785,-0.000442283,-0.0460275784,0.9737683535,12.8765230179,-12.7343502045,12.482550621,2.2867593765,3.8624761105,0.3027395904,0.4907830656,0.0517299809,0.1913984567
601,60796,60795,0.0709213242,-0.1050165966,0.9706928134,0.4899137318,-15.7126159668,11.5983200073,2.2876908779,3.8645009995,0.3030213118,0.6731147766,0.2719492614,0.5362170339
602,60806,60805,0.0014857299,-0.0366979055,0.9695950747,-14.3933086395,-17.141620636,9.7446975708,2.2897601128,3.8652231693,0.3034510612,0.6718672514,0.1954274178,0.6930634975
603,60816,60815,0.0565153025,-0.03670175,1.0140645504,-25.1610870361,-18.6131381989,8.4842205048,2.2901799679,3.8655898571,0.3036882281,0.9377018809,0.0532382317,0.7702637315
604,60826,60825,0.0706487969,-0.0874082968,0.928237319,-29.4007167816,-12.2585754395,7.8656244278,2.2903809547,3.8668875694,0.3038664162,1.1923643351,-0.2786448002,0.9031921625
605,60836,60835,0.1329237372,-0.0644919276,0.8927671313,-26.3526935577,-5.9313678741,7.3271765709,2.2924213409,3.8659784794,0.3013465703,1.2187523842,-0.4556002319,0.9676176906
606,60846,60845,0.0505853333,-0.0068207537,0.9419206381,-14.6429033279,-0.7946372032,6.2715249062,2.2938342094,3.8664669991,0.3012488484,1.2219676971,-0.7514011264,1.0983413458
607,60856,60855,-0.0089999195,0.0325878114,0.9461215734,-0.9908778667,5.2002897263,5.4875683784,2.2956712246,3.866014719,0.3010704219,1.145783186,-0.8943380117,1.1628446579
608,60866,60865,-0.0295379311,0.132513091,0.928355813,10.766377449,6.2418665886,5.8056430817,2.2961442471,3.8659360409,0.2992836237,1.2038241625,-0.9468687773,1.225679636
609,60876,60875,-0.024691442,0.0398628227,1.0426864624,16.9493293762,6.1918058395,6.563097477,2.296356678,3.8653261662,0.2989743352,1.2175599337,-0.787219584,1.2754602432
610,60886,60885,0.0303747617,0.0396009162,0.9529056549,16.1856231689,11.1879072189,6.7922768593,2.2967536449,3.8644864559,0.2986353636,1.2158398628,-0.5295920372,1.2891769409
611,60896,60895,0.0783503801,-0.106372118,0.9390885234,10.5810689926,15.2179870605,6.6910672188,2.2985491753,3.8643825054,0.2981523871,0.984834671,-0.3622101545,1.4245294333
612,60906,60905,0.0076884511,-0.0878796875,0.9493559003,2.9095079899,15.3738126755,6.4574890137,2.2990446091,3.8638207912,0.2990026772,0.8477570415,-0.2103646994,1.4901332855
613,60916,60915,-0.0162118506,0.0922617167,0.9946558475,-11.7271652222,9.8436412811,5.1074776649,2.2997534275,3.8658919334,0.2987172008,0.6968883872,-0.3588976264,1.6364754438
614,60926,60925,-0.0886224583,0.1063930318,1.0131908655,-23.0738925934,-0.9338980913,3.6970379353,2.3003838062,3.8672888279,0.298342824,0.6389050484,-0.5493322611,1.7498878241
615,60936,60935,-0.146777153,0.0135600325,1.1054888964,-24.7540206909,-13.9076118469,1.2186971903,2.3004469872,3.8664972782,0.2994203568,0.7227780819,-0.6946128607,1.7046986818
616,60946,60945,-0.0476064719,-0.0129690059,1.0469782352,-18.2693977356,-20.4137973785,0.4965257049,2.3002111912,3.8675885201,0.2991470993,0.938434124,-1.0369004011,1.7990920544
617,60956,60955,-0.0733093172,0.0579146035,0.8975031972,0.1270137876,-17.9942626953,-0.9686701894,2.3008275032,3.8681509495,0.2989166975,1.166708231,-1.2596687078,1.8308467865
618,60966,60965,-0.0567980297,0.038059935,1.0056059361,17.2199058533,-14.0019845963,-1.0799793005,2.3002114296,3.8665246964,0.298204869,1.4491075277,-1.1107133627,1.7915817499
619,60976,60975,-0.0534788594,-0.1904895753,1.0095325708,27.2579116821,0.7420866489,-0.6070620418,2.303593874,3.8664095402,0.2980433404,1.2656342983,-0.9010849595,1.8520535231
620,60986,60985,-0.0529600941,-0.0863100886,1.0527493954,27.1749420166,11.564540863,-0.9239076376,2.3038542271,3.8661007881,0.2977719307,1.3487814665,-0.6158928275,1.8284301758
621,60996,60995,-0.1129917279,-0.0351813883,1.0066211224,20.0187625885,17.3377723694,-1.4085752964,2.3056857586,3.8642892838,0.296246022,1.0881656408,-0.1781122386,1.7840265036
622,61006,61005,-0.098144576,0.0422454141,1.0097005367,4.4963393211,20.9045162201,-0.1521247327,2.3058869839,3.8653070927,0.296107024,0.9595882893,-0.1897833049,1.7600560188
623,61016,61015,0.0173303168,0.0295467824,1.0463911295,-18.9326629639,19.5687446594,2.9327762127,2.3071370125,3.8664207458,0.2957587838,0.6886495948,-0.139252305,1.8266237974
624,61026,61025,0.0708898753,-0.1353425384,0.8826666474,-37.3678283691,9.9794311523,2.1259634495,2.3058283329,3.8675525188,0.2957956195,0.6963123083,-0.4346565008,1.8355306387
625,61036,61035,-0.0166272223,0.003174037,0.9964568019,-43.9983100891,-1.5288399458,2.8224480152,2.3057096004,3.868035078,0.293592155,0.6655395627,-0.808288157,1.8623139858
626,61046,61045,-0.0259867292,0.1569503844,0.9976449013,-35.930141449,-5.5421419144,2.5455737114,2.3052070141,3.8690891266,0.2930855751,0.7343177199,-1.3648974895,1.8865728378
627,61056,61055,-0.0206708424,0.0336746946,0.9579990506,-17.1440010071,2.2684226036,1.5062403679,2.305226326,3.8701610565,0.2927677929,0.8619692922,-1.6800204515,2.003431797
628,61066,61065,-0.0535216816,-0.0143264076,0.9866214395,6.157037735,9.2352848053,0.1240832657,2.3063721657,3.8698461056,0.2939385474,0.7842116952,-1.7893362045,2.0313863754
629,61076,61075,-0.1812320352,0.0028342996,1.0551424026,21.3198223114,16.4008979797,-0.7048076987,2.3071489334,3.8678808212,0.2937095463,0.6735844612,-1.6113276482,1.9522801638
630,61086,61085,-0.1121117771,0.0330277979,1.0073765516,29.6946849823,17.8976917267,-2.0940518379,2.3079280853,3.8679821491,0.2933515906,0.4396558702,-1.4159605503,1.9592844248
631,61096,61095,-0.0183434654,0.0193219632,0.9942644238,23.8794250488,17.8291625977,-4.0726428032,2.3081862926,3.8677539825,0.2942687869,0.26216048,-1.2247099876,1.8525444269
632,61106,61105,-0.0115190344,0.0202104487,0.9617587924,10.3520822525,11.8876142502,-5.5591869354,2.3089163303,3.8672802448,0.2940437794,0.0825424418,-0.8778713942,1.8101216555
633,61116,61115,0.0530688055,0.0586303212,1.0336612463,1.4037282467,9.3589029312,-6.7060027122,2.309180975,3.8690485954,0.2938058674,0.0003529697,-0.9057801366,1.7807997465
634,61126,61125,-0.0495405756,0.0239874534,0.9591707587,-2.5376195908,7.0024323463,-8.7879600525,2.3100867271,3.8684515953,0.2935352325,-0.1140661538,-0.8396306038,1.6656068563
635,61136,61135,-0.0569403656,0.2054380476,0.9891653061,-6.8172121048,3.6264886856,-9.2702913284,2.3104300499,3.8688554764,0.290661782,-0.1825836003,-0.8506065011,1.596673727
636,61146,61145,-0.0362906195,0.0544060022,0.927781105,-5.0291686058,1.5249353647,-9.294552803,2.3110020161,3.8692340851,0.2902448773,-0.1983621716,-0.9240822792,1.4825159311
637,61156,61155,0.0029735977,0.0384158455,1.0285022259,1.9269310236,6.9718260765,-9.0844049454,2.3098499775,3.8688731194,0.2899273932,-0.0402770415,-0.9731599689,1.3418084383
638,61166,61165,0.0162101015,-0.0276334342,1.0077213049,15.7714080811,4.7725701332,-6.9453015327,2.3104667664,3.8699467182,0.2895869613,-0.1768714637,-1.0280327797,1.275094986
639,61176,61175,0.1103468686,-0.0443810336,1.0178585052,26.0996837616,5.2145295143,-3.9191527367,2.3097946644,3.8699448109,0.2891461551,-0.1516960263,-0.8594542146,1.1786859035
640,61186,61185,0.0740283355,-0.0993561968,0.9519443512,30.0669536591,3.1845328808,-2.7273440361,2.3107404709,3.8694736958,0.2887014449,-0.2814944983,-0.4615788162,1.1766386032
641,61196,61195,0.0100512784,0.0174909998,1.0092931986,29.3197822571,6.8882727623,-1.1976718903,2.3108129501,3.8687767982,0.2867669761,-0.2974979281,-0.0838174447,1.1337703466
642,61206,61205,-0.0162741095,0.0089327879,1.0271080732,18.3014526367,10.2991657257,0.6328296065,2.3112049103,3.8692500591,0.2862035036,-0.3788996637,0.1255544275,1.0805615187
643,61216,61215,0.0681831688,-0.0971579105,1.0153794289,-7.4258937836,11.9001216888,1.1677615643,2.3117084503,3.8711702824,0.2856428027,-0.516941309,0.2856083214,1.1877195835
644,61226,61225,0.0267776605,-0.120994918,1.0158849955,-36.25573349,7.3320155144,0.1595957726,2.3118286133,3.8726382256,0.2851126492,-0.6578361988,0.0948262587,1.1876747608
645,61236,61235,-0.0074615721,0.0088976827,1.0351489782,-46.7545661926,8.8410997391,0.2296795547,2.311514616,3.8738713264,0.2824558318,-0.6613342762,-0.2797850966,1.2043730021
646,61246,61245,-0.0096567338,0.0075423894,0.9122809768,-43.8194198608,8.7978277206,1.1393461227,2.3115274906,3.8752851486,0.2816812694,-0.7544509768,-0.8497292995,1.2003251314
647,61256,61255,0.0275050532,0.0545813218,1.049317956,-28.8174667358,9.2806425095,2.2713103294,2.3109798431,3.8747086525,0.2814301848,-0.7768501043,-1.101776123,1.2485911846
648,61266,61265,0.0211747959,0.062482655,1.0553483963,-5.4144825935,8.1426324844,3.4996504784,2.3115200996,3.8757696152,0.281167686,-0.8902222514,-1.4326709509,1.3193813562
649,61276,61275,-0.0557302423,0.1084232926,1.0678952932,14.1252603531,10.8181591034,3.3498430252,2.3119573593,3.8764243126,0.2806944847,-0.9955269098,-1.4755830765,1.3772083521
650,61286,61285,0.0085554002,0.0503084436,1.0518320799,36.8241233826,9.605340004,2.7333848476,2.3139774799,3.8761713505,0.2801802754,-1.2619700432,-1.2572137117,1.4316271544
651,61296,61295,0.0449154936,-0.0276662931,0.9999116659,47.5013694763,7.3256239891,2.4116051197,2.3145430088,3.876891613,0.2808378041,-1.3539028168,-0.8927847743,1.4958438873
652,61306,61305,0.0192976687,-0.0079111988,1.0350651741,46.3114051819,4.2090277672,1.1959502697,2.3147974014,3.876837492,0.2805408239,-1.3988314867,-0.3563916087,1.5390149355
653,61316,61315,-0.0017082783,-0.0181638263,1.1010619402,34.9017601013,-2.7870430946,0.5829877257,2.3147861958,3.8783295155,0.2803477943,-1.3879503012,-0.0908033103,1.4831678867
654,61326,61325,-0.0030948385,0.0131757539,1.1025831699,16.406452179,-6.8262705803,0.4024977684,2.3162186146,3.8793990612,0.2800574601,-1.4345237017,0.2471391559,1.5447272062
655,61336,61335,-0.0439656302,-0.0327361934,1.0779194832,1.5355045795,-7.1631970406,-1.0776137114,2.3155140877,3.8806872368,0.2820916474,-1.2381229401,0.4307202697,1.5800777674
656,61346,61345,-0.0081955101,-0.0406681076,1.0523610115,-8.626832962,-8.3326063156,-2.2149777412,2.3165855408,3.8824725151,0.2821597457,-1.203959465,0.3797724247,1.5756187439
657,61356,61355,0.0221464485,-0.0906849131,1.0939276218,-13.2594938278,-7.1151089668,-2.1913909912,2.3178355694,3.8834826946,0.2822010517,-1.2301216125,0.3095668852,1.5849764347
658,61366,61365,0.0340397172,-0.0495280512,1.1519389153,-13.1624135971,-3.5336987972,-4.7954540253,2.3179636002,3.8847153187,0.2801544666,-1.1106073856,0.1621834934,1.5976545811
659,61376,61375,0.01148031,0.0035171953,1.0670804977,-12.1119728088,-0.4759157598,-7.7258071899,2.3203325272,3.884452343,0.2801730931,-1.2882031202,0.0971409604,1.5470424891
660,61386,61385,-0.0536270849,-0.0502073504,1.0741868019,-8.9271841049,4.6556272507,-9.7207460403,2.3202819824,3.8859848976,0.280590713,-1.1722875834,-0.0361397937,1.5185682774
661,61396,61395,-0.0471150614,0.0242318511,1.0281769037,-1.2826962471,3.9785716534,-11.4655761719,2.3214118481,3.8857674599,0.2778324783,-1.2898917198,-0.1077371389,1.3806395531
662,61406,61405,0.0319341235,0.0081386501,1.0026458502,3.7219822407,5.6501955986,-13.1038618088,2.322450161,3.8868570328,0.2780321836,-1.3211735487,-0.1386548132,1.2986336946
663,61416,61415,-0.0514384769,0.1031939462,1.0287052393,5.3436055183,6.7799730301,-14.7136621475,2.3239281178,3.8867454529,0.278318882,-1.3891223669,-0.0052530132,1.2047342062
664,61426,61425,-0.0227032211,0.0563944988,1.050688386,5.9914088249,5.7238249779,-16.1291103363,2.3251507282,3.8875956535,0.2789967358,-1.477741003,-0.0084817922,0.9955254197
665,61436,61435,-0.0241372585,0.1569373757,1.0202676058,11.6207962036,2.9747049809,-16.126121521,2.3267300129,3.8876690865,0.279289484,-1.6085268259,0.160323143,0.8643754125
666,61446,61445,0.0307228062,0.0102732619,1.0773260593,17.2056465149,-7.8360896111,-15.6149501801,2.3278474808,3.8884322643,0.2795574665,-1.6618615389,0.1861721128,0.6561366916
667,61456,61455,0.0332154967,-0.1474933922,1.0069961548,22.9968109131,-16.1324672699,-13.4279937744,2.3274447918,3.8880879879,0.2803837359,-1.388111949,0.4697467685,0.5325665474
668,61466,61465,0.0239679348,-0.0314767882,1.0416331291,21.1062335968,-22.7465744019,-11.999630928,2.3301653862,3.8897280693,0.2780315876,-1.4379692078,0.4514240324,0.2810266018
669,61476,61475,-0.0273225643,-0.0416452698,1.0021728277,13.6905031204,-22.1637363434,-10.9426050186,2.3302161694,3.8888862133,0.2786254585,-1.0734834671,0.785871923,0.1566365659
670,61486,61485,0.0204200819,0.0215412416,1.0411684513,3.7371020317,-16.454416275,-11.0603561401,2.3328111172,3.8906018734,0.2787593007,-1.0470194817,0.8254352808,0.0571259931
671,61496,61495,0.0137603832,-0.0872145891,1.0006936789,-3.7074475288,-9.2766313553,-11.9511146545,2.3332850933,3.8917865753,0.2833141088,-0.7987788916,0.7891557813,-0.069234319
672,61506,61505,-0.0778557211,-0.1116009727,1.0569806099,-8.4625844955,1.6124372482,-13.2426137924,2.3327987194,3.8922622204,0.2841581404,-0.5164509416,0.7885613441,-0.1621447504
673,61516,61515,0.00717782,-0.0275750384,1.0102738142,-7.7009744644,13.1172103882,-15.2599029541,2.3361384869,3.8918280602,0.2846517265,-0.8131873608,0.7180345654,-0.3865126371
674,61526,61525,-0.0089228479,0.0459503047,1.0700787306,-3.0012340546,17.6432418823,-15.6308422089,2.3383133411,3.8915915489,0.2841432393,-1.0336151123,0.7357163429,-0.5308876634
675,61536,61535,-0.0061791977,0.0283368789,1.0454018116,4.2499370575,17.1037521362,-17.6983299255,2.3400046825,3.892001152,0.2847398221,-1.2457667589,0.741140306,-0.6422457695
676,61546,61545,0.0653044209,-0.0298996083,1.0011628866,14.2030105591,9.8149614334,-18.510515213,2.3409337997,3.8919699192,0.2855910361,-1.3487125635,0.864187181,-0.7820931673
677,61556,61555,-0.0317346901,0.0133573161,1.0327521563,22.6407756805,-1.4183409214,-18.4599609375,2.3419456482,3.8924489021,0.2864502966,-1.4112315178,0.9937108159,-0.9439043403
678,61566,61565,0.0190855376,-0.1028706878,0.9696310759,26.9345817566,-12.2254858017,-17.9668102264,2.3431136608,3.8924157619,0.2888106108,-1.3649898767,1.2594929934,-1.1205501556
679,61576,61575,0.0195622332,-0.1408378482,0.9805085063,27.4078273773,-23.8351783752,-16.5080699921,2.3434309959,3.8939881325,0.2899461091,-1.1266233921,1.3642852306,-1.3084973097
680,61586,61585,-0.0940394178,-0.290307492,0.9949020147,19.7919540405,-30.5789470673,-14.8432092667,2.3459894657,3.8934087753,0.2906388342,-1.0076876879,1.7740875483,-1.4348709583
681,61596,61595,-0.0722648427,-0.0957108438,0.9836198688,6.1638674736,-20.137556076,-15.1315526962,2.3487384319,3.8947834969,0.2901433706,-0.8354175091,1.7995470762,-1.6558978558
682,61606,61605,0.033262942,0.1072245017,0.9491735697,-3.733659029,-10.3020534515,-14.3801259995,2.3489317894,3.8947339058,0.291103214,-0.4973691702,1.9223816395,-1.7765928507
