,timestamp_start,timestamp_end,acc.x,acc.y,acc.z,gyro.x,gyro.y,gyro.z,stateEstimate.x,stateEstimate.y,stateEstimate.z,stabilizer.pitch,stabilizer.roll,stabilizer.yaw
0,52159,52158,-0.005870854016393423,-0.0365651436150074,1.0622873306274414,-4.8686041831970215,4.750558376312256,-3.3729641437530518,2.0283689498901367,4.023473262786865,0.18893733620643616,-0.5958232283592224,2.4078292846679688,2.3224196434020996
1,52169,52168,0.005253248382359743,-0.07066988199949265,0.9915271997451782,-6.421544075012207,3.9550628662109375,-2.8777036666870117,2.029973268508911,4.023294925689697,0.1930159628391266,-0.5702540278434753,2.257694721221924,2.314845561981201
2,52179,52178,0.05318961665034294,-0.059602268040180206,0.9834172129631042,-5.795440196990967,1.4950592517852783,-2.588243246078491,2.0286760330200195,4.020884037017822,0.19746975600719452,-0.43848103284835815,2.131533622741699,2.3370275497436523
3,52189,52188,0.046892277896404266,-0.0391969233751297,0.9654627442359924,-6.947329998016357,-5.612947463989258,-3.582158088684082,2.029548168182373,4.019453525543213,0.20107845962047577,-0.2324526458978653,2.214301586151123,2.3621633052825928
4,52199,52198,0.0032990335021167994,0.07520940899848938,0.9343848824501038,-14.092984199523926,-18.645103454589844,-3.6192092895507812,2.0278427600860596,4.0218071937561035,0.19328786432743073,0.08183764666318893,1.8846570253372192,2.378967046737671
5,52209,52208,0.034837838262319565,-0.0471930131316185,0.9134360551834106,-20.079191207885742,-25.65428352355957,-3.839839220046997,2.0273208618164062,4.0224995613098145,0.1965062916278839,0.4878915846347809,1.4893196821212769,2.388518810272217
6,52219,52218,0.01101712416857481,-0.039615944027900696,0.9594566226005554,-24.838947296142578,-28.428348541259766,-4.527606010437012,2.027597665786743,4.020178318023682,0.19876575469970703,0.81105637550354,1.5693508386611938,2.3614680767059326
7,52229,52228,0.010685654357075691,-0.022576771676540375,0.9517264366149902,-26.979991912841797,-25.390377044677734,-4.18690824508667,2.0273232460021973,4.020166873931885,0.19367989897727966,1.2200701236724854,1.2213877439498901,2.3441803455352783
8,52239,52238,-0.06349028646945953,0.10979991406202316,0.9438490271568298,-27.12650489807129,-19.312732696533203,-4.275437355041504,2.025359869003296,4.0210418701171875,0.1954876035451889,1.5888917446136475,0.9549712538719177,2.3274199962615967
9,52249,52248,-0.03673439845442772,0.06383918970823288,0.9090932607650757,-25.09319496154785,-10.398374557495117,-3.2250046730041504,2.0217652320861816,4.0214433670043945,0.19733552634716034,1.7860941886901855,0.698808491230011,2.297100067138672
10,52259,52258,-0.002293896861374378,0.01645040139555931,1.0053527355194092,-20.790712356567383,2.340583562850952,-2.955641508102417,2.022371292114258,4.021266460418701,0.19456632435321808,1.7911863327026367,0.4922371506690979,2.2516326904296875
11,52269,52268,0.026807116344571114,-0.0696188434958458,0.9863237738609314,-15.556411743164062,13.055211067199707,-2.6970596313476562,2.0200953483581543,4.022575378417969,0.19596368074417114,1.8366373777389526,0.2878469228744507,2.250248670578003
12,52279,52278,0.04191892594099045,-0.07072322070598602,0.927946925163269,-12.47476863861084,18.206249237060547,-3.0021145343780518,2.021400213241577,4.019323825836182,0.19764766097068787,1.5781348943710327,0.07660206407308578,2.2058944702148438
13,52289,52288,-0.0128871975466609,0.019781475886702538,1.0137946605682373,-9.678605079650879,20.9348087310791,-3.1213486194610596,2.021510362625122,4.020089149475098,0.19904865324497223,1.5845551490783691,-0.07579628378152847,2.203333854675293
14,52299,52298,0.04114127904176712,0.04638205096125603,0.9110115170478821,-7.809650421142578,20.530935287475586,-3.084230661392212,2.0187551975250244,4.020899295806885,0.19771048426628113,1.3138691186904907,-0.18135760724544525,2.171422004699707
15,52309,52308,0.027314066886901855,-0.015522315166890621,0.891959547996521,-6.678571701049805,11.87460994720459,-2.297484874725342,2.0209083557128906,4.019618511199951,0.19895696640014648,1.115058422088623,-0.41122978925704956,2.160991668701172
16,52319,52318,0.01205458678305149,0.03472781926393509,1.0289705991744995,-5.736204624176025,10.121988296508789,-2.257641553878784,2.0189034938812256,4.019906520843506,0.19999699294567108,1.159981369972229,-0.44923049211502075,2.141862392425537
17,52329,52328,0.0367555096745491,-0.05002126470208168,1.0362634658813477,-4.919055938720703,-0.2896096110343933,-1.9500921964645386,2.021742820739746,4.014891147613525,0.19945666193962097,1.041215181350708,-0.08886510878801346,2.0655505657196045
18,52339,52338,-0.011709547601640224,-0.02810683660209179,1.0950309038162231,-5.225138187408447,-1.6468762159347534,-1.3546720743179321,2.0210087299346924,4.0178046226501465,0.20076394081115723,1.2294912338256836,-0.32939329743385315,2.0694382190704346
19,52349,52348,0.006879844702780247,-0.05314553529024124,1.0130114555358887,-6.495212078094482,4.519813060760498,-0.8751087188720703,2.0218470096588135,4.017796039581299,0.2020883560180664,1.1212247610092163,-0.39186346530914307,2.056349039077759
20,52359,52358,0.02752491645514965,-0.07860077172517776,1.0284028053283691,-8.821638107299805,7.24600887298584,-1.0554393529891968,2.0214691162109375,4.016477108001709,0.2027643769979477,1.1171952486038208,-0.4104138910770416,2.0393407344818115
21,52369,52368,0.03139208257198334,-0.048213567584753036,0.967913806438446,-8.972267150878906,11.331367492675781,-2.1103456020355225,2.021862745285034,4.015910625457764,0.20402595400810242,0.9909676313400269,-0.5417816638946533,2.032992362976074
22,52379,52378,-0.011066105216741562,0.1361711621284485,0.9805368185043335,-11.663835525512695,11.128250122070312,-1.17405366897583,2.024348020553589,4.013646602630615,0.2054067701101303,0.7600957155227661,-0.7640822529792786,2.0302822589874268
23,52389,52388,-0.009996299631893635,0.034964073449373245,1.0632654428482056,-14.814875602722168,7.422317028045654,0.10541409999132156,2.021696090698242,4.013434886932373,0.20653219521045685,0.9266921877861023,-0.9310666918754578,2.0026614665985107
24,52399,52398,0.0564148835837841,-0.08742930740118027,1.1245496273040771,-10.04262638092041,11.498512268066406,-0.6251206398010254,2.0211987495422363,4.010737895965576,0.20913994312286377,0.7046176791191101,-1.0054666996002197,2.00701904296875
25,52409,52408,-0.0053325495682656765,0.08672194927930832,0.9460134506225586,-4.795120716094971,11.682239532470703,-0.4709221124649048,2.0203514099121094,4.011284828186035,0.21054710447788239,0.5218714475631714,-1.0729228258132935,2.0042176246643066
26,52419,52418,-0.014298547059297562,0.04062816873192787,0.8541008830070496,-2.3527867794036865,6.403782367706299,0.9145683646202087,2.021233558654785,4.010041236877441,0.2118353694677353,0.4608098864555359,-1.0752956867218018,1.995253324508667
27,52429,52428,0.02499557100236416,7.994261250132695e-05,1.002893328666687,-0.702102780342102,2.0042359828948975,1.4605926275253296,2.023250102996826,4.00718355178833,0.21135196089744568,0.46076929569244385,-1.1188263893127441,1.9971849918365479
28,52439,52438,0.007431507110595703,-0.014159508049488068,1.1073859930038452,-0.20832855999469757,-1.3503330945968628,2.210071563720703,2.022062063217163,4.008285999298096,0.21248261630535126,0.4384336471557617,-1.2061676979064941,2.0144095420837402
29,52449,52448,0.030269833281636238,-0.09390996396541595,1.0490736961364746,0.4711868464946747,4.955945014953613,2.6001224517822266,2.0258090496063232,4.005398750305176,0.21376559138298035,0.3181050717830658,-1.2733848094940186,2.0559098720550537
30,52459,52458,0.022554386407136917,-0.03324025869369507,1.0093016624450684,0.4652855694293976,9.668644905090332,1.178460717201233,2.026752471923828,4.004915237426758,0.21441717445850372,0.23402902483940125,-1.2480359077453613,2.0829055309295654
31,52469,52468,-0.0013217144878581166,0.023504870012402534,1.0298525094985962,0.5285282135009766,5.057387828826904,1.342267394065857,2.0271778106689453,4.00425910949707,0.21564394235610962,0.1398925483226776,-1.2292906045913696,2.097708225250244
32,52479,52478,0.010405314154922962,0.018772700801491737,1.011754035949707,0.07082262635231018,2.197178602218628,2.1437082290649414,2.0278055667877197,4.001001358032227,0.21699915826320648,0.2471388280391693,-1.2816704511642456,2.082935333251953
33,52489,52488,0.007247044239193201,-0.01766728237271309,1.1116936206817627,-1.282051682472229,0.670813262462616,2.98685359954834,2.026216745376587,4.000162124633789,0.2177874743938446,0.3607645332813263,-1.3295235633850098,2.075930595397949
34,52499,52498,0.02936786226928234,-0.10581782460212708,1.121893286705017,2.9440250396728516,2.697038173675537,1.2660434246063232,2.0248515605926514,4.000045299530029,0.21898096799850464,0.46011459827423096,-1.347127079963684,2.074094295501709
35,52509,52508,0.03998907282948494,-0.04794728383421898,0.9569045901298523,4.104480743408203,3.6701455116271973,1.839468002319336,2.0245769023895264,3.9999165534973145,0.22063085436820984,0.36509841680526733,-1.3103753328323364,2.099449872970581
36,52519,52518,0.02795805037021637,-0.0031502905767410994,0.991708517074585,4.176962852478027,9.037952423095703,1.970274567604065,2.024911642074585,4.000988483428955,0.22085809707641602,0.17132671177387238,-1.269870638847351,2.1469502449035645
37,52529,52528,-0.00467560812830925,0.021112732589244843,1.1231600046157837,3.6969733238220215,5.1615824699401855,2.5554497241973877,2.0264058113098145,3.9975998401641846,0.22219207882881165,0.036614902317523956,-1.226791262626648,2.1794891357421875
38,52539,52538,0.04925239086151123,-0.043884433805942535,1.1433383226394653,6.07501220703125,7.37893009185791,1.325011968612671,2.024562358856201,4.000237464904785,0.22362609207630157,0.04284448176622391,-1.2282376289367676,2.175325632095337
39,52549,52548,0.025556655600667,-0.06589781492948532,0.9732527136802673,6.337887763977051,10.860603332519531,1.355419397354126,2.02774715423584,3.996835470199585,0.2253483235836029,-0.13927744328975677,-1.1348525285720825,2.198249340057373
40,52559,52558,0.011134709231555462,-0.016298647969961166,1.0264778137207031,6.188525199890137,12.355047225952148,1.0226881504058838,2.027730703353882,3.995802879333496,0.2303321361541748,-0.3777947723865509,-1.1070528030395508,2.2340235710144043
41,52569,52568,0.013249731622636318,-0.07363476604223251,1.0515612363815308,9.834884643554688,4.7240071296691895,0.7867903709411621,2.0284526348114014,3.9949824810028076,0.23221877217292786,-0.46366938948631287,-1.0323413610458374,2.2416863441467285
42,52579,52578,0.012317178770899773,0.011466930620372295,1.0010623931884766,11.40967845916748,-0.5028784275054932,0.7349849939346313,2.032191753387451,3.9947125911712646,0.2341923862695694,-0.47841864824295044,-0.9270772337913513,2.24794864654541
43,52589,52588,0.008295731619000435,-0.005311853252351284,0.9818814992904663,8.465815544128418,-2.0487332344055176,0.421561062335968,2.029340982437134,3.995920181274414,0.2388804703950882,-0.2304118275642395,-0.8665029406547546,2.2048561573028564
44,52599,52598,0.036138616502285004,-0.1500215381383896,1.074615716934204,8.286408424377441,-4.450518608093262,0.6883512139320374,2.030531406402588,3.9948830604553223,0.24089761078357697,-0.053392887115478516,-0.7931728959083557,2.176896333694458
45,52609,52608,0.0286248791962862,-0.20668241381645203,1.0264114141464233,8.893112182617188,-4.060126781463623,0.7040379643440247,2.0297963619232178,3.9942238330841064,0.2431347519159317,-0.09166920185089111,-0.7297699451446533,2.1938304901123047
46,52619,52618,0.00657193548977375,-0.040454935282468796,0.9948841333389282,8.187426567077637,-0.25631269812583923,0.5681507587432861,2.029421329498291,3.9952216148376465,0.24547648429870605,-0.09880048036575317,-0.5686058402061462,2.2202835083007812
47,52629,52628,0.015365117229521275,-0.034346263855695724,0.9748676419258118,7.288020610809326,3.832841396331787,-0.010450160130858421,2.0274693965911865,3.9937527179718018,0.24852459132671356,-0.19739976525306702,-0.7261453866958618,2.2114763259887695
48,52639,52638,-0.008481568656861782,0.034952763468027115,0.8977548480033875,6.162644386291504,6.414599418640137,-0.14045460522174835,2.027092695236206,3.9940059185028076,0.2508041560649872,-0.18405763804912567,-0.5787927508354187,2.2175683975219727
49,52649,52648,0.00357796554453671,-0.036131709814071655,0.9724904894828796,5.360949516296387,8.785754203796387,-0.08814670145511627,2.0291950702667236,3.9960639476776123,0.25308844447135925,-0.29438477754592896,-0.4567359387874603,2.232616424560547
50,52659,52658,0.0430353507399559,-0.0709802433848381,0.8928624391555786,4.841433525085449,8.893967628479004,-0.4357437789440155,2.028914213180542,3.9970955848693848,0.2535100281238556,-0.5037301778793335,-0.35365334153175354,2.25504207611084
51,52669,52668,0.010867695324122906,-0.0027039863634854555,0.9424258470535278,4.570297718048096,8.355860710144043,-0.8662230372428894,2.027515172958374,3.9963064193725586,0.25549763441085815,-0.4901525378227234,-0.26177671551704407,2.241586923599243
52,52679,52678,0.02616964653134346,-0.036960169672966,0.9182940125465393,4.662169933319092,4.722782611846924,-0.8227357268333435,2.0278561115264893,3.9972569942474365,0.2574434280395508,-0.743648886680603,-0.2710200250148773,2.223695755004883
53,52689,52688,0.0060953726060688496,-0.027095520868897438,0.9410427212715149,2.5107460021972656,4.538581848144531,-0.6588903069496155,2.028683662414551,3.9968552589416504,0.2595016658306122,-0.8839282393455505,-0.2299269735813141,2.2431209087371826
54,52699,52698,0.0227371696382761,-0.13346204161643982,0.9288865327835083,2.6382718086242676,-1.7197980880737305,-0.9074504375457764,2.028397798538208,3.9949300289154053,0.2613440155982971,-0.8597065210342407,-0.13607318699359894,2.2270734310150146
55,52709,52708,-0.022619416937232018,-0.14867661893367767,0.9434915781021118,2.289787769317627,-5.803529262542725,-1.220962643623352,2.028315305709839,3.994882345199585,0.26307734847068787,-0.8534148335456848,-0.10973417013883591,2.230961322784424
56,52719,52718,-0.06430841982364655,-0.05019378662109375,0.949803352355957,1.8697810173034668,-9.937180519104004,-1.2321072816848755,2.029562473297119,3.9977211952209473,0.26478704810142517,-0.7751463055610657,-0.13769741356372833,2.2165279388427734
57,52729,52728,-0.02098577655851841,-0.060558296740055084,0.87127685546875,1.725170373916626,-10.120149612426758,-1.3901773691177368,2.0299296379089355,3.9958035945892334,0.265418142080307,-0.5546221733093262,-0.06798470765352249,2.1898066997528076
58,52739,52738,0.021977277472615242,-0.020671365782618523,0.8927660584449768,2.1927742958068848,-11.045318603515625,-0.8816631436347961,2.0283565521240234,3.9947259426116943,0.2669398784637451,-0.5160534381866455,0.10722186416387558,2.2179574966430664
59,52749,52748,0.01760057546198368,0.002634192816913128,0.9814724922180176,2.0471625328063965,-8.687125205993652,-1.032814621925354,2.027764081954956,3.995149612426758,0.2683567404747009,-0.3821675777435303,0.05879281833767891,2.1962761878967285
60,52759,52758,0.011314274743199348,-0.00427598599344492,0.994452178478241,1.791678786277771,-4.597094535827637,-1.4658377170562744,2.026531934738159,3.996140956878662,0.2705135643482208,-0.29044732451438904,0.0949312075972557,2.187864065170288
61,52769,52768,0.012145351618528366,-0.06948436051607132,1.0037038326263428,-0.20685020089149475,-0.7059041857719421,-1.702125906944275,2.026556968688965,3.994259834289551,0.27183082699775696,-0.2640444040298462,0.3327212631702423,2.208662509918213
62,52779,52778,0.012645670212805271,-0.04654150456190109,0.9656316637992859,-2.811533212661743,2.0449271202087402,-1.7510820627212524,2.0258212089538574,3.9950008392333984,0.27325841784477234,-0.30012866854667664,0.2715921103954315,2.17067289352417
63,52789,52788,0.014019712805747986,-0.023663168773055077,0.9422006011009216,-4.494149684906006,5.015549182891846,-2.2689919471740723,2.0255112648010254,3.996073007583618,0.27521198987960815,-0.44101473689079285,0.07131986320018768,2.1396985054016113
64,52799,52798,0.019251197576522827,-0.014848322607576847,0.9110974669456482,-5.759662628173828,9.992785453796387,-3.362257480621338,2.024972915649414,3.995734453201294,0.27656087279319763,-0.4563251733779907,-0.0045542907901108265,2.1124486923217773
65,52809,52808,0.0558057501912117,-0.005941078998148441,0.8751635551452637,-5.561867713928223,2.3681247234344482,-2.2930984497070312,2.0228285789489746,3.997738838195801,0.2778826951980591,-0.41142919659614563,-0.09167931973934174,2.0817148685455322
66,52819,52818,0.007825514301657677,0.018086303025484085,0.9598767757415771,-3.507765531539917,0.726010262966156,-2.9082818031311035,2.0311086177825928,3.9968936443328857,0.28349462151527405,-1.382435917854309,-0.16190828382968903,2.038921356201172
67,52829,52828,0.03671766072511673,-0.02384108491241932,0.9681200981140137,0.07891280949115753,-5.026834011077881,-2.85978364944458,2.024425983428955,3.9972968101501465,0.2866126596927643,-0.5395078659057617,-0.2723659574985504,2.0134661197662354
68,52839,52838,0.007494455669075251,-0.011125324293971062,0.9595828652381897,4.0614094734191895,-8.482009887695312,-2.8297371864318848,2.0303051471710205,3.997276782989502,0.28821027278900146,-1.2222528457641602,-0.24424397945404053,1.9827309846878052
69,52849,52848,-0.06306386739015579,-0.00037675874773412943,0.9705805778503418,8.092419624328613,-12.800524711608887,-3.407158851623535,2.0231733322143555,3.995971441268921,0.2913309633731842,-0.27156373858451843,-0.08626037836074829,1.9828464984893799
70,52859,52858,-0.09908031672239304,0.0370732881128788,0.943139374256134,9.406769752502441,-16.32785415649414,-2.504812240600586,2.0216641426086426,3.9952642917633057,0.29286351799964905,-0.09828981012105942,0.03901706263422966,1.9579367637634277
71,52869,52868,-0.043771978467702866,0.03911541774868965,0.9438671469688416,7.52988338470459,-14.163980484008789,-2.4767608642578125,2.021087646484375,3.9946861267089844,0.2942841351032257,0.1031925231218338,0.1760341227054596,1.938364863395691
72,52879,52878,-0.01388650480657816,0.06717628240585327,0.992717444896698,4.502013206481934,-7.251518249511719,-2.891777515411377,2.0341639518737793,3.9952337741851807,0.29754433035850525,-1.2409037351608276,0.2846294045448303,1.8970437049865723
73,52889,52888,0.0010266202734783292,0.020771611481904984,0.9545696973800659,-0.19546490907669067,-1.4428859949111938,-2.9687328338623047,2.0335781574249268,3.995965003967285,0.29659324884414673,-1.01604163646698,0.32366102933883667,1.869328498840332
74,52899,52898,-0.006590245291590691,0.058919936418533325,0.9654924273490906,-4.896550178527832,-2.803579568862915,-2.8476314544677734,2.0339770317077637,3.9956376552581787,0.29814305901527405,-0.8690527081489563,0.29470497369766235,1.8354777097702026
75,52909,52908,-0.00875229761004448,0.03242531418800354,0.9837428331375122,-8.638050079345703,-7.615677833557129,-2.7611069679260254,2.033942937850952,3.9975850582122803,0.2995692789554596,-0.7918589115142822,0.19439350068569183,1.7988826036453247
76,52919,52918,0.00847390666604042,-0.016785351559519768,0.9100695848464966,-9.602239608764648,-17.863588333129883,-2.8686952590942383,2.0334033966064453,3.997309684753418,0.29904356598854065,-0.6232732534408569,0.042873162776231766,1.7605761289596558
77,52929,52928,-0.01713889092206955,0.088582843542099,0.9070519208908081,-8.751259803771973,-22.867095947265625,-2.7570762634277344,2.0329065322875977,3.997987747192383,0.30025529861450195,-0.41160547733306885,-0.039525896310806274,1.737178921699524
78,52939,52938,-0.00933133065700531,0.04982388764619827,0.9382423162460327,-3.4729068279266357,-29.6019344329834,-2.9709534645080566,2.0325441360473633,3.9990947246551514,0.30141910910606384,-0.010997463017702103,-0.16288365423679352,1.7116059064865112
79,52949,52948,0.004659843631088734,0.144145205616951,0.928165853023529,0.6177354454994202,-28.781091690063477,-2.9438135623931885,2.0330326557159424,3.99924635887146,0.3024018704891205,0.20841751992702484,-0.2151239663362503,1.6828018426895142
80,52959,52958,-0.003156535094603896,0.18753837049007416,0.9156254529953003,5.931675910949707,-24.935821533203125,-2.7773947715759277,2.032043933868408,3.998873472213745,0.30351218581199646,0.6684427857398987,-0.18248845636844635,1.662182331085205
81,52969,52968,0.042868245393037796,0.13422179222106934,0.8602222800254822,8.673032760620117,-16.492963790893555,-2.796722173690796,2.0321829319000244,3.9971320629119873,0.304371178150177,1.1619172096252441,-0.0780535489320755,1.6036618947982788
82,52979,52978,0.036731548607349396,0.08185289055109024,0.8706991672515869,9.476816177368164,-9.121384620666504,-2.823662042617798,2.0310213565826416,3.9988410472869873,0.3050561845302582,1.2619097232818604,-0.23919416964054108,1.5969460010528564
83,52989,52988,-0.006981533020734787,0.09945298731327057,0.9432612657546997,8.24737548828125,1.685340166091919,-3.492872476577759,2.029738187789917,3.9976327419281006,0.30123624205589294,1.4472105503082275,0.023446541279554367,1.5404396057128906
84,52999,52998,-0.045830026268959045,0.10533566772937775,1.0085195302963257,5.197563171386719,5.843629837036133,-3.4430792331695557,2.0299978256225586,3.997992992401123,0.3015260100364685,1.3744697570800781,-0.011073235422372818,1.5055265426635742
85,53009,53008,-0.0654667541384697,-0.08147682249546051,1.004279613494873,2.2972047328948975,11.98176097869873,-3.7266383171081543,2.027585744857788,3.9975433349609375,0.30183103680610657,1.3900116682052612,0.033502884209156036,1.5028995275497437
86,53019,53018,-9.546528599457815e-05,-0.04962942749261856,0.9359804391860962,0.0748736634850502,14.632229804992676,-4.3863205909729,2.027970314025879,3.9965014457702637,0.2982885539531708,1.2884782552719116,0.08830699324607849,1.4661363363265991
87,53029,53028,-0.04022100195288658,-0.006574157625436783,0.9463528990745544,-0.03857889398932457,12.315826416015625,-4.363594055175781,2.0281193256378174,3.99603533744812,0.29823943972587585,1.0108691453933716,0.11241792887449265,1.3808318376541138
88,53039,53038,-0.07090217620134354,0.059090159833431244,0.9656482338905334,-0.5422736406326294,12.719995498657227,-3.84744930267334,2.0262651443481445,3.9956719875335693,0.29812467098236084,1.2419244050979614,0.12300803512334824,1.3866775035858154
89,53049,53048,-0.05248855799436569,0.03939029201865196,0.9564334154129028,-0.7401173114776611,14.322108268737793,-3.632157325744629,2.027095079421997,3.9960336685180664,0.2960732579231262,0.9988738298416138,0.12977121770381927,1.3440992832183838
90,53059,53058,-0.026518812403082848,0.006458599586039782,1.0017789602279663,-0.8855116963386536,17.02003288269043,-3.191328763961792,2.0256311893463135,3.9958765506744385,0.29581207036972046,0.8961104154586792,0.13230669498443604,1.3074853420257568
91,53069,53068,-0.002550311852246523,-0.04599127173423767,1.033438801765442,-0.8024060726165771,20.516502380371094,-3.32207989692688,2.0250563621520996,3.9965779781341553,0.29550573229789734,0.8132016658782959,0.12978416681289673,1.2768503427505493
92,53079,53078,0.054354358464479446,-0.15540966391563416,1.0292432308197021,0.5123359560966492,22.802623748779297,-3.1352405548095703,2.0256640911102295,3.9969608783721924,0.2952355146408081,0.5156322121620178,0.05685987323522568,1.2476767301559448
93,53089,53088,0.012208517640829086,-0.09146789461374283,1.037698745727539,1.224747896194458,24.25069808959961,-3.204575777053833,2.022080183029175,3.997856855392456,0.2932452857494354,0.5902916789054871,-0.07626071572303772,1.2386043071746826
94,53099,53098,0.02872040495276451,-0.017721474170684814,0.9454964995384216,1.5801074504852295,22.794551849365234,-3.055316209793091,2.0237419605255127,3.9966273307800293,0.29301223158836365,0.145381361246109,-0.02238655462861061,1.1976430416107178
95,53109,53108,0.0031963689252734184,-0.018255190923810005,0.9932302236557007,4.091814041137695,22.82571792602539,-3.5795226097106934,2.0237677097320557,3.9966654777526855,0.292715460062027,-0.1850813776254654,0.050748612731695175,1.1562758684158325
96,53119,53118,-0.004530480597168207,0.11420248448848724,1.0144637823104858,4.5624165534973145,18.84514808654785,-3.217327356338501,2.019625186920166,3.998154878616333,0.28907158970832825,0.08162540197372437,-0.10055502504110336,1.1483867168426514
97,53129,53128,0.05093808472156525,-0.10932747274637222,1.034793734550476,5.101954460144043,14.29745864868164,-3.0076098442077637,2.018292188644409,3.997185707092285,0.288688063621521,-0.298126757144928,0.02411866933107376,1.1039735078811646
98,53139,53138,-0.029982877895236015,0.06944265216588974,0.9933823943138123,6.095357418060303,15.583057403564453,-2.881120204925537,2.0176126956939697,3.9968252182006836,0.2882007360458374,-0.4435743987560272,0.14372842013835907,1.0736095905303955
99,53149,53148,0.002474927343428135,-0.0011651688255369663,1.0301616191864014,5.680060386657715,16.535024642944336,-1.8895820379257202,2.017631769180298,3.9964919090270996,0.287479430437088,-0.5944658517837524,0.18915924429893494,1.0440831184387207
100,53159,53158,0.04212561622262001,-0.024089984595775604,1.03800368309021,3.582780361175537,17.412466049194336,-1.2848347425460815,2.01649808883667,3.9977550506591797,0.2870168387889862,-0.6872271299362183,0.2219858169555664,1.025636076927185
101,53169,53168,0.007511989679187536,0.002108762739226222,1.0864670276641846,2.513429880142212,17.045669555664062,-1.6135578155517578,2.0173449516296387,3.9962880611419678,0.2865777015686035,-0.9590721726417542,0.39694127440452576,1.0124081373214722
102,53179,53178,0.03373577445745468,-0.09462826699018478,1.0663743019104004,1.5701087713241577,17.151758193969727,-1.2465081214904785,2.0135087966918945,3.9989099502563477,0.2863994240760803,-0.9732615351676941,0.21402141451835632,0.9939747452735901
103,53189,53188,0.000902208499610424,-0.019683457911014557,1.0781807899475098,0.4864954352378845,16.15550994873047,-1.5861738920211792,2.0138285160064697,3.9987950325012207,0.28289327025413513,-1.222739338874817,0.27090832591056824,0.9797788262367249
104,53199,53198,-0.00433772336691618,0.014233391731977463,1.0432738065719604,-0.7280511856079102,13.829480171203613,-1.290474534034729,2.0146706104278564,3.9980392456054688,0.2824772000312805,-1.4520057439804077,0.38765382766723633,0.9727556109428406
105,53209,53208,0.021005652844905853,-0.02643328160047531,1.029453992843628,0.2239549160003662,11.472304344177246,-1.352545142173767,2.0119924545288086,3.997631311416626,0.28222835063934326,-1.477807641029358,0.40370258688926697,0.9686625003814697
106,53219,53218,0.014959507621824741,-0.03789231553673744,1.1207599639892578,0.6152858138084412,7.7951273918151855,-1.0698769092559814,2.0130198001861572,3.9974899291992188,0.2855839133262634,-1.6852741241455078,0.3488037586212158,0.9452803134918213
107,53229,53228,0.01413014717400074,-0.039370838552713394,1.0089396238327026,1.5891644954681396,7.907519340515137,-0.24290791153907776,2.0117275714874268,3.9965617656707764,0.2855689227581024,-1.757830023765564,0.4686339795589447,0.9522180557250977
108,53239,53238,0.0383775532245636,-0.024111082777380943,1.1257563829421997,0.06164294481277466,7.365714073181152,-0.4443783164024353,2.0121424198150635,3.9965648651123047,0.28554078936576843,-1.91916823387146,0.49156537652015686,0.9422581791877747
109,53249,53248,-0.013261653482913971,-0.014737586490809917,1.1944115161895752,-0.5279576182365417,7.043238639831543,-0.2824701964855194,2.008674144744873,3.9985275268554688,0.2826073467731476,-1.792554259300232,0.4173164665699005,0.9378382563591003
110,53259,53258,-0.003901304677128792,-0.045881930738687515,1.0695583820343018,-1.2163143157958984,4.031063079833984,-0.17792969942092896,2.0083281993865967,3.999500274658203,0.28266242146492004,-1.9125126600265503,0.41928109526634216,0.9357491135597229
111,53269,53268,0.04710503667593002,-0.017439620569348335,0.9772366881370544,-2.0644187927246094,4.604409217834473,-0.439259797334671,2.007859468460083,3.9995980262756348,0.28287169337272644,-1.9316120147705078,0.4092918038368225,0.9351462125778198
112,53279,53278,0.013988574966788292,0.017187558114528656,1.0520129203796387,-2.039888858795166,3.889317274093628,-0.5261507034301758,2.009199380874634,3.998850107192993,0.2829919457435608,-2.25457763671875,0.3827843964099884,0.9143500924110413
113,53289,53288,-0.028550658375024796,0.0309943575412035,1.03099524974823,-2.918626070022583,1.9416062831878662,0.10505956411361694,2.0086772441864014,3.9994213581085205,0.2834794521331787,-2.232149600982666,0.2546415627002716,0.8894970417022705
114,53299,53298,-0.055631123483181,0.06189293786883354,1.0319353342056274,-1.8503143787384033,-0.3343765139579773,-0.615863561630249,2.008687973022461,3.9986908435821533,0.2837769687175751,-2.2279441356658936,0.34342721104621887,0.91422438621521
115,53309,53308,0.014323257841169834,-0.03868713602423668,0.9761565327644348,-1.6150104999542236,-4.613226890563965,-0.03414576128125191,2.0071909427642822,3.998659610748291,0.28417158126831055,-2.1585233211517334,0.29434892535209656,0.9111735224723816
116,53319,53318,0.036642659455537796,-0.01837790571153164,1.0199401378631592,0.33895164728164673,-6.170680046081543,-0.6675282120704651,2.0072574615478516,3.9973251819610596,0.28225618600845337,-2.1738085746765137,0.37549158930778503,0.9345419406890869
117,53329,53328,-0.0549435093998909,0.12467525899410248,1.0106334686279297,-0.002929797861725092,-6.831627368927002,0.5745037198066711,2.0049750804901123,3.997467041015625,0.2825454771518707,-2.054325580596924,0.37061816453933716,0.9373507499694824
118,53339,53338,0.003930058795958757,-0.03645775839686394,0.989035427570343,0.08729278296232224,-6.705674648284912,0.20108546316623688,2.0054304599761963,3.9984946250915527,0.28274112939834595,-2.0123531818389893,0.38121455907821655,0.935113787651062
119,53349,53348,0.026397613808512688,-0.0035617740359157324,1.0627474784851074,-1.243695855140686,-4.39304780960083,0.06724029779434204,2.0058043003082275,3.9986841678619385,0.2819417119026184,-1.9702006578445435,0.37268194556236267,0.9324572682380676
120,53359,53358,0.008458689786493778,-0.053628645837306976,1.0253959894180298,-1.6989550590515137,-1.9395196437835693,0.14461399614810944,2.0057790279388428,3.9993882179260254,0.2820831537246704,-2.0318477153778076,0.3487398624420166,0.9218988418579102
121,53369,53368,-0.03112150728702545,0.045657917857170105,0.9592531323432922,-3.405985116958618,1.1779263019561768,-0.00591635936871171,2.005783796310425,4.000255107879639,0.2822985351085663,-1.9638891220092773,0.2330663651227951,0.8947246670722961
122,53379,53378,-0.010570412501692772,0.028012022376060486,1.0778177976608276,-3.7067995071411133,2.5352728366851807,0.5646038055419922,2.0069522857666016,4.001701831817627,0.2824048399925232,-2.082597017288208,0.19271108508110046,0.8822923302650452
123,53389,53388,0.046291667968034744,-0.06333089619874954,1.0013892650604248,-3.1816112995147705,-2.3101067543029785,0.43839505314826965,2.0066335201263428,4.000428676605225,0.2814430892467499,-2.027937889099121,0.22107020020484924,0.9095796346664429
124,53399,53398,-0.013875236734747887,-0.0041755326092243195,1.021152138710022,-0.6386552453041077,-7.142892837524414,0.5748562216758728,2.007385015487671,4.00072717666626,0.28155189752578735,-2.0843584537506104,0.18382865190505981,0.9120863080024719
125,53409,53408,-0.017019201070070267,-0.0297225508838892,1.047396183013916,1.502728819847107,-6.598217487335205,0.7583884000778198,2.0075125694274902,4.000860214233398,0.281878262758255,-1.9136980772018433,0.18076813220977783,0.9259876012802124
126,53419,53418,0.02238442935049534,-0.14122457802295685,1.054060935974121,1.8938405513763428,-7.590280055999756,0.9148761034011841,2.008474349975586,3.9997973442077637,0.2833848297595978,-1.8771069049835205,0.27688077092170715,0.9584442973136902
127,53429,53428,0.001554889720864594,-0.04105057194828987,1.0692960023880005,2.0276544094085693,-7.487464427947998,0.9216943979263306,2.008439540863037,3.9983930587768555,0.28370463848114014,-1.8238649368286133,0.29541632533073425,0.9703626036643982
128,53439,53438,0.014504143968224525,-0.08815208077430725,1.0579679012298584,1.8745521306991577,-7.736462116241455,0.8603096604347229,2.008061170578003,3.9976370334625244,0.28423282504081726,-1.6231911182403564,0.322787344455719,0.9833397269248962
129,53449,53448,0.012089832685887814,-0.001934611238539219,1.048513650894165,-0.5681482553482056,-7.606430530548096,1.1292719841003418,2.0074644088745117,3.9969847202301025,0.2838081419467926,-1.4249985218048096,0.32716795802116394,0.9951530694961548
130,53459,53458,-0.014784147962927818,-0.034933384507894516,1.0010290145874023,-3.717506170272827,-7.439203262329102,0.95622718334198,2.0108609199523926,3.996356964111328,0.2842339277267456,-1.696570873260498,0.2970692813396454,0.9798129796981812
131,53469,53468,-0.026965929195284843,0.04972805082798004,0.9617323875427246,-5.020729064941406,-6.224856853485107,0.7032006978988647,2.0106077194213867,3.9962809085845947,0.28491857647895813,-1.4103243350982666,0.2688519060611725,1.0100382566452026
132,53479,53478,-0.01593819446861744,0.05269980430603027,1.0398361682891846,-5.835724830627441,-5.270408630371094,0.8092722296714783,2.0119845867156982,3.9947094917297363,0.2901419699192047,-1.4449443817138672,0.2906411290168762,1.0137581825256348
133,53489,53488,-0.0032047934364527464,0.025534745305776596,0.9686902761459351,-5.814746856689453,-6.828399181365967,1.115694522857666,2.0123536586761475,3.9943716526031494,0.2909637987613678,-1.3319778442382812,0.2588604688644409,1.0320616960525513
134,53499,53498,0.012972391210496426,-0.011610319837927818,1.0360081195831299,-2.9799678325653076,-8.710882186889648,0.7941341996192932,2.0135421752929688,3.9944357872009277,0.2916925847530365,-1.3556694984436035,0.23937517404556274,1.0459825992584229
135,53509,53508,0.0042443289421498775,-0.03409942612051964,0.9980360865592957,-2.236818552017212,-9.472855567932129,-0.03309352323412895,2.0138120651245117,3.9953455924987793,0.29258525371551514,-1.1979914903640747,0.1623600423336029,1.0486129522323608
136,53519,53518,-0.02771853283047676,0.029254119843244553,1.0265984535217285,-1.2593754529953003,-7.6685357093811035,0.4225432574748993,2.0155680179595947,3.995849370956421,0.29175254702568054,-1.2616515159606934,0.10906773060560226,1.0391919612884521
137,53529,53528,0.021250318735837936,0.07384064048528671,0.8635528683662415,-1.1361727714538574,-7.324015140533447,0.8506127595901489,2.014925003051758,3.995203971862793,0.29264113306999207,-1.0120891332626343,0.06919953227043152,1.0421028137207031
138,53539,53538,-0.004495169036090374,0.15521426498889923,1.0073739290237427,-1.2218685150146484,-9.278240203857422,1.3312658071517944,2.015413522720337,3.994645357131958,0.29330384731292725,-0.9409219026565552,0.04029074311256409,1.043929100036621
139,53549,53548,0.02070080302655697,-0.05244972184300423,1.0329126119613647,-0.566559374332428,-10.523429870605469,1.7886416912078857,2.018397331237793,3.9943954944610596,0.29517868161201477,-1.0778228044509888,0.16377446055412292,1.0767717361450195
140,53559,53558,0.026254553347826004,0.05917856842279434,1.026260256767273,-0.4873758852481842,-10.368329048156738,1.55488920211792,2.0166609287261963,3.9942233562469482,0.2960905432701111,-0.7999589443206787,0.12626482546329498,1.091243028640747
141,53569,53568,-0.016632333397865295,-0.051345426589250565,0.9849822521209717,-2.1115329265594482,-8.466642379760742,1.5318742990493774,2.0195119380950928,3.993699789047241,0.2966427803039551,-0.9410377144813538,0.16609445214271545,1.1093621253967285
142,53579,53578,0.027325661852955818,-0.04410180449485779,0.9542372226715088,-2.790756940841675,-6.659570217132568,1.5625171661376953,2.019089698791504,3.9938271045684814,0.2964295744895935,-0.6647127270698547,0.10940141975879669,1.1224727630615234
143,53589,53588,0.02654321677982807,-0.054438330233097076,0.9982452392578125,-4.5083112716674805,-7.18999719619751,1.0742040872573853,2.0211570262908936,3.9940543174743652,0.2969954013824463,-0.7399913668632507,0.028260190039873123,1.1263200044631958
144,53599,53598,0.05450480431318283,-0.04417196661233902,0.952193558216095,-5.1628642082214355,-7.5878825187683105,1.0046006441116333,2.0220730304718018,3.99285626411438,0.2976137399673462,-0.650740385055542,0.08127958327531815,1.1499364376068115
145,53609,53608,-0.036098115146160126,0.1082456111907959,0.9683386087417603,-4.199488162994385,-8.353644371032715,1.1853429079055786,2.0224199295043945,3.9927315711975098,0.2983361780643463,-0.5466282367706299,-0.02458692155778408,1.153198003768921
146,53619,53618,-0.008187738247215748,0.05757608637213707,0.9319256544113159,-4.564075469970703,-9.604511260986328,1.3916493654251099,2.023932695388794,3.9920763969421387,0.3018745183944702,-0.440327912569046,-0.047965485602617264,1.1652311086654663
147,53629,53628,-0.03268618509173393,0.05493991822004318,1.0738447904586792,-3.396867275238037,-11.399317741394043,1.206339716911316,2.025475025177002,3.9916141033172607,0.3024923801422119,-0.3934045433998108,-0.06216540187597275,1.1817431449890137
148,53639,53638,0.0034011623356491327,-0.04201227426528931,1.0795491933822632,-2.174095869064331,-9.102938652038574,0.6804490685462952,2.026235818862915,3.9914839267730713,0.3032906949520111,-0.17480646073818207,-0.14441674947738647,1.1927012205123901
149,53649,53648,-0.007444010581821203,-0.026898982003331184,1.019353985786438,-0.9708489179611206,-7.168745517730713,0.5459752082824707,2.0271241664886475,3.991955280303955,0.3078419268131256,-0.053152576088905334,-0.20358146727085114,1.2003111839294434
150,53659,53658,0.03246414288878441,-0.02169113978743553,0.9260759949684143,-0.8419269919395447,-5.4673309326171875,0.2934143543243408,2.0304155349731445,3.990363836288452,0.30882394313812256,-0.12356291711330414,-0.16602109372615814,1.2061878442764282
151,53669,53668,0.03670692443847656,-0.031150568276643753,0.8880433440208435,-1.4361870288848877,-5.925369739532471,0.5579180121421814,2.032581090927124,3.988759756088257,0.30981481075286865,-0.14360231161117554,-0.20596039295196533,1.205226182937622
152,53679,53678,-0.036087438464164734,0.07358666509389877,0.9248096346855164,-0.3310553729534149,-7.517133712768555,0.4669698476791382,2.031944513320923,3.9879679679870605,0.3159834146499634,0.08071725070476532,-0.23594927787780762,1.2029223442077637
153,53689,53688,-0.010830478742718697,0.005803322419524193,0.9660377502441406,-1.543904185295105,-7.201952934265137,0.8847770690917969,2.035369634628296,3.9866838455200195,0.3170754909515381,0.022061841562390327,-0.2605555057525635,1.205480933189392
154,53699,53698,-0.002230529673397541,-0.11764266341924667,0.9762144088745117,-1.6860973834991455,-6.923142910003662,0.6052882075309753,2.035616397857666,3.986116886138916,0.31825023889541626,0.18579933047294617,-0.29602378606796265,1.2116135358810425
155,53709,53708,-0.008499769493937492,-0.10087265819311142,0.9460746645927429,-0.8653739094734192,-6.235187530517578,0.2694050371646881,2.037639617919922,3.985466718673706,0.3192744255065918,0.18942716717720032,-0.2564007639884949,1.2190436124801636
156,53719,53718,-0.037722259759902954,0.07911023497581482,0.9812155365943909,-0.32893282175064087,-5.040588855743408,-0.1433475911617279,2.0374746322631836,3.9858880043029785,0.3193022906780243,0.4151599109172821,-0.2844158411026001,1.2192846536636353
157,53729,53728,0.022060343995690346,0.13322648406028748,0.9044053554534912,0.11056308448314667,-3.9395036697387695,0.162298783659935,2.0394105911254883,3.985339403152466,0.3201718330383301,0.3082802891731262,-0.3011578917503357,1.2260664701461792
158,53739,53738,0.057508643716573715,0.11350090801715851,0.9031572341918945,-0.4082803726196289,-3.098560333251953,-0.360796719789505,2.0409939289093018,3.9851951599121094,0.3210379481315613,0.3462723195552826,-0.316031813621521,1.2270900011062622
159,53749,53748,0.03701820224523544,0.0866592600941658,0.9770305156707764,-0.8122377395629883,-2.866480827331543,-0.5997809171676636,2.041567087173462,3.9858787059783936,0.32048299908638,0.37138187885284424,-0.3313200771808624,1.2272861003875732
160,53759,53758,0.017217034474015236,0.036709628999233246,0.9912586808204651,-1.0870423316955566,-4.399951934814453,-0.7847347259521484,2.0425286293029785,3.984541177749634,0.32119020819664,0.47009798884391785,-0.28026846051216125,1.2117085456848145
161,53769,53768,0.0231810100376606,-0.025228915736079216,0.9324384927749634,-0.6500342488288879,-3.556635618209839,-1.099969744682312,2.0443167686462402,3.984477996826172,0.3217453360557556,0.421261727809906,-0.2355920672416687,1.2008391618728638
162,53779,53778,-0.027667153626680374,0.03812485188245773,0.9440527558326721,-0.791458785533905,-3.6636552810668945,-0.6362852454185486,2.044321060180664,3.98555326461792,0.3243388831615448,0.6043638586997986,-0.3418644666671753,1.199303150177002
163,53789,53788,-0.022865591570734978,0.003708836156874895,0.9510829448699951,-1.103285312652588,-1.7819713354110718,-0.867087721824646,2.04528546333313,3.9845821857452393,0.3250606954097748,0.6831424832344055,-0.2887248694896698,1.180462121963501
164,53799,53798,-0.01115380134433508,0.029671506956219673,0.9275941848754883,-0.8450459837913513,-2.5267493724823,0.029469575732946396,2.046876907348633,3.9860644340515137,0.3256228268146515,0.5980085134506226,-0.39529773592948914,1.2011098861694336
165,53809,53808,0.02082817442715168,0.011419637128710747,0.9605013728141785,0.028610099107027054,1.1520236730575562,-0.4942142367362976,2.047663927078247,3.9849820137023926,0.32780757546424866,0.712439239025116,-0.4106253385543823,1.1903365850448608
166,53819,53818,0.008549819700419903,0.08050010353326797,1.018673300743103,1.3220274448394775,1.7820457220077515,-0.42789167165756226,2.049992084503174,3.984408140182495,0.3283694088459015,0.6310542821884155,-0.40406954288482666,1.1821074485778809
167,53829,53828,0.007758984342217445,0.06824430823326111,1.0016117095947266,2.88093900680542,2.4700796604156494,-0.7665222883224487,2.05027437210083,3.984412908554077,0.32898417115211487,0.7122442722320557,-0.38904672861099243,1.1749647855758667
168,53839,53838,-0.01186541561037302,0.037822213023900986,0.9753143191337585,3.628089666366577,2.611302614212036,-1.0629767179489136,2.050100088119507,3.9849934577941895,0.32961738109588623,0.762077271938324,-0.34819409251213074,1.1611121892929077
169,53849,53848,-0.03454851359128952,0.0265860203653574,0.9388973712921143,3.2003135681152344,3.1595675945281982,-1.1764700412750244,2.050365924835205,3.9848904609680176,0.3294273018836975,0.7242312431335449,-0.2991770803928375,1.15059494972229
170,53859,53858,-0.004503881558775902,-0.029192695394158363,0.9299957752227783,2.7659335136413574,3.795448064804077,-1.1786028146743774,2.051316499710083,3.984746217727661,0.32993021607398987,0.6817206740379333,-0.25217384099960327,1.137048363685608
171,53869,53868,-0.059328820556402206,0.10321682691574097,0.9253740310668945,1.5161733627319336,4.376265048980713,-1.288514256477356,2.0515084266662598,3.9840588569641113,0.33044323325157166,0.7008119225502014,-0.21778711676597595,1.1226123571395874
172,53879,53878,-0.004405884072184563,-0.0029442578088492155,0.932931661605835,0.8707165718078613,5.293846607208252,-1.206961989402771,2.0517117977142334,3.983337640762329,0.33159583806991577,0.7007762789726257,-0.1964123398065567,1.1064988374710083
173,53889,53888,-0.004034660290926695,0.07655666023492813,0.9440297484397888,0.09966754913330078,5.702415466308594,-1.742357850074768,2.053654909133911,3.9826014041900635,0.33191055059432983,0.5368829965591431,-0.11749408394098282,1.0879234075546265
174,53899,53898,-0.02247941680252552,0.09919688105583191,0.9883898496627808,0.1728244572877884,5.809917449951172,-1.7598443031311035,2.0542006492614746,3.9820568561553955,0.3322520852088928,0.5234668850898743,-0.12821349501609802,1.0721782445907593
175,53909,53908,-0.011132567189633846,-0.013829467818140984,0.964419960975647,-0.15933604538440704,6.022688388824463,-1.401003360748291,2.054755687713623,3.982081413269043,0.3340018689632416,0.44092848896980286,-0.14407286047935486,1.0336265563964844
176,53919,53918,-0.032628752291202545,-0.09325167536735535,0.9934067726135254,-1.058042049407959,5.628986358642578,-1.531394362449646,2.0554943084716797,3.9821436405181885,0.3343295454978943,0.3926178216934204,-0.1592029631137848,1.0452461242675781
177,53929,53928,-0.08200499415397644,-0.05775341019034386,1.058620572090149,-1.723965048789978,7.056063652038574,-0.9244154691696167,2.0563955307006836,3.981428384780884,0.33474671840667725,0.36816084384918213,-0.18354438245296478,1.03361177444458
178,53939,53938,0.05227290466427803,0.00023138667165767401,0.9141099452972412,-1.1805410385131836,4.046044826507568,-0.9206233024597168,2.057286262512207,3.98091197013855,0.33515995740890503,0.27047500014305115,-0.2327890545129776,1.0150519609451294
179,53949,53948,-0.01672356203198433,-0.03051663003861904,0.9119508862495422,-1.0929700136184692,4.588845252990723,-0.084080770611763,2.0569024085998535,3.981494188308716,0.3322002589702606,0.31029030680656433,-0.24542073905467987,1.0219991207122803
180,53959,53958,-0.024881234392523766,-0.026056913658976555,0.9539229273796082,-0.7453290820121765,3.9040191173553467,0.15861062705516815,2.057188034057617,3.9815237522125244,0.33229756355285645,0.31582924723625183,-0.2637457549571991,1.0175042152404785
181,53969,53968,-0.020706506446003914,0.03383775055408478,0.9420249462127686,1.0487167835235596,5.092644214630127,-0.3227427899837494,2.0566978454589844,3.981318473815918,0.3323533236980438,0.2520551383495331,-0.257816880941391,1.0211559534072876
182,53979,53978,0.031083423644304276,-0.03417622298002243,0.8997377753257751,1.120469093322754,3.2313873767852783,0.3690541982650757,2.056659460067749,3.9818105697631836,0.3308837115764618,0.1560411900281906,-0.3147556185722351,1.0290977954864502
183,53989,53988,0.034144483506679535,-0.08732534199953079,0.9767559170722961,2.1677610874176025,3.056123971939087,0.3822290301322937,2.056887149810791,3.9827516078948975,0.3307526409626007,0.16952820122241974,-0.27918314933776855,1.0347378253936768
184,53999,53998,0.016095072031021118,-0.09324239939451218,0.9596577286720276,2.2663512229919434,3.8223681449890137,0.30556583404541016,2.056572914123535,3.9825520515441895,0.3305684030056,0.2795226573944092,-0.25919148325920105,1.0272104740142822
185,54009,54008,0.03576159477233887,-0.09491487592458725,0.8990743160247803,1.97725510597229,5.710484027862549,-0.012643744237720966,2.057063341140747,3.9831299781799316,0.3311682343482971,0.12040642648935318,-0.27993616461753845,1.0397697687149048
186,54019,54018,-0.002562191104516387,0.050717927515506744,1.0044299364089966,2.3695335388183594,6.509243011474609,0.16174627840518951,2.0573010444641113,3.9826853275299072,0.3308762311935425,0.12968014180660248,-0.25432175397872925,1.0358942747116089
187,54029,54028,0.034407854080200195,-0.005002007354050875,0.8983108401298523,2.6153032779693604,7.970607757568359,0.31189149618148804,2.058077096939087,3.982936382293701,0.3305574357509613,0.06273751705884933,-0.20524416863918304,1.0419872999191284
188,54039,54038,0.019256003201007843,-0.007597541902214289,0.9661241769790649,2.4925453662872314,8.119235038757324,0.4537280797958374,2.0586485862731934,3.9835503101348877,0.3297671675682068,-0.0296471007168293,-0.23364363610744476,1.0479483604431152
189,54049,54048,0.015549851581454277,-0.019419098272919655,1.062792420387268,2.5417943000793457,7.611514568328857,0.09161712229251862,2.0584540367126465,3.9838647842407227,0.3293071389198303,-0.038488514721393585,-0.2568134367465973,1.0537216663360596
190,54059,54058,-0.02752339094877243,-0.003535719122737646,1.0555108785629272,1.3910202980041504,8.395689964294434,0.187725231051445,2.0599756240844727,3.98453688621521,0.3287576138973236,-0.19450542330741882,-0.2782677114009857,1.0661088228225708
191,54069,54068,-0.06237083300948143,0.08075682073831558,1.0329838991165161,3.195530652999878,8.061039924621582,0.3647114336490631,2.059323787689209,3.9850194454193115,0.32841014862060547,-0.17701321840286255,-0.2144361436367035,1.0664604902267456
192,54079,54078,0.02554916962981224,-0.15814542770385742,1.0489623546600342,3.8616175651550293,7.331161975860596,0.23711498081684113,2.0611908435821533,3.9838907718658447,0.3269652724266052,-0.32503002882003784,-0.14117388427257538,1.0592042207717896
193,54089,54088,0.03159578889608383,-0.03643622621893883,1.006831407546997,4.706664085388184,6.597693920135498,0.6151090264320374,2.061760187149048,3.984926223754883,0.32661157846450806,-0.39118584990501404,-0.06398748606443405,1.0642831325531006
194,54099,54098,0.042013734579086304,-0.13693863153457642,0.9979498982429504,5.022514820098877,4.222761631011963,0.8480674028396606,2.0617451667785645,3.985178232192993,0.3262660503387451,-0.5047023892402649,0.06176433712244034,1.0807466506958008
195,54109,54108,-0.0010394849814474583,0.08380541205406189,0.980789303779602,5.102157115936279,2.586489200592041,1.2573658227920532,2.062168836593628,3.9843215942382812,0.3226149082183838,-0.4672529101371765,0.10175515711307526,1.0776584148406982
196,54119,54118,-0.014572986401617527,0.07288999110460281,0.9548869132995605,1.8669792413711548,0.6873985528945923,1.2520155906677246,2.0616202354431152,3.986877202987671,0.3221322000026703,-0.5271602869033813,-0.061786822974681854,1.0977798700332642
197,54129,54128,0.004102939739823341,0.08515867590904236,1.0284743309020996,-0.8876355290412903,0.5452081561088562,0.8901970386505127,2.0622849464416504,3.9868111610412598,0.3215978741645813,-0.4897499978542328,-0.01312874536961317,1.108574628829956
198,54139,54138,0.024974217638373375,0.027666032314300537,1.0432616472244263,-1.6481584310531616,0.8419159054756165,0.6792540550231934,2.063034772872925,3.9868268966674805,0.32066792249679565,-0.5287052989006042,-2.2825590349384584e-05,1.1242800951004028
199,54149,54148,-0.006602068897336721,0.05367952585220337,1.0505781173706055,-0.9041292667388916,2.674586534500122,0.4771079123020172,2.0644609928131104,3.986975908279419,0.32003241777420044,-0.5665914416313171,-0.0010211498010903597,1.1334224939346313
200,54159,54158,-0.005986142437905073,-0.018199751153588295,1.0036708116531372,0.19337712228298187,3.7860076427459717,0.44278794527053833,2.065000534057617,3.986868143081665,0.319520503282547,-0.5450650453567505,0.010115796700119972,1.1368625164031982
201,54169,54168,0.0036028132308274508,-0.053227972239255905,1.0296876430511475,1.9709265232086182,4.756795406341553,0.821500837802887,2.0649142265319824,3.9875669479370117,0.3190440237522125,-0.5553216934204102,0.03782597556710243,1.1419785022735596
202,54179,54178,0.020426630973815918,-0.05481358617544174,0.9878371953964233,4.181272506713867,3.208491563796997,0.8320589065551758,2.0658204555511475,3.987159490585327,0.31733930110931396,-0.6181638836860657,0.12623992562294006,1.1582856178283691
203,54189,54188,0.023562263697385788,-0.05658628046512604,1.0433720350265503,4.810542583465576,3.338191032409668,0.5044862627983093,2.0652012825012207,3.986788511276245,0.31686609983444214,-0.586529016494751,0.1687784045934677,1.1579078435897827
204,54199,54198,-0.030363505706191063,0.07376779615879059,0.945590615272522,3.9293274879455566,3.3036084175109863,0.21408642828464508,2.065427303314209,3.987279176712036,0.3163450360298157,-0.5879403948783875,0.17390082776546478,1.163018822669983
205,54209,54208,-0.02984202280640602,0.15987730026245117,0.984701931476593,1.5875682830810547,3.378052234649658,0.3623388409614563,2.067988395690918,3.9882442951202393,0.3171336352825165,-0.8331403732299805,0.1705307811498642,1.1588943004608154
206,54219,54218,0.01342630572617054,-0.04235435277223587,1.0522252321243286,-1.3244946002960205,1.8876330852508545,0.5372474193572998,2.06618332862854,3.987236499786377,0.3168065845966339,-0.7494103908538818,0.35952484607696533,1.1741899251937866
207,54229,54228,0.024770494550466537,-0.022110693156719208,1.0209378004074097,-2.6351161003112793,2.6747567653656006,0.797232985496521,2.066756248474121,3.986966848373413,0.31635525822639465,-0.7370533347129822,0.33287039399147034,1.179481029510498
208,54239,54238,-0.0326908677816391,0.018354175612330437,1.0863063335418701,-3.912040948867798,1.445554256439209,0.5766090750694275,2.066836357116699,3.9879581928253174,0.31465664505958557,-0.7166301012039185,0.20588809251785278,1.181368112564087
209,54249,54248,0.03135339543223381,-0.01916765421628952,0.9512739777565002,-5.620748519897461,1.8246129751205444,0.6550862789154053,2.0722360610961914,3.987525224685669,0.31392771005630493,-1.2372136116027832,0.13978606462478638,1.1646881103515625
210,54259,54258,0.028310975059866905,-0.01368231326341629,1.022603988647461,-3.404144525527954,0.3820892870426178,0.22034811973571777,2.072883367538452,3.9876253604888916,0.3136330842971802,-1.166367530822754,0.07979856431484222,1.1726127862930298
211,54269,54268,-0.03476935625076294,0.022225266322493553,1.0011225938796997,-2.7321438789367676,-2.7906670570373535,1.380759596824646,2.0730931758880615,3.9882500171661377,0.3132096529006958,-1.1358256340026855,0.03216605260968208,1.177573800086975
212,54279,54278,-0.04017132148146629,0.11670909076929092,1.0739538669586182,0.2122977077960968,-6.273082256317139,1.038716197013855,2.073469400405884,3.98826003074646,0.312362402677536,-1.0569642782211304,0.024707866832613945,1.1879969835281372
213,54289,54288,0.03009250946342945,-0.05501846596598625,1.1107558012008667,1.8872908353805542,-7.610070705413818,0.8586902022361755,2.0747058391571045,3.988546848297119,0.3118816614151001,-1.0165637731552124,0.03720556199550629,1.200421929359436
214,54299,54298,0.04778209701180458,-0.04538189619779587,1.002297282218933,4.307764053344727,-8.182088851928711,0.8685318231582642,2.0747907161712646,3.9883012771606445,0.311582088470459,-0.8603528141975403,0.08155091851949692,1.2223424911499023
215,54309,54308,-0.042432792484760284,-0.015499039553105831,0.9635756015777588,6.261127471923828,-7.613401412963867,1.463783860206604,2.0765089988708496,3.9892821311950684,0.311813086271286,-0.870042622089386,0.010763785801827908,1.215964674949646
216,54319,54318,0.004051567055284977,0.02685379981994629,1.0203572511672974,6.272309303283691,-6.765617847442627,1.689881682395935,2.0762946605682373,3.9887192249298096,0.3115696609020233,-0.8162363171577454,0.12737998366355896,1.2311025857925415
217,54329,54328,0.011870224960148335,-0.009426663629710674,1.0837417840957642,5.082981586456299,-7.087559223175049,2.0210182666778564,2.076329231262207,3.9874696731567383,0.31135040521621704,-0.6852487325668335,0.23790059983730316,1.241642713546753
218,54339,54338,-0.00043026686762459576,0.08631578087806702,1.1062853336334229,3.889028549194336,-5.806234836578369,2.315037727355957,2.0765435695648193,3.9872329235076904,0.311747670173645,-0.5451714992523193,0.3238697648048401,1.2670878171920776
219,54349,54348,-0.04083927720785141,0.023777548223733902,0.9595252871513367,1.0803183317184448,-3.825874090194702,2.3489229679107666,2.0758090019226074,3.9875926971435547,0.3117069602012634,-0.3805055618286133,0.3343053162097931,1.3056650161743164
220,54359,54358,0.01980537921190262,-0.008229765109717846,1.0166819095611572,-0.9418275952339172,-1.8113733530044556,2.574047565460205,2.0781209468841553,3.988342523574829,0.31159713864326477,-0.5089015364646912,0.26293182373046875,1.2926558256149292
221,54369,54368,0.034998778253793716,-0.16994790732860565,1.0465036630630493,-1.558830738067627,0.12653343379497528,2.728952407836914,2.0786144733428955,3.9885010719299316,0.3103821277618408,-0.45535826683044434,0.265639990568161,1.3188716173171997
222,54379,54378,-0.0190452691167593,0.009661371819674969,1.096407175064087,-1.7646985054016113,0.47499316930770874,2.575359344482422,2.0785436630249023,3.988656520843506,0.3103123605251312,-0.34481409192085266,0.24549289047718048,1.3495800495147705
223,54389,54388,0.009299175813794136,0.05807724595069885,0.9299161434173584,-1.7042807340621948,0.5383293628692627,2.9322900772094727,2.081395149230957,3.988831043243408,0.3101121783256531,-0.5710442662239075,0.22973139584064484,1.3670374155044556
224,54399,54398,0.024083295837044716,-0.003846626728773117,0.9806898236274719,-1.464529275894165,0.21767838299274445,2.7227962017059326,2.0821895599365234,3.9880857467651367,0.31025028228759766,-0.4774949252605438,0.2966407537460327,1.4028403759002686
225,54409,54408,0.0014616575790569186,0.013082127086818218,1.0668684244155884,-0.036481697112321854,-3.135777711868286,2.284940242767334,2.0826196670532227,3.987760543823242,0.3115205764770508,-0.43511274456977844,0.2820502817630768,1.4340081214904785
226,54419,54418,-0.023409511893987656,-0.015498364344239235,1.039914608001709,0.17159880697727203,-3.560643196105957,2.488710403442383,2.0831892490386963,3.9884676933288574,0.31156566739082336,-0.3640131652355194,0.20443066954612732,1.4540660381317139
227,54429,54428,0.019367609173059464,-0.010823873803019524,1.0532824993133545,0.36792001128196716,-4.837734699249268,2.0714218616485596,2.083341121673584,3.9884204864501953,0.31167513132095337,-0.28235775232315063,0.21858371794223785,1.481438159942627
228,54439,54438,0.004178951494395733,-0.03980252891778946,0.9742159247398376,-0.2228977084159851,-4.115825653076172,1.8273495435714722,2.0833983421325684,3.9881348609924316,0.30955639481544495,-0.261963814496994,0.22448354959487915,1.504089593887329
229,54449,54448,-0.011805318295955658,0.04382318630814552,1.0697118043899536,1.6759957075119019,-5.064688205718994,1.7930858135223389,2.084787130355835,3.988105535507202,0.30958497524261475,-0.24296323955059052,0.2415158748626709,1.5236170291900635
230,54459,54458,0.009899333119392395,-0.07306408137083054,0.9628607034683228,0.31906193494796753,-3.932107925415039,1.8374837636947632,2.087440013885498,3.9874343872070312,0.30952394008636475,-0.27272722125053406,0.2633618116378784,1.544289469718933
231,54469,54468,-0.0030602500773966312,-0.015489170327782631,1.0085501670837402,-0.720317006111145,-3.3550164699554443,1.5404119491577148,2.08808970451355,3.98748517036438,0.30961087346076965,-0.21556726098060608,0.2629444897174835,1.5546343326568604
232,54479,54478,0.026465123519301414,-0.0282761063426733,0.9885815978050232,-0.48861196637153625,-2.148472547531128,1.3304762840270996,2.088139057159424,3.987952709197998,0.30747348070144653,-0.026525400578975677,0.2539634108543396,1.5863126516342163
233,54489,54488,-0.01767819933593273,-0.0009489472140558064,1.0348800420761108,-1.0436233282089233,-1.8717066049575806,0.9314955472946167,2.089881658554077,3.9879040718078613,0.30730777978897095,-0.22083745896816254,0.24631771445274353,1.5775504112243652
234,54499,54498,-0.012360681779682636,0.08281033486127853,0.9665601253509521,-0.40634456276893616,-0.7842168211936951,0.8125420808792114,2.0889439582824707,3.9877209663391113,0.30739420652389526,-0.08506385236978531,0.23376451432704926,1.6048156023025513
235,54509,54508,-0.003630643477663398,-0.007767544128000736,0.9997110366821289,-1.0808998346328735,-0.06543214619159698,1.211403727531433,2.090425968170166,3.988565683364868,0.3036867082118988,-0.15245559811592102,0.22457052767276764,1.6082231998443604
236,54519,54518,0.02861117757856846,-0.017479009926319122,1.010148525238037,-0.42629268765449524,-0.8655985593795776,1.3923803567886353,2.0901689529418945,3.9886388778686523,0.3034469187259674,-0.05437113717198372,0.2166946530342102,1.6104806661605835
237,54529,54528,-0.02406984195113182,0.04357941821217537,0.9698449969291687,-2.165997266769409,-0.6318092942237854,1.3388373851776123,2.0933473110198975,3.9890201091766357,0.30300357937812805,-0.2568437457084656,0.2000240981578827,1.630557656288147
238,54539,54538,-0.013776233419775963,0.003964964300394058,0.9540186524391174,-0.9857678413391113,-0.19580422341823578,1.5974520444869995,2.0926268100738525,3.9887657165527344,0.3056471347808838,-0.04159822687506676,0.2625912129878998,1.657874345779419
239,54549,54548,-0.0006571413250640035,-0.14360670745372772,1.046612024307251,-0.9371634721755981,-2.161733388900757,1.6958613395690918,2.094536304473877,3.988060474395752,0.30544477701187134,-0.09779398143291473,0.23146477341651917,1.6569279432296753
240,54559,54558,0.024432925507426262,-0.07025270164012909,1.0119991302490234,-0.8176938891410828,-2.31527042388916,1.853928804397583,2.095224618911743,3.9886064529418945,0.3052847683429718,-0.05334402993321419,0.20241592824459076,1.683877944946289
241,54569,54568,0.020411962643265724,-0.16348090767860413,1.0504738092422485,-1.0900882482528687,-2.726975679397583,1.5467733144760132,2.097832441329956,3.987821340560913,0.3112446665763855,-0.14040721952915192,0.1835063099861145,1.6836479902267456
242,54579,54578,-0.012222778052091599,-0.029162591323256493,1.0745731592178345,-1.518851399421692,-1.1618865728378296,0.6917833685874939,2.0982911586761475,3.987128257751465,0.31160080432891846,0.027888255193829536,0.14973071217536926,1.702199101448059
243,54589,54588,-0.012057558633387089,-0.03609422966837883,1.0108871459960938,-1.5492422580718994,-0.4959830045700073,0.44767358899116516,2.1001877784729004,3.9876599311828613,0.3118089437484741,-0.09527943283319473,0.1358562707901001,1.7044017314910889
244,54599,54598,0.032755233347415924,-0.007659669034183025,1.0001071691513062,-2.577861785888672,-0.5984171628952026,0.6914712190628052,2.10067081451416,3.987736701965332,0.3122926950454712,0.021712690591812134,0.098586805164814,1.7135779857635498
245,54609,54608,-0.005649386905133724,-0.0236667450517416,0.9347050189971924,-1.3957821130752563,-1.2985013723373413,0.5967726707458496,2.1021475791931152,3.9878690242767334,0.3141374886035919,-0.019501572474837303,0.06957007199525833,1.7126784324645996
246,54619,54618,-0.005130496341735125,0.006933456752449274,1.0539454221725464,-1.74971604347229,-3.0145039558410645,0.49260178208351135,2.1018831729888916,3.9860754013061523,0.31474265456199646,0.10164327174425125,0.11674194782972336,1.7033504247665405
247,54629,54628,-0.001323107280768454,-0.11466359347105026,0.9588719010353088,-0.947999894618988,-2.7735934257507324,1.0886138677597046,2.102957010269165,3.9853994846343994,0.31522342562675476,0.16768093407154083,0.08569896966218948,1.6988469362258911
248,54639,54638,0.010360181331634521,-0.08681736886501312,0.9286391139030457,-0.30932825803756714,-0.9711848497390747,1.1088777780532837,2.1037540435791016,3.985170364379883,0.31679171323776245,0.06529522687196732,0.06630579382181168,1.7048009634017944
249,54649,54648,0.0009345021680928767,-0.03402572125196457,0.9649278521537781,-0.44089895486831665,0.615673303604126,1.0366005897521973,2.104192018508911,3.9851233959198,0.3173465430736542,0.1666141152381897,0.05576024577021599,1.7161165475845337
250,54659,54658,0.03657093644142151,-0.0977817252278328,1.0516666173934937,-1.0288625955581665,1.5458636283874512,0.9473538994789124,2.105156183242798,3.985870361328125,0.31777092814445496,0.16752496361732483,0.041295308619737625,1.7391489744186401
251,54669,54668,0.07559308409690857,-0.11533129215240479,0.9294625520706177,-1.7357094287872314,2.7984025478363037,0.39400503039360046,2.1066720485687256,3.9831740856170654,0.3184486925601959,0.07334738224744797,0.09524859488010406,1.7094330787658691
252,54679,54678,-0.0002506281598471105,0.004745550453662872,0.9157803058624268,-1.554253339767456,3.0783724784851074,0.11388979107141495,2.1075992584228516,3.9838197231292725,0.3189695179462433,0.11830355226993561,-0.010758944787085056,1.7192140817642212
253,54689,54688,0.03327836096286774,-0.007238332647830248,0.8572207689285278,-2.04819655418396,2.694960832595825,-0.17499184608459473,2.1085622310638428,3.9824795722961426,0.3192935883998871,-0.006881956942379475,0.038568299263715744,1.6987065076828003
254,54699,54698,0.023532168939709663,-0.013387585990130901,0.9913776516914368,-1.9036952257156372,1.519661545753479,0.11910384148359299,2.109835147857666,3.982480049133301,0.31950217485427856,-0.1154865100979805,0.0037544381339102983,1.6959625482559204
255,54709,54708,0.0484381765127182,-0.08072574436664581,0.9254212379455566,-1.981318712234497,0.8904649019241333,0.12058352679014206,2.1101162433624268,3.98213529586792,0.31815361976623535,-0.1252409815788269,-0.03602179139852524,1.6954883337020874
256,54719,54718,0.007329136598855257,-0.04267212748527527,0.9616206288337708,-0.9407050609588623,-2.246570348739624,0.16468842327594757,2.1107544898986816,3.9821810722351074,0.3182287812232971,-0.11252181231975555,-0.06763371080160141,1.6968780755996704
257,54729,54728,0.04681560769677162,-0.19411823153495789,0.9772270321846008,0.0527978390455246,-3.5220248699188232,-0.030798597261309624,2.1118359565734863,3.9813337326049805,0.3181518614292145,-0.19699642062187195,-0.005671401508152485,1.694126009941101
258,54739,54738,-0.01610466279089451,0.09110989421606064,0.9998292326927185,0.709152102470398,-2.1387569904327393,-0.3877328634262085,2.11193585395813,3.980579137802124,0.3174750506877899,-0.03519615903496742,0.06001650169491768,1.6929833889007568
259,54749,54748,0.0242671649903059,0.023709524422883987,0.9392985105514526,0.7431160807609558,-2.3760616779327393,-0.555652379989624,2.1131484508514404,3.9811277389526367,0.31742531061172485,0.01731179840862751,-0.017586108297109604,1.6912708282470703
260,54759,54758,-0.02476321905851364,0.039356779307127,1.0342026948928833,-0.8516511917114258,-1.561423897743225,-0.3866482079029083,2.112658739089966,3.9811058044433594,0.31737083196640015,0.13982464373111725,-0.02093297615647316,1.6874107122421265
261,54769,54768,-0.03593519330024719,-0.036884721368551254,0.9895230531692505,-2.587177276611328,0.27589768171310425,-0.5480471253395081,2.1144790649414062,3.981231689453125,0.3178005814552307,0.09199760854244232,-0.04613041877746582,1.6930567026138306
262,54779,54778,-0.004545735195279121,-0.05409924313426018,0.9997497797012329,-3.713567018508911,3.8856122493743896,-1.262673020362854,2.1159238815307617,3.98193359375,0.3176495134830475,0.027135901153087616,-0.09535739570856094,1.6912734508514404
263,54789,54788,0.017052404582500458,-0.03437209874391556,0.9802191853523254,-3.7832345962524414,4.85014009475708,-0.8545002937316895,2.115746021270752,3.9818952083587646,0.3176380693912506,0.06157567352056503,-0.15537633001804352,1.6795157194137573
264,54799,54798,0.0199547428637743,-0.10734286904335022,0.9709898233413696,-3.505342483520508,4.444140434265137,-0.9245181679725647,2.1174468994140625,3.98218035697937,0.31336209177970886,-0.07180358469486237,-0.2173212617635727,1.672145962715149
265,54809,54808,0.00989114586263895,-0.012232489883899689,1.0141487121582031,-0.5413655042648315,2.106626033782959,-1.4497389793395996,2.117774248123169,3.981539249420166,0.3130681812763214,-0.0349854975938797,-0.18185682594776154,1.6575520038604736
266,54819,54818,0.008804988116025925,-0.027342578396201134,0.9704845547676086,2.6905393600463867,-0.22628070414066315,-1.3825956583023071,2.1192502975463867,3.9814162254333496,0.3126247525215149,-0.12034029513597488,-0.17760223150253296,1.6458393335342407
267,54829,54828,0.002946986351162195,-0.008575077168643475,0.9948644042015076,2.03364896774292,-0.09052655845880508,-0.776309072971344,2.120032548904419,3.9816665649414062,0.3122769296169281,-0.1012214943766594,-0.1515078842639923,1.638740062713623
268,54839,54838,0.013345989398658276,-0.001811533235013485,1.0089423656463623,3.8776485919952393,-2.1839101314544678,-0.9965152740478516,2.1206932067871094,3.981436252593994,0.3129863440990448,-0.062045253813266754,-0.10479424148797989,1.6281764507293701
269,54849,54848,-0.02466808445751667,-0.023224182426929474,1.025760293006897,2.1955273151397705,-1.7754236459732056,-0.8064233064651489,2.122238874435425,3.981196880340576,0.31261247396469116,-0.09046322852373123,-0.06682320684194565,1.6180140972137451
270,54859,54858,0.04765956103801727,-0.04325352981686592,0.9567733407020569,0.9895471930503845,-0.7255072593688965,-0.9327965974807739,2.1220805644989014,3.9798378944396973,0.3123266100883484,-0.037599723786115646,-0.040648024529218674,1.585945725440979
271,54869,54868,-0.02146938629448414,0.026266885921359062,1.07354736328125,-0.5325576663017273,0.25791478157043457,-0.8599578142166138,2.1227240562438965,3.978785514831543,0.3143969774246216,-0.0015117268776521087,-0.035191718488931656,1.5602020025253296
272,54879,54878,0.007577138487249613,-0.03135009855031967,1.1194486618041992,-1.805113673210144,0.351693719625473,-0.6773492693901062,2.1229286193847656,3.9796409606933594,0.31428784132003784,0.08884299546480179,-0.13464927673339844,1.5450401306152344
273,54889,54888,0.009007232263684273,-0.0654650554060936,1.0151046514511108,-2.246833562850952,2.3862111568450928,-0.655244767665863,2.1254422664642334,3.979368209838867,0.31411683559417725,-0.05476333945989609,-0.1678328961133957,1.551940679550171
274,54899,54898,0.008049096912145615,-0.008892516605556011,1.027440071105957,-2.326833724975586,4.389434814453125,-0.763884961605072,2.126840114593506,3.979022264480591,0.31510424613952637,-0.0660925805568695,-0.12658825516700745,1.5434372425079346
275,54909,54908,0.030218617990612984,-0.11019811034202576,0.964294970035553,-1.081971526145935,4.914179801940918,-0.5058221220970154,2.1269054412841797,3.978193521499634,0.3152514398097992,-0.04025503620505333,-0.16191156208515167,1.5172734260559082
276,54919,54918,0.04989301413297653,-0.08879055082798004,1.0541530847549438,1.5489476919174194,2.5015854835510254,-0.4017283618450165,2.126864433288574,3.977088212966919,0.31545329093933105,-0.03590463846921921,-0.17521318793296814,1.4913638830184937
277,54929,54928,-0.019519677385687828,-0.022420207038521767,1.0345449447631836,2.953134059906006,0.36466512084007263,-0.3371901214122772,2.128293037414551,3.976505994796753,0.3155006766319275,-0.13522768020629883,-0.1515580713748932,1.4793503284454346
278,54939,54938,0.03280603140592575,-0.044861115515232086,0.9674099683761597,4.05571174621582,-0.9625060558319092,-0.33201706409454346,2.1301538944244385,3.974738121032715,0.31436315178871155,-0.27032747864723206,-0.09858318418264389,1.457698941230774
279,54949,54948,0.003452170640230179,0.07970938086509705,0.9912693500518799,2.0432965755462646,-1.656996488571167,-0.6677689552307129,2.1307497024536133,3.975097894668579,0.3146246373653412,-0.1450982540845871,-0.04927923157811165,1.4507722854614258
280,54959,54958,-0.01788840815424919,-0.026214223355054855,1.059449315071106,0.7670777440071106,-4.387757778167725,-0.7466521263122559,2.132718801498413,3.9742448329925537,0.3145565986633301,-0.3226763606071472,-0.024678222835063934,1.4353777170181274
281,54969,54968,0.014128453098237514,-0.058351434767246246,0.9677456617355347,-0.421420156955719,-4.480279922485352,-0.7410213351249695,2.1331980228424072,3.9748170375823975,0.31632304191589355,-0.1382698118686676,-0.09887850284576416,1.410987377166748
282,54979,54978,-0.007388802710920572,0.0011594556272029877,1.014313817024231,-1.7569745779037476,-5.039629936218262,-0.6319280862808228,2.1324679851531982,3.9746315479278564,0.3166391849517822,0.03774018585681915,-0.1811593621969223,1.4031301736831665
283,54989,54988,0.05274919420480728,-0.08234354108572006,1.002858281135559,-1.7514070272445679,-3.7547905445098877,-0.42701593041419983,2.134094476699829,3.9746620655059814,0.31684350967407227,0.045106951147317886,-0.19485127925872803,1.4098515510559082
284,54999,54998,0.04303506389260292,-0.12267470359802246,0.9648714065551758,-0.574337363243103,-1.5998468399047852,-0.8979595303535461,2.1352314949035645,3.9752349853515625,0.3180254101753235,0.0365329273045063,-0.20878303050994873,1.4081964492797852
285,55009,55008,0.0005741873756051064,-0.06795230507850647,0.9537376165390015,1.4857910871505737,1.3212238550186157,-1.0690865516662598,2.1365201473236084,3.9740798473358154,0.31825530529022217,-0.0119911665096879,-0.12346579134464264,1.3901063203811646
286,55019,55018,0.01952199637889862,-0.04096231982111931,0.9194614887237549,3.1460769176483154,2.724435329437256,-1.0304040908813477,2.136784315109253,3.9738831520080566,0.318554162979126,0.0624946728348732,-0.08970166742801666,1.3638135194778442
287,55029,55028,0.01701030321419239,0.03849927335977554,1.0110111236572266,4.3957366943359375,3.1132867336273193,-0.4763801395893097,2.1380527019500732,3.974383592605591,0.3152065873146057,-0.034744396805763245,-0.030285824090242386,1.3779582977294922
288,55039,55038,0.02500726468861103,-0.011031266301870346,0.9602912664413452,3.643676996231079,1.9303792715072632,-0.7126061916351318,2.1394033432006836,3.9740684032440186,0.3151303827762604,-0.057964030653238297,0.03445550799369812,1.3703532218933105
289,55049,55048,0.055631063878536224,-0.15837423503398895,0.9805585145950317,1.951582431793213,0.5923837423324585,-0.3744029998779297,2.1408164501190186,3.9726006984710693,0.31497251987457275,-0.14255666732788086,0.08081584423780441,1.337045669555664
290,55059,55058,0.05438060685992241,-0.1656673699617386,1.0372947454452515,-0.9215883612632751,-2.4694859981536865,-0.0436403863132,2.141312599182129,3.9744813442230225,0.314931720495224,-0.11180374026298523,-0.065318763256073,1.3472124338150024
291,55069,55068,0.03397490456700325,-0.08538922667503357,1.0381054878234863,-2.5372743606567383,-3.637610673904419,-0.575724184513092,2.1423192024230957,3.9738621711730957,0.3127768039703369,-0.1203199103474617,0.002623907756060362,1.3304725885391235
292,55079,55078,0.025829046964645386,0.0004419722536113113,0.9165261387825012,-2.5946760177612305,-1.911555528640747,-1.1917988061904907,2.1423113346099854,3.9743826389312744,0.3126137852668762,-0.04161728918552399,-0.03183829039335251,1.3509838581085205
293,55089,55088,-0.015511720441281796,0.10298707336187363,1.0205256938934326,-2.5042641162872314,-5.399559020996094,-0.9281765818595886,2.143139600753784,3.9733521938323975,0.31245553493499756,0.054887961596250534,-0.07395268976688385,1.312366008758545
294,55099,55098,0.04591694474220276,-0.007038401439785957,0.8395175933837891,-1.3739608526229858,-4.22588586807251,-1.1237577199935913,2.1454384326934814,3.9737658500671387,0.31039488315582275,-0.004674602299928665,-0.10743790864944458,1.3134428262710571
295,55109,55108,-0.005406076554208994,0.04272179305553436,1.0070263147354126,-0.23031234741210938,-2.945763111114502,-1.62899649143219,2.1450796127319336,3.973271608352661,0.3100787103176117,0.1526697278022766,-0.11308764666318893,1.2886229753494263
296,55119,55118,0.04763829708099365,-0.021807288751006126,0.9294343590736389,3.0307326316833496,-1.5184321403503418,-1.073239803314209,2.147421360015869,3.9731943607330322,0.3095199167728424,0.05418111011385918,-0.08775906264781952,1.2760820388793945
297,55129,55128,-0.011499530635774136,-0.006419785786420107,1.037494421005249,4.275334358215332,-0.4303796589374542,-0.6094920635223389,2.1470887660980225,3.9728610515594482,0.3074500858783722,0.17899879813194275,-0.031218724325299263,1.260914921760559
298,55139,55138,0.012525378726422787,0.007035778369754553,1.0155909061431885,3.1987271308898926,1.758860468864441,-0.09063555300235748,2.149034261703491,3.9725892543792725,0.3067685663700104,0.12867388129234314,0.03766312450170517,1.2528263330459595
299,55149,55148,-0.01385647151619196,-0.004580968990921974,1.0442997217178345,0.7307434678077698,3.713736057281494,-0.27250975370407104,2.1495461463928223,3.9724321365356445,0.30622434616088867,0.19218458235263824,0.07434262335300446,1.2495311498641968
300,55159,55158,0.017069801688194275,-0.04122404754161835,0.9820963144302368,-0.47661247849464417,3.9323980808258057,-0.41934069991111755,2.1514201164245605,3.9722750186920166,0.3056069016456604,0.06990549713373184,0.08012521266937256,1.2502325773239136
301,55169,55168,0.010285441763699055,-0.0048150657676160336,1.0351687669754028,-1.274271011352539,2.645055055618286,-0.4168095886707306,2.1520230770111084,3.9725236892700195,0.30523625016212463,0.11635459959506989,0.06738608330488205,1.246464490890503
302,55179,55178,-0.020357182249426842,-0.058983150869607925,1.0688138008117676,-2.2643003463745117,0.8048430681228638,-0.514747679233551,2.153346538543701,3.9727561473846436,0.30462542176246643,0.021212836727499962,0.03775980696082115,1.2452211380004883
303,55189,55188,-0.010176051408052444,-0.05603303760290146,1.0249273777008057,-2.437201738357544,-0.45283129811286926,-0.3597930371761322,2.154107093811035,3.9722237586975098,0.30412736535072327,0.04420090466737747,0.07258912175893784,1.2394466400146484
304,55199,55198,0.06392276287078857,-0.11764933168888092,1.0234489440917969,-2.050020456314087,-0.5770021677017212,-0.6678189039230347,2.1547999382019043,3.972957134246826,0.3044818937778473,0.07021240144968033,0.024636831134557724,1.2535381317138672
305,55209,55208,0.0703742504119873,-0.10040263086557388,1.0115306377410889,-2.1072211265563965,-2.746192455291748,-0.31703078746795654,2.155221939086914,3.9734270572662354,0.30412471294403076,0.10786066204309464,-0.019565468654036522,1.2585511207580566
306,55219,55218,-0.026729749515652657,0.05853886157274246,1.0050305128097534,-1.385981559753418,-3.1057815551757812,-0.43237927556037903,2.1568763256073,3.9734222888946533,0.30374419689178467,0.08711691945791245,-0.049871694296598434,1.2537459135055542
307,55229,55228,-0.035777296870946884,0.08111587911844254,1.0305904150009155,-1.1395676136016846,-2.1289687156677246,0.03944981470704079,2.15663743019104,3.9743142127990723,0.30465301871299744,0.21742253005504608,-0.06832649558782578,1.2720022201538086
308,55239,55238,0.038340914994478226,-0.02485894225537777,1.003807783126831,-0.44532084465026855,-1.042018175125122,0.08256680518388748,2.157978057861328,3.974395751953125,0.3043389916419983,0.18109042942523956,-0.08518422394990921,1.272281289100647
309,55249,55248,-0.008075779303908348,-0.07758235186338425,0.933445394039154,1.072925090789795,1.5917974710464478,0.15736161172389984,2.1578781604766846,3.9747509956359863,0.30413058400154114,0.18801577389240265,-0.08736465126276016,1.285719871520996
310,55259,55258,-0.005917479284107685,0.019456014037132263,1.0650218725204468,2.827623128890991,3.682025671005249,0.28717049956321716,2.160019636154175,3.974644899368286,0.30371132493019104,-0.0004483753873500973,-0.0627683773636818,1.2854042053222656
311,55269,55268,-0.0038991360925137997,-0.037977758795022964,1.0150785446166992,3.8182058334350586,5.353127479553223,0.6158178448677063,2.160505771636963,3.9746575355529785,0.3049487769603729,0.03397182747721672,-0.012270831502974033,1.293385624885559
312,55279,55278,0.013613682240247726,0.016881007701158524,1.0543705224990845,3.5785393714904785,5.062207221984863,0.8370938301086426,2.1604065895080566,3.9735090732574463,0.30484530329704285,0.04252238944172859,0.04804481938481331,1.2741836309432983
313,55289,55288,-0.011784857138991356,-0.04143425449728966,1.0155287981033325,3.29534649848938,3.8160555362701416,0.6767084002494812,2.161766529083252,3.9732553958892822,0.30471935868263245,-0.02351345308125019,0.10222528129816055,1.2812436819076538
314,55299,55298,0.00947427935898304,0.018730096518993378,1.0311733484268188,-0.5051083564758301,1.2943246364593506,1.107046365737915,2.162940740585327,3.9727485179901123,0.3040851652622223,-0.0633445531129837,0.12494175881147385,1.2718561887741089
315,55309,55308,0.0057656411081552505,-0.03670482337474823,1.0649564266204834,-2.1319525241851807,0.607388973236084,0.44195812940597534,2.1644089221954346,3.9729080200195312,0.30392688512802124,-0.15040138363838196,0.10610897839069366,1.2824227809906006
316,55319,55318,0.01459043100476265,-0.031527042388916016,0.8654673099517822,-4.148556232452393,-1.803788185119629,0.5775431394577026,2.1647448539733887,3.973283529281616,0.3040083348751068,-0.04966496303677559,0.05970191955566406,1.3202791213989258
317,55329,55328,0.007717981934547424,0.027849121019244194,0.9138351082801819,-5.018133163452148,-3.152776002883911,0.4907621145248413,2.166309118270874,3.9745113849639893,0.3059208393096924,-0.08343874663114548,-0.007875146344304085,1.3239009380340576
318,55339,55338,-0.010432559996843338,-0.02880845218896866,0.9603673815727234,-5.307994842529297,-2.90851092338562,0.2980228364467621,2.166367530822754,3.9741313457489014,0.30595895648002625,0.047718293964862823,-0.01632365770637989,1.3289599418640137
319,55349,55348,0.03796638920903206,-0.09864858537912369,1.0235400199890137,-4.209781646728516,-2.7746083736419678,0.5363467335700989,2.1689624786376953,3.9744582176208496,0.3057008683681488,-0.1406165212392807,-0.10469705611467361,1.3307212591171265
320,55359,55358,-0.022052839398384094,0.06130479276180267,1.0206670761108398,-0.8191531300544739,-0.8075316548347473,0.4416497051715851,2.167959451675415,3.9741122722625732,0.30672913789749146,-0.010048388503491879,-0.15922780334949493,1.3280826807022095
321,55369,55368,0.02045731619000435,0.01036763284355402,1.0003814697265625,2.398982524871826,0.9249985218048096,0.34466779232025146,2.169513463973999,3.973668336868286,0.3066157400608063,-0.060567084699869156,-0.1603059321641922,1.3237085342407227
322,55379,55378,0.01317528635263443,0.009143268689513206,0.9881646037101746,4.397787094116211,2.82462215423584,0.1887282133102417,2.1687533855438232,3.972435712814331,0.30667614936828613,0.008295263163745403,-0.1192489042878151,1.3030606508255005
323,55389,55388,-0.014976129867136478,0.01795039512217045,1.05364191532135,5.4994893074035645,3.2908260822296143,0.12624560296535492,2.1689043045043945,3.972116231918335,0.30669212341308594,0.0479961559176445,-0.044037915766239166,1.3041962385177612
324,55399,55398,0.001995677128434181,-0.01956920325756073,1.0094760656356812,5.32391881942749,3.172041654586792,0.14247643947601318,2.16969895362854,3.971538782119751,0.30915725231170654,-0.0683964267373085,0.04174911230802536,1.3017913103103638
325,55409,55408,0.03633474186062813,-0.03781475871801376,0.9856247901916504,3.5134871006011963,2.3341081142425537,0.08737155795097351,2.171252489089966,3.9712722301483154,0.3092876374721527,-0.1786702275276184,0.03744826465845108,1.2904809713363647
326,55419,55418,0.0333758182823658,-0.046739306300878525,0.9681065678596497,0.6082823872566223,1.3526911735534668,-0.06460604071617126,2.1721081733703613,3.9709715843200684,0.3094481825828552,-0.1969507932662964,0.07459014654159546,1.284563660621643
327,55429,55428,-0.0402926541864872,0.007407580967992544,0.9589215517044067,-1.6565334796905518,-0.5650671124458313,-0.14337244629859924,2.1727542877197266,3.9702839851379395,0.31218254566192627,-0.1989375501871109,0.07351770997047424,1.2659847736358643
328,55439,55438,0.007260281126946211,-0.015088148415088654,0.9932180643081665,-2.28745436668396,-3.6417651176452637,-0.09033951908349991,2.1732401847839355,3.9704322814941406,0.31247299909591675,-0.1535499542951584,0.0451955683529377,1.2627925872802734
329,55449,55448,0.019352203235030174,-0.030699212104082108,0.9674867987632751,-3.0811681747436523,-4.995234966278076,-0.6592246890068054,2.173985004425049,3.9705872535705566,0.3126896023750305,-0.1420319676399231,0.0011527258902788162,1.2605763673782349
330,55459,55458,0.003604798810556531,-0.018867608159780502,1.003151774406433,-3.622314453125,-4.933528423309326,-0.6097303032875061,2.1738831996917725,3.970733165740967,0.31136399507522583,0.03832590579986572,-0.049121059477329254,1.2538611888885498
331,55469,55468,0.011905177496373653,-0.024662360548973083,0.9935634732246399,-0.05070372670888901,-5.923533916473389,-0.21217431128025055,2.175772190093994,3.9702627658843994,0.31142470240592957,-0.013297121971845627,-0.07937505096197128,1.2320095300674438
332,55479,55478,-0.01891268789768219,0.0021446950268000364,0.9497601985931396,0.4739415943622589,-3.138784170150757,-0.2262151837348938,2.1752920150756836,3.9690332412719727,0.31157442927360535,0.07481438666582108,-0.08093669265508652,1.1968233585357666
333,55489,55488,0.007531521376222372,-0.0060738022439181805,1.0024651288986206,1.9641348123550415,-1.4589121341705322,-0.5987257957458496,2.1768805980682373,3.9689297676086426,0.311626672744751,0.059755608439445496,-0.06330794095993042,1.1801179647445679
334,55499,55498,0.0015893798554316163,-0.07048805058002472,1.0132761001586914,1.5298527479171753,-3.4881858825683594,0.14241532981395721,2.1769559383392334,3.968756914138794,0.31634092330932617,0.09467950463294983,-0.028904082253575325,1.190549612045288
335,55509,55508,-0.027058767154812813,-0.08658380061388016,1.064589023590088,2.878469944000244,3.2460556030273438,-1.0274269580841064,2.17755126953125,3.9669737815856934,0.31669631600379944,0.11662080138921738,0.0124167799949646,1.141581654548645
336,55519,55518,0.02643410675227642,-0.04492155835032463,0.8827536106109619,1.4815773963928223,5.946702003479004,-0.9941273331642151,2.178922653198242,3.9678916931152344,0.31705620884895325,0.05122167244553566,-0.019791074097156525,1.1393638849258423
337,55529,55528,0.041713397949934006,-0.07694744318723679,0.8857542276382446,0.895346999168396,5.722002983093262,-1.5477434396743774,2.1795003414154053,3.967153549194336,0.31548434495925903,-0.058752670884132385,0.004460578318685293,1.1257283687591553
338,55539,55538,-0.009446040727198124,-0.03445276990532875,0.9892684817314148,0.2524610757827759,4.513269901275635,-1.3201216459274292,2.1797847747802734,3.9678800106048584,0.3156653940677643,-0.06311849504709244,-0.05835629254579544,1.093471884727478
339,55549,55548,0.02101510390639305,-0.008208575658500195,0.9897167682647705,0.7563521265983582,2.511354684829712,-1.46133553981781,2.1805310249328613,3.967974901199341,0.31570884585380554,-0.1833125501871109,-0.03812864050269127,1.0898104906082153
340,55559,55558,-0.0041763512417674065,0.10192807018756866,0.9501567482948303,1.3147873878479004,0.056588783860206604,-1.783434271812439,2.1809475421905518,3.967833995819092,0.3172607123851776,-0.11424490064382553,-0.007726504933089018,1.0743099451065063
341,55569,55568,-0.01618734747171402,0.009167849086225033,0.9850892424583435,2.2411537170410156,-2.545741081237793,-1.9838976860046387,2.182110071182251,3.9663100242614746,0.31734004616737366,-0.16102614998817444,0.10457921773195267,1.0395429134368896
342,55579,55578,0.008783676661550999,-0.009793118573725224,0.9840002655982971,4.032889366149902,-3.789334535598755,-1.4489948749542236,2.182615280151367,3.9667398929595947,0.31746652722358704,-0.09086963534355164,0.07935524731874466,1.0199743509292603
343,55589,55588,0.008041792549192905,-0.020300885662436485,0.9842204451560974,3.957775592803955,-3.761678457260132,-1.623781442642212,2.1828224658966064,3.9664218425750732,0.31756752729415894,-0.008904857560992241,0.150723397731781,1.0035401582717896
344,55599,55598,0.01602724753320217,-0.03203975781798363,0.9594439268112183,2.3749399185180664,-3.4207379817962646,-1.4695663452148438,2.1820225715637207,3.9645535945892334,0.32025572657585144,0.13834410905838013,0.2059776782989502,0.9387824535369873
345,55609,55608,-0.03285357356071472,0.005268651992082596,1.004690408706665,1.7499619722366333,-2.1732194423675537,-1.5885250568389893,2.183445453643799,3.9644417762756348,0.3204008638858795,0.11731512099504471,0.23819802701473236,0.9229242205619812
346,55619,55618,0.036475878208875656,-0.13110966980457306,1.0188989639282227,-0.3301495909690857,0.7420456409454346,-1.5000050067901611,2.18383526802063,3.965069532394409,0.3206177353858948,0.08270996063947678,0.17084838449954987,0.913792073726654
347,55629,55628,0.006966393440961838,-0.10283151268959045,1.0386300086975098,-2.0709667205810547,4.069464206695557,-2.1892402172088623,2.1840498447418213,3.9655847549438477,0.3209695518016815,0.15177910029888153,0.15544773638248444,0.9165835976600647
348,55639,55638,0.020594397559762,-0.11500441282987595,0.9269713163375854,-2.349531412124634,7.062624931335449,-1.9457411766052246,2.186798095703125,3.9654555320739746,0.32105422019958496,-0.0809204950928688,0.12230222672224045,0.8844527006149292
349,55649,55648,0.005972691345959902,-0.011702113784849644,0.9882261753082275,-1.357703447341919,6.992998123168945,-2.284942150115967,2.1870365142822266,3.9647011756896973,0.32128581404685974,-0.10611950606107712,0.09557922929525375,0.8395368456840515
350,55659,55658,0.04627911001443863,-0.06385591626167297,0.9275057911872864,0.606499969959259,5.069991111755371,-1.562459111213684,2.188317060470581,3.9646639823913574,0.3170679807662964,-0.2169867902994156,0.08727853000164032,0.792019248008728
351,55669,55668,0.05257421359419823,-0.12274330109357834,0.9856268763542175,1.7776726484298706,1.441794753074646,-1.2104750871658325,2.1877589225769043,3.963195562362671,0.3169879913330078,-0.1926681101322174,0.10081033408641815,0.7658669948577881
352,55679,55678,-0.016475480049848557,0.08497262001037598,0.9508379697799683,3.114400863647461,-2.1280856132507324,-1.094380497932434,2.1870598793029785,3.962108612060547,0.3169024884700775,-0.09591980278491974,0.14682218432426453,0.7310060262680054
353,55689,55688,-0.04816073924303055,0.20002827048301697,0.980413556098938,4.581383228302002,-3.376096248626709,-0.8997854590415955,2.1884031295776367,3.961958646774292,0.3166338801383972,-0.12244337052106857,0.211924746632576,0.7191093564033508
354,55699,55698,0.019435517489910126,0.06245250627398491,0.9122476577758789,3.837125539779663,-4.274382591247559,-0.20385053753852844,2.1881062984466553,3.9611566066741943,0.3161951005458832,-0.04889310523867607,0.28094205260276794,0.7008544206619263
355,55709,55708,-0.021615004166960716,-0.015127766877412796,1.0124192237854004,2.4525678157806396,-2.6839375495910645,-0.39762693643569946,2.1887176036834717,3.961008310317993,0.3158833086490631,0.01127178966999054,0.32802698016166687,0.6746982932090759
356,55719,55718,0.012426340021193027,0.027430016547441483,1.003572940826416,-0.7066612839698792,-0.1398574560880661,-1.0525104999542236,2.1899473667144775,3.960322618484497,0.315524697303772,-0.041855812072753906,0.33816197514533997,0.6690096855163574
357,55729,55728,-0.00833769142627716,0.008474461734294891,1.019248127937317,-4.153832912445068,3.0076074600219727,-1.1296461820602417,2.19096302986145,3.96034574508667,0.31674468517303467,-0.12760029733181,0.2956884205341339,0.6544199585914612
358,55739,55738,0.0461578294634819,-0.08614812791347504,0.974987268447876,-6.296360015869141,4.473121643066406,-1.277198314666748,2.191361665725708,3.9606375694274902,0.31659752130508423,-0.08823975920677185,0.20502696931362152,0.6424265503883362
359,55749,55748,-0.01883373223245144,0.011378633789718151,0.9787905216217041,-6.0609450340271,5.637086868286133,-2.1191084384918213,2.1924266815185547,3.9610610008239746,0.3163204789161682,-0.16289743781089783,0.10043457895517349,0.6275355815887451
360,55759,55758,0.028347820043563843,-0.033294204622507095,0.9467382431030273,-5.410987377166748,2.8485114574432373,-1.5914692878723145,2.193591356277466,3.9603426456451416,0.3167459964752197,-0.21640217304229736,0.07720638811588287,0.5665048956871033
361,55769,55768,-0.0031118830665946007,-0.07493877410888672,1.0124192237854004,-3.2342231273651123,0.9740290641784668,-1.045452356338501,2.1931285858154297,3.9588818550109863,0.31658607721328735,-0.14326803386211395,0.07496510446071625,0.5572478175163269
362,55779,55778,0.011836381629109383,-0.030867813155055046,1.0157610177993774,0.0982661023736,-0.7841724157333374,-1.1273717880249023,2.1943089962005615,3.957028388977051,0.31629347801208496,-0.21496543288230896,0.19027398526668549,0.5343582034111023
363,55789,55788,0.007620429154485464,-0.03868570551276207,0.8985015153884888,2.576446294784546,-1.4585529565811157,-1.274344563484192,2.1938421726226807,3.9568135738372803,0.3157666027545929,-0.12910300493240356,0.18753841519355774,0.523699164390564
364,55799,55798,0.016016388311982155,-0.033236682415008545,0.9631896615028381,4.1317644119262695,-2.130420446395874,-0.8878365159034729,2.1940975189208984,3.9561328887939453,0.3154895305633545,-0.12032316625118256,0.2200041562318802,0.4986950159072876
365,55809,55808,0.023143533617258072,-0.01944771409034729,1.0816782712936401,1.7564992904663086,-1.663533091545105,-0.8964084982872009,2.1944165229797363,3.9558703899383545,0.31516575813293457,-0.08679234981536865,0.2502719759941101,0.4897559583187103
366,55819,55818,-0.007120310328900814,-0.0471472442150116,1.0029230117797852,-2.159808397293091,1.119870901107788,-0.5898515582084656,2.196406126022339,3.956960439682007,0.31478381156921387,-0.22154559195041656,0.15486961603164673,0.48424577713012695
367,55829,55828,-0.009314761497080326,0.1256118267774582,0.9498364925384521,-5.847664833068848,3.6930134296417236,-1.2043328285217285,2.197087526321411,3.957207441329956,0.31916627287864685,-0.15922288596630096,0.09229540824890137,0.47789466381073
368,55839,55838,-0.0420595221221447,0.15805071592330933,0.983689546585083,-6.545624256134033,4.0768585205078125,-1.0721008777618408,2.1975302696228027,3.95735764503479,0.3190964162349701,-0.28753119707107544,-0.005925548728555441,0.4613441526889801
369,55849,55848,0.024857565760612488,-0.031107580289244652,0.9675229787826538,-5.65299129486084,3.657031774520874,-1.19545316696167,2.197340488433838,3.956998109817505,0.3191172182559967,-0.2585408687591553,-0.03703291714191437,0.45237985253334045
370,55859,55858,0.0008006863063201308,-0.17243005335330963,1.0428376197814941,-3.3441061973571777,0.8427475690841675,-1.5379770994186401,2.1989550590515137,3.9560141563415527,0.3210912048816681,-0.35128554701805115,0.020664598792791367,0.44221627712249756
371,55869,55868,0.021791325882077217,0.04689771682024002,0.985065758228302,-0.5286087989807129,-0.5374745726585388,-1.655441403388977,2.1987366676330566,3.9568657875061035,0.3212379515171051,-0.2675766050815582,-0.10831357538700104,0.43394678831100464
372,55879,55878,0.014494211412966251,0.02244682051241398,0.9743459224700928,0.4813459813594818,-3.8323776721954346,-1.8786603212356567,2.200268507003784,3.956099033355713,0.3212754428386688,-0.30782550573349,-0.04160786792635918,0.41895949840545654
373,55889,55888,0.005485035013407469,0.005370004568248987,1.0055663585662842,0.2665098309516907,-3.6168768405914307,-1.8988274335861206,2.1992242336273193,3.9558610916137695,0.3186302185058594,-0.1552107185125351,-0.04636189714074135,0.4011569321155548
374,55899,55898,0.01895703375339508,0.00475376658141613,0.9804490804672241,0.4373578429222107,-3.698338747024536,-1.7620455026626587,2.199866771697998,3.9562830924987793,0.3185211718082428,-0.17192567884922028,-0.05041095241904259,0.40196216106414795
375,55909,55908,-0.020751647651195526,0.03360115364193916,1.0221147537231445,-0.5623186826705933,-2.6696090698242188,-1.9326503276824951,2.1997601985931396,3.956294536590576,0.3184601664543152,-0.03199711814522743,-0.05808819457888603,0.3831774890422821
376,55919,55918,-0.0016551063163205981,0.04876149445772171,0.9280645251274109,-1.4571481943130493,-0.3977779746055603,-2.9961540699005127,2.2001402378082275,3.954885244369507,0.31831374764442444,-0.08045432716608047,-0.08064275979995728,0.3154570460319519
377,55929,55928,-0.01711077056825161,-0.044643428176641464,1.0327142477035522,-4.305289268493652,-0.04771694540977478,-2.464489459991455,2.201805353164673,3.9535410404205322,0.3211968243122101,-0.12896864116191864,-0.06305117905139923,0.24386847019195557
378,55939,55938,0.0455208495259285,-0.07360651344060898,0.9563814401626587,-5.931596279144287,2.348247528076172,-2.7531299591064453,2.202302932739258,3.953396797180176,0.3212089538574219,-0.12291835993528366,-0.15948200225830078,0.21567414700984955
379,55949,55948,-0.020283028483390808,-0.0802265927195549,1.045899510383606,-6.3090033531188965,1.51853346824646,-3.193446397781372,2.202366828918457,3.9524877071380615,0.3212546110153198,-0.10825814306735992,-0.19344592094421387,0.1740553081035614
380,55959,55958,0.01718248799443245,-0.043395694345235825,0.9733022451400757,-4.455531597137451,0.13065825402736664,-2.8548879623413086,2.2040693759918213,3.951856851577759,0.32078754901885986,-0.18584583699703217,-0.2187710553407669,0.14389024674892426
381,55969,55968,-0.006287757772952318,-0.004514376167207956,0.9936054348945618,-2.4533321857452393,-2.247218608856201,-2.8163583278656006,2.203685998916626,3.951821804046631,0.32087209820747375,-0.08017927408218384,-0.21390169858932495,0.13372598588466644
382,55979,55978,-0.006229090504348278,-0.04951786994934082,0.9291922450065613,0.06894651800394058,-0.974047064781189,-2.5722672939300537,2.204989194869995,3.9511094093322754,0.32080018520355225,-0.13421759009361267,-0.24389374256134033,0.0830710232257843
383,55989,55988,-0.00312144891358912,-0.003986867610365152,0.9924928545951843,0.4580383598804474,0.11471681296825409,-2.358532428741455,2.2057907581329346,3.9510011672973633,0.32082000374794006,-0.1161162406206131,-0.25595441460609436,0.05613163858652115
384,55999,55998,0.016196584329009056,-0.011402526870369911,0.9809787273406982,2.8201828002929688,-0.7789111733436584,-1.9342163801193237,2.206031084060669,3.948979139328003,0.3207404315471649,-0.09705493599176407,-0.16660238802433014,-0.0030104592442512512
385,56009,56008,-0.01514745969325304,-0.029696041718125343,0.9646759033203125,4.166996955871582,-2.5681347846984863,-1.3217594623565674,2.2058913707733154,3.9486725330352783,0.32069143652915955,0.029760492965579033,-0.12519361078739166,-0.02404196187853813
386,56019,56018,0.00962589867413044,-0.0058995625004172325,0.9917035102844238,1.8605047464370728,-1.5763853788375854,-0.8397813439369202,2.2062394618988037,3.9480552673339844,0.32056599855422974,0.07354739308357239,-0.09860135614871979,-0.05409182608127594
387,56029,56028,0.012645065784454346,-0.006289010867476463,0.9639914631843567,0.06498483568429947,0.24405333399772644,-0.7962795495986938,2.207939386367798,3.9474823474884033,0.3177141547203064,0.01188149955123663,-0.09969091415405273,-0.08100173622369766
388,56039,56038,-0.010903858579695225,-0.04378781467676163,0.9787294864654541,-2.4552736282348633,2.4825944900512695,-0.6657277345657349,2.208624839782715,3.9482059478759766,0.3173815906047821,-0.004244884941726923,-0.1374826729297638,-0.06703301519155502
389,56049,56048,0.013224818743765354,-0.0030159351881593466,0.9741190671920776,-4.162031173706055,3.9139771461486816,-0.6235244274139404,2.2101893424987793,3.9482104778289795,0.3169894218444824,-0.12674689292907715,-0.2065802663564682,-0.06188346445560455
390,56059,56058,3.3938897104235366e-05,-0.036000605672597885,0.9875699281692505,-4.3406291007995605,4.273623466491699,0.06505968421697617,2.211287260055542,3.94866943359375,0.3131982088088989,-0.17905744910240173,-0.2901906669139862,-0.06515394151210785
391,56069,56068,1.6227424566750415e-05,0.007239466533064842,0.995552122592926,-2.6727442741394043,2.2276360988616943,-0.28046274185180664,2.211045026779175,3.9466240406036377,0.312707781791687,-0.13759085536003113,-0.2059260755777359,-0.09588591754436493
392,56079,56078,0.0040982854552567005,-0.0380704402923584,0.9725952744483948,0.1714823842048645,-0.669884979724884,0.34869131445884705,2.2114810943603516,3.946477174758911,0.3122205436229706,-0.06112600862979889,-0.24669374525547028,-0.12529799342155457
393,56089,56088,0.0017696020659059286,0.015900900587439537,1.0235027074813843,2.09309720993042,-2.4035961627960205,1.0300301313400269,2.211610794067383,3.9463629722595215,0.311907023191452,-0.03214360773563385,-0.2456662803888321,-0.10511921346187592
394,56099,56098,0.0026558421086519957,-0.03501962125301361,0.9800682067871094,3.492382049560547,-2.1488022804260254,1.0734031200408936,2.2120273113250732,3.945896863937378,0.311384379863739,0.005745386704802513,-0.21188625693321228,-0.09697403758764267
395,56109,56108,-0.0031274710781872272,-0.00815676711499691,1.0151333808898926,2.7817416191101074,1.0031263828277588,1.1684573888778687,2.212972640991211,3.9454946517944336,0.31083062291145325,0.019845852628350258,-0.17847615480422974,-0.09363087266683578
396,56119,56118,-0.015536297112703323,-0.08198553323745728,0.9871428608894348,0.11454974859952927,4.850821495056152,1.522063136100769,2.2139697074890137,3.9454782009124756,0.3094780445098877,-0.011349364183843136,-0.16770415008068085,-0.07979272305965424
397,56129,56128,-0.05274229124188423,-0.0756521001458168,0.9760228991508484,-1.644046425819397,8.297799110412598,1.5920510292053223,2.214759111404419,3.9453377723693848,0.30884620547294617,-0.10611032694578171,-0.1932283490896225,-0.0628480315208435
398,56139,56138,-0.01282996591180563,0.007378074340522289,1.0136058330535889,-2.140834093093872,8.545854568481445,2.2439186573028564,2.2159836292266846,3.9450275897979736,0.30817586183547974,-0.16174118220806122,-0.2361201047897339,-0.06218515336513519
399,56149,56148,-0.03552410379052162,-0.006375274620950222,1.0393544435501099,-0.2532906234264374,8.028913497924805,2.719733476638794,2.217941999435425,3.9450180530548096,0.3075798451900482,-0.29568198323249817,-0.2656427025794983,-0.04878012463450432
400,56159,56158,0.04046909883618355,-0.045397091656923294,0.9604142308235168,0.8015158176422119,4.223196506500244,3.1833817958831787,2.2189218997955322,3.9447782039642334,0.3061394691467285,-0.3164566457271576,-0.26892438530921936,-0.03411069139838219
401,56169,56168,-0.015123886987566948,0.08296595513820648,0.9467354416847229,3.0486361980438232,-0.7109894752502441,3.7361927032470703,2.2210769653320312,3.9444220066070557,0.3054817020893097,-0.36566972732543945,-0.23634974658489227,-0.018439266830682755
402,56179,56178,-0.021624933928251266,0.08764838427305222,0.9808290600776672,3.778637170791626,-5.170808792114258,4.6707048416137695,2.221585750579834,3.943800926208496,0.3048182725906372,-0.32993805408477783,-0.18132352828979492,0.001885872334241867
403,56189,56188,0.0022227554582059383,0.018268393352627754,1.1436353921890259,2.5679173469543457,-6.3741631507873535,6.207723140716553,2.220903158187866,3.9439961910247803,0.3022293150424957,-0.13166609406471252,-0.13796359300613403,0.06180020794272423
404,56199,56198,-0.0044910418801009655,-0.04020394757390022,1.0649614334106445,0.6511564254760742,-3.91998291015625,6.846255779266357,2.2229535579681396,3.9443001747131348,0.30131712555885315,-0.3510805666446686,-0.12104909867048264,0.15266555547714233
405,56209,56208,0.024478599429130554,-0.02618340402841568,1.015265941619873,-1.1377451419830322,-0.34019890427589417,7.632503032684326,2.2221579551696777,3.94469952583313,0.300853431224823,-0.14444713294506073,-0.13668517768383026,0.2312675565481186
406,56219,56218,-0.013316161930561066,-0.12360476702451706,1.0229038000106812,-2.753157615661621,4.051764965057373,8.255566596984863,2.2214713096618652,3.945392608642578,0.2995237708091736,-0.11065591871738434,-0.18215616047382355,0.3303625285625458
407,56229,56228,0.016390305012464523,-0.050294697284698486,1.0082449913024902,-2.320772647857666,5.481270790100098,8.979597091674805,2.2229886054992676,3.9437451362609863,0.29879266023635864,-0.2636542320251465,-0.15217377245426178,0.3786860406398773
408,56239,56238,0.02252236008644104,-0.01604788936674595,1.0007776021957397,-1.1417509317398071,7.007208347320557,9.218518257141113,2.2233166694641113,3.94210147857666,0.29816290736198425,-0.2863955497741699,-0.18795977532863617,0.40441691875457764
409,56249,56248,-0.00041932606836780906,0.014403142035007477,1.0567443370819092,0.3915460407733917,7.6139750480651855,9.515113830566406,2.224520683288574,3.9422969818115234,0.2973487079143524,-0.48977020382881165,-0.20249031484127045,0.5102976560592651
410,56259,56258,-0.022919142618775368,-0.019551770761609077,1.0564873218536377,0.7996888160705566,6.604217052459717,9.43950080871582,2.223410129547119,3.941322088241577,0.3019278049468994,-0.44010162353515625,-0.19751036167144775,0.5687416791915894
411,56269,56268,0.01891329512000084,0.07306639105081558,1.035849928855896,2.0059590339660645,2.4986188411712646,9.827520370483398,2.224224328994751,3.94140887260437,0.3017268478870392,-0.4921233654022217,-0.17457684874534607,0.6712004542350769
412,56279,56278,-0.015916874632239342,-0.003738324623554945,1.0396090745925903,3.467353582382202,-0.8246614336967468,11.326971054077148,2.2246553897857666,3.9400177001953125,0.30136293172836304,-0.5709529519081116,-0.14056460559368134,0.7363836765289307
413,56289,56288,-0.022118249908089638,-0.0607430599629879,0.9962266683578491,5.149448871612549,-5.174153804779053,13.101232528686523,2.224494218826294,3.9405484199523926,0.3052422106266022,-0.44931143522262573,-0.07731069624423981,0.8796476125717163
414,56299,56298,0.023560483008623123,-0.14239291846752167,0.964820146560669,6.851467132568359,-9.897610664367676,13.720648765563965,2.226783037185669,3.939180612564087,0.30534452199935913,-0.41468116641044617,-0.06824903190135956,0.9640871286392212
415,56309,56308,0.020842349156737328,-0.02470541186630726,1.0165092945098877,6.385435104370117,-13.756814002990723,16.094135284423828,2.2277450561523438,3.940253257751465,0.3052501678466797,-0.4351208806037903,0.0371527299284935,1.1458758115768433
416,56319,56318,0.011374170891940594,-0.005217104218900204,0.9490000009536743,6.968802452087402,-13.477581977844238,16.90926742553711,2.2276089191436768,3.9398434162139893,0.30364280939102173,-0.1286877542734146,0.14991779625415802,1.307189702987671
417,56329,56328,0.013771059922873974,-0.06517605483531952,0.9642350077629089,5.837700843811035,-11.864530563354492,17.145732879638672,2.228501558303833,3.9388039112091064,0.3034418821334839,-0.16333246231079102,0.16528432071208954,1.4453235864639282
418,56339,56338,-0.028885619714856148,-0.031037067994475365,1.0175174474716187,2.1579437255859375,-8.018452644348145,17.611927032470703,2.2266345024108887,3.937633752822876,0.3032590448856354,-0.05959706008434296,0.2249666154384613,1.5722695589065552
419,56349,56348,0.0513589009642601,-0.03948316350579262,0.9132362604141235,-1.0904700756072998,-4.013487815856934,17.99207878112793,2.2253761291503906,3.937832832336426,0.3032044768333435,0.1377326101064682,0.1673136204481125,1.730954647064209
420,56359,56358,0.012126908637583256,0.039638176560401917,1.0215860605239868,-6.8073225021362305,0.12110894173383713,18.16123390197754,2.227410316467285,3.9382734298706055,0.3036103844642639,0.037078555673360825,0.10253900289535522,1.9083094596862793
421,56369,56368,0.0475490465760231,-0.18111391365528107,1.0335172414779663,-9.996898651123047,4.836032390594482,18.760417938232422,2.2299232482910156,3.937948226928711,0.3034479320049286,-0.0306521188467741,0.03429434448480606,2.080728530883789
422,56379,56378,0.046422459185123444,-0.011893561109900475,0.9081268310546875,-11.00756549835205,6.5648674964904785,19.69083595275879,2.230560302734375,3.9382164478302,0.30336886644363403,-0.0006757719675078988,-0.13189521431922913,2.2550182342529297
423,56389,56388,-0.06420361995697021,-0.009008914232254028,1.0384114980697632,-9.00318717956543,5.926790237426758,19.04646110534668,2.231624126434326,3.9384799003601074,0.30441534519195557,-0.07759030163288116,-0.29377710819244385,2.4361515045166016
424,56399,56398,-0.011219588108360767,0.03376474231481552,1.0282927751541138,-7.545036792755127,6.27429723739624,19.31087303161621,2.232724189758301,3.937666893005371,0.3043648302555084,-0.12996213138103485,-0.2734990119934082,2.626861810684204
425,56409,56408,-0.002564395312219858,0.010765472427010536,0.9914321899414062,-7.103949546813965,9.73225212097168,18.70961570739746,2.2315633296966553,3.9378199577331543,0.30440664291381836,-0.15904606878757477,-0.3961867094039917,2.8177120685577393
426,56419,56418,-0.09203661233186722,0.01046813651919365,1.0656647682189941,-8.460274696350098,13.083724975585938,17.074060440063477,2.2324507236480713,3.9380271434783936,0.3048480153083801,-0.25500693917274475,-0.5254887938499451,2.9816060066223145
427,56429,56428,-0.01747855357825756,0.12710118293762207,0.9659165143966675,-10.59710693359375,14.53365421295166,16.081056594848633,2.233428716659546,3.9380252361297607,0.30485254526138306,-0.39074239134788513,-0.5881577730178833,3.1499550342559814
428,56439,56438,0.00435906695201993,0.033475611358881,0.9746068716049194,-14.599441528320312,16.573320388793945,14.343321800231934,2.233888864517212,3.939438581466675,0.30481261014938354,-0.5596288442611694,-0.7782285213470459,3.3277812004089355
429,56449,56448,0.004701966419816017,0.08611072599887848,1.0050606727600098,-12.357892990112305,13.102880477905273,12.718684196472168,2.233344554901123,3.9397192001342773,0.3045566976070404,-0.6403356194496155,-0.9080001711845398,3.473853349685669
430,56459,56458,0.00781848095357418,-0.0463196225464344,0.9407998919487,-5.328065395355225,12.081181526184082,10.550856590270996,2.234762191772461,3.939429998397827,0.30457058548927307,-0.8360396027565002,-0.8928766846656799,3.6021711826324463
431,56469,56468,0.007555151358246803,-0.06484891474246979,0.9300377368927002,-1.4790904521942139,10.239962577819824,8.083976745605469,2.236055612564087,3.9388601779937744,0.30453959107398987,-0.9281268119812012,-0.9400255680084229,3.6893985271453857
432,56479,56478,0.010859403759241104,-0.0269418153911829,0.9397056102752686,2.6165897846221924,7.001029014587402,6.80200719833374,2.2363574504852295,3.938744068145752,0.30458682775497437,-0.9814538359642029,-0.918267011642456,3.7640931606292725
433,56489,56488,-0.005511709023267031,0.03801671788096428,1.0175974369049072,4.426084041595459,3.423586130142212,5.403334140777588,2.2373392581939697,3.941385507583618,0.3073962926864624,-1.0540435314178467,-0.9232190251350403,3.912997245788574
434,56499,56498,-0.07138293236494064,0.09851141273975372,0.9587557911872864,3.5718369483947754,-1.099713683128357,2.8050551414489746,2.2374002933502197,3.94115948677063,0.3075493574142456,-0.9805519580841064,-0.8352288603782654,3.927703857421875
435,56509,56508,-0.006569807883352041,0.0024999561719596386,0.9488558173179626,2.4529361724853516,-4.194136142730713,0.802301824092865,2.2381181716918945,3.9410250186920166,0.3074983060359955,-0.9933855533599854,-0.8423868417739868,3.9518730640411377
436,56519,56518,0.007421040441840887,-0.005635360721498728,0.9013363122940063,1.8577561378479004,-8.49168586730957,-1.4595612287521362,2.2385056018829346,3.9402096271514893,0.3055473566055298,-0.9259636998176575,-0.7769505977630615,3.9365451335906982
437,56529,56528,0.04946938902139664,-0.13397246599197388,1.0074708461761475,-0.2288571447134018,-9.987166404724121,-3.5031003952026367,2.2392680644989014,3.940943956375122,0.3052939176559448,-0.8187785744667053,-0.8256235122680664,3.913844108581543
438,56539,56538,0.0529799610376358,-0.10964332520961761,1.0792584419250488,0.038579437881708145,-9.572317123413086,-5.112547397613525,2.2414419651031494,3.941230058670044,0.30494174361228943,-0.7741219401359558,-0.8877226710319519,3.8606271743774414
439,56549,56548,0.007677766960114241,-0.022904060781002045,1.0020673274993896,4.96628999710083,-5.041162967681885,-7.342477798461914,2.243144989013672,3.9414758682250977,0.30096307396888733,-0.6923694610595703,-0.8918337821960449,3.778927803039551
440,56559,56558,0.03247227519750595,-0.12328539788722992,0.9535109400749207,7.703454494476318,-0.641449511051178,-10.032946586608887,2.242933750152588,3.940394639968872,0.30067721009254456,-0.5498944520950317,-0.7677744626998901,3.693469762802124
441,56569,56568,0.019452935084700584,-0.05627775192260742,0.9496890902519226,7.675017356872559,3.0174100399017334,-12.416200637817383,2.2452211380004883,3.9403555393218994,0.30012989044189453,-0.6961045861244202,-0.6916939616203308,3.5904526710510254
442,56579,56578,-0.008784349076449871,-0.00789735745638609,0.8952253460884094,7.6588521003723145,5.811445236206055,-15.063935279846191,2.2463319301605225,3.941272497177124,0.2995762825012207,-0.7444786429405212,-0.6798924803733826,3.452075958251953
443,56589,56588,-0.008618390187621117,-0.0036560003645718098,0.9055514931678772,9.828666687011719,7.570552825927734,-18.484046936035156,2.248528003692627,3.941511392593384,0.29938188195228577,-0.884746789932251,-0.6484100818634033,3.2669789791107178
444,56599,56598,-0.004901084117591381,-0.03661289066076279,0.9398562908172607,11.122570991516113,9.81934928894043,-19.73505210876465,2.2485928535461426,3.9408938884735107,0.2989955544471741,-0.8296229839324951,-0.43429508805274963,3.08015513420105
445,56609,56608,0.011308969929814339,-0.04607430100440979,0.9858487844467163,16.30766487121582,7.701588153839111,-22.21650505065918,2.2505815029144287,3.9424848556518555,0.29806214570999146,-1.101345419883728,-0.4083233177661896,2.9033961296081543
446,56619,56618,0.022611567750573158,-0.04032124578952789,1.0516371726989746,19.032175064086914,5.661874294281006,-23.7622127532959,2.2512784004211426,3.9421229362487793,0.2951941192150116,-1.088449239730835,-0.3042866289615631,2.6320807933807373
447,56629,56628,0.010348450392484665,-0.05086768791079521,0.9928811192512512,19.653888702392578,-2.2895920276641846,-25.194740295410156,2.2503926753997803,3.9420664310455322,0.29474735260009766,-0.985856831073761,-0.006518576759845018,2.390617609024048
448,56639,56638,0.004041070584207773,0.08078192919492722,0.9764800667762756,13.315153121948242,-13.50658893585205,-27.04375457763672,2.2506213188171387,3.9413695335388184,0.29401564598083496,-0.8968846797943115,0.23377014696598053,2.1133058071136475
449,56649,56648,-0.0030199068132787943,-0.0006317914230749011,1.0419245958328247,6.061804294586182,-24.369293212890625,-29.22237777709961,2.2524044513702393,3.9429659843444824,0.2913280427455902,-0.8466076254844666,0.19866539537906647,1.8247790336608887
450,56659,56658,0.03221871703863144,-0.09751033037900925,0.9689704775810242,1.1889375448226929,-29.25151252746582,-30.48627471923828,2.2515838146209717,3.9430158138275146,0.29060879349708557,-0.4209669232368469,0.3009626567363739,1.5356216430664062
451,56669,56668,0.02097797393798828,-0.040869466960430145,1.042833685874939,0.48109808564186096,-30.961355209350586,-30.71078872680664,2.2527945041656494,3.9409496784210205,0.2897683084011078,-0.11022248864173889,0.4271504282951355,1.178423523902893
452,56679,56678,-0.0032081936951726675,-0.02504107914865017,1.1187784671783447,4.319524765014648,-27.519609451293945,-30.118511199951172,2.2553353309631348,3.9413955211639404,0.2919486165046692,0.015283479355275631,0.42628195881843567,0.8668276071548462
453,56689,56688,-0.05557716265320778,0.027511054649949074,0.9976581335067749,11.67103385925293,-19.808805465698242,-29.879772186279297,2.2559828758239746,3.941917657852173,0.2913748323917389,0.22181645035743713,0.5225140452384949,0.5913730263710022
454,56699,56698,-0.014321324415504932,-0.012229952961206436,0.9282045364379883,16.037487030029297,-12.700934410095215,-27.110876083374023,2.256183385848999,3.941840887069702,0.290802925825119,0.4715263545513153,0.7073696851730347,0.30944138765335083
455,56709,56708,-0.048702422529459,0.12397629022598267,0.972570538520813,17.33610725402832,-3.614238977432251,-26.044836044311523,2.2585971355438232,3.942779302597046,0.29016777873039246,0.416851669549942,0.8655613660812378,0.0633949339389801
456,56719,56718,-0.018207233399152756,0.014089387841522694,1.1281015872955322,16.56136703491211,2.065023422241211,-25.238441467285156,2.2591824531555176,3.9420738220214844,0.2925662100315094,0.5563188791275024,1.1847195625305176,-0.2167092114686966
457,56729,56728,0.04770200327038765,-0.17829088866710663,1.1181485652923584,12.108129501342773,6.0196685791015625,-23.179330825805664,2.2603392601013184,3.942143201828003,0.29222655296325684,0.3768811821937561,1.2775934934616089,-0.4814073443412781
458,56739,56738,-0.014716493897140026,-0.052773699164390564,1.098238229751587,5.34429407119751,9.784485816955566,-22.094589233398438,2.261110305786133,3.9429421424865723,0.2920772433280945,0.3556104004383087,1.3586843013763428,-0.7034355998039246
459,56749,56748,0.0017946589505299926,-0.016352519392967224,1.0679969787597656,-3.0746560096740723,8.971466064453125,-20.460960388183594,2.2627527713775635,3.9432315826416016,0.294026255607605,0.24373096227645874,1.2983444929122925,-0.9436516165733337
460,56759,56758,-0.025818906724452972,-0.03290111944079399,1.094948410987854,-8.88134479522705,4.523165225982666,-18.58409881591797,2.2629969120025635,3.9452426433563232,0.29417771100997925,0.18612158298492432,1.2094526290893555,-1.069098711013794
461,56769,56768,-0.012510138563811779,-0.027252601459622383,1.083878755569458,-12.155437469482422,2.032313823699951,-17.689434051513672,2.2640585899353027,3.9449052810668945,0.2943386435508728,0.17243069410324097,1.1981761455535889,-1.2950763702392578
462,56779,56778,0.005871012341231108,-0.03568624332547188,1.0607308149337769,-15.204351425170898,-4.45485782623291,-17.952484130859375,2.2638885974884033,3.943817377090454,0.29374298453330994,0.248928040266037,1.0477168560028076,-1.4607329368591309
463,56789,56788,0.020637480542063713,-0.04472631588578224,0.991372287273407,-15.670719146728516,-6.712447643280029,-18.243534088134766,2.2649993896484375,3.943312644958496,0.2939755320549011,0.15922988951206207,0.9529053568840027,-1.7005195617675781
464,56799,56798,-0.011435232125222683,-0.004845446906983852,1.0484960079193115,-14.432354927062988,-3.226445198059082,-18.366436004638672,2.2671701908111572,3.941622018814087,0.29420214891433716,0.29016751050949097,0.8500191569328308,-1.9097529649734497
465,56809,56808,0.006041904911398888,-0.06863873451948166,0.9627828598022461,-10.34621524810791,4.0057759284973145,-17.900461196899414,2.2681329250335693,3.941371202468872,0.2944995164871216,0.23995347321033478,0.6442350149154663,-2.1064352989196777
466,56819,56818,0.008379874750971794,-0.04900824651122093,1.0862177610397339,-5.562061309814453,9.792136192321777,-15.806800842285156,2.2697741985321045,3.9403879642486572,0.2937054932117462,0.08922114223241806,0.7416698932647705,-2.2938852310180664
467,56829,56828,0.02913150005042553,-0.06351445615291595,0.9995439052581787,2.761371612548828,13.75921630859375,-14.852374076843262,2.2710704803466797,3.94016695022583,0.29395267367362976,0.013539501465857029,0.714993417263031,-2.4395015239715576
468,56839,56838,-0.016577715054154396,-0.0029302877373993397,1.0482906103134155,12.846643447875977,14.416589736938477,-15.088689804077148,2.27262544631958,3.937436819076538,0.294208824634552,-0.1786499172449112,0.920876145362854,-2.66426420211792
469,56849,56848,0.015278076753020287,-0.01996169239282608,1.0045431852340698,18.849529266357422,11.403352737426758,-15.653700828552246,2.2738559246063232,3.937316656112671,0.29756075143814087,-0.26392626762390137,1.091831088066101,-2.792870283126831
470,56859,56858,-0.0011611150112003088,-0.033900462090969086,0.9942774176597595,17.588069915771484,6.0525288581848145,-15.145354270935059,2.2746968269348145,3.936845302581787,0.29810240864753723,-0.2789923846721649,1.3574436902999878,-2.9347469806671143
471,56869,56868,0.004522890783846378,-0.16485758125782013,0.9904542565345764,11.616442680358887,0.19187255203723907,-15.413525581359863,2.2750587463378906,3.9357287883758545,0.2986307442188263,-0.3571259677410126,1.394188642501831,-3.0877983570098877
472,56879,56878,0.0033321562223136425,-0.12528668344020844,0.9068291187286377,0.2455742061138153,-2.0780415534973145,-14.189144134521484,2.2763760089874268,3.936147689819336,0.29947853088378906,-0.2977370321750641,1.4385935068130493,-3.2300355434417725
473,56889,56888,0.04346447065472603,0.09999150782823563,0.8802949786186218,-15.421479225158691,-4.4056901931762695,-13.602147102355957,2.2765183448791504,3.9358835220336914,0.2999952733516693,-0.21670784056186676,1.2469737529754639,-3.359126091003418
474,56899,56898,0.04015643149614334,0.00826350785791874,0.9329016208648682,-25.660490036010742,-8.485764503479004,-12.894535064697266,2.27641224861145,3.9370267391204834,0.30046865344047546,-0.2861880958080292,1.0806045532226562,-3.5125203132629395
475,56909,56908,-0.0022670950274914503,0.003885079175233841,1.0232716798782349,-25.419170379638672,-6.34175968170166,-11.85146427154541,2.278700113296509,3.9359500408172607,0.3005422055721283,-0.19245950877666473,0.7690337896347046,-3.648261308670044
476,56919,56918,-0.017495455220341682,-0.012968718074262142,0.9679424166679382,-19.29905891418457,-2.967424154281616,-11.289530754089355,2.2790112495422363,3.936213970184326,0.30406948924064636,-0.15100015699863434,0.4566260278224945,-3.7494356632232666
477,56929,56928,0.016481999307870865,-0.010776794515550137,0.9596490859985352,-12.513340950012207,1.5638138055801392,-8.522570610046387,2.2796542644500732,3.9364402294158936,0.30447715520858765,-0.2509189248085022,0.5644111037254333,-3.8839898109436035
478,56939,56938,0.024144543334841728,-0.060781221836805344,0.9500762820243835,-5.184962749481201,6.157613277435303,-6.622620582580566,2.2808361053466797,3.9336352348327637,0.30470773577690125,-0.1972433179616928,0.38362979888916016,-3.935680389404297
