,timestamp_start,timestamp_end,acc.x,acc.y,acc.z,gyro.x,gyro.y,gyro.z,stateEstimate.x,stateEstimate.y,stateEstimate.z,stabilizer.pitch,stabilizer.roll,stabilizer.yaw
0,68913,68911,0.001899799332022667,-0.051084186881780624,1.003020167350769,-0.962883472442627,-43.844146728515625,1.325888991355896,2.0124051570892334,4.052493095397949,0.18886125087738037,-0.746365487575531,0.054118089377880096,3.7146925926208496
1,68923,68921,0.02055426687002182,0.04452568292617798,0.910169780254364,-9.67184066772461,-38.91592025756836,1.7590819597244263,2.013936996459961,4.058616638183594,0.19121859967708588,-0.42644962668418884,-0.15017566084861755,3.687023401260376
2,68933,68931,0.0010420355247333646,0.023665901273489,0.9781960248947144,-14.382282257080078,-27.332406997680664,2.1116280555725098,2.015111207962036,4.059565544128418,0.1887761652469635,-0.035395655781030655,-0.3698885142803192,3.680405378341675
3,68943,68941,0.028011970221996307,-0.001748042181134224,0.9782599210739136,-14.33137035369873,-19.098594665527344,2.908015489578247,2.014080286026001,4.062904357910156,0.19069913029670715,0.30191752314567566,-0.6203802824020386,3.6873996257781982
4,68953,68951,-0.048698652535676956,0.11529972404241562,1.0114235877990723,-9.436302185058594,-9.745786666870117,3.6432769298553467,2.015293836593628,4.063544750213623,0.19246777892112732,0.4804297685623169,-0.8225627541542053,3.709057092666626
5,68963,68961,-0.01759454421699047,-0.07758047431707382,1.0096255540847778,-1.447414517402649,-4.681430816650391,3.978464365005493,2.016029119491577,4.063911437988281,0.1917770653963089,0.5460577607154846,-0.7594934701919556,3.7644219398498535
6,68973,68971,-0.007674770895391703,-0.12445992976427078,1.011170744895935,7.599049091339111,-4.527125835418701,3.313490152359009,2.0152428150177,4.0666327476501465,0.19363819062709808,0.6829741597175598,-0.7246175408363342,3.8082656860351562
7,68983,68981,-0.022314580157399178,-0.0289600882679224,0.966385006904602,12.325161933898926,-0.45524272322654724,3.4428927898406982,2.015625238418579,4.068728923797607,0.19537067413330078,0.6910196542739868,-0.6359190940856934,3.8425185680389404
8,68993,68991,-0.0223251860588789,0.014835567213594913,1.0156660079956055,12.467342376708984,-2.571726083755493,3.336029529571533,2.016479015350342,4.071049213409424,0.1971910297870636,0.8358338475227356,-0.49976423382759094,3.8808960914611816
9,69003,69001,-0.00145902659278363,-0.03390279412269592,1.0052423477172852,10.697708129882812,-6.948413372039795,3.171619415283203,2.017172336578369,4.07076358795166,0.1974991410970688,0.7162035703659058,-0.3729269802570343,3.917768955230713
10,69013,69011,0.0063978987745940685,-0.01562786102294922,1.0127251148223877,7.505712985992432,-10.33388900756836,3.1465165615081787,2.016265630722046,4.067936420440674,0.1992053985595703,0.8997496366500854,-0.21635760366916656,3.9458389282226562
11,69023,69021,-0.0093302670866251,0.03548414260149002,1.0824835300445557,1.7685394287109375,-11.57321834564209,3.409594774246216,2.0153427124023438,4.072027206420898,0.2009393274784088,1.0465980768203735,-0.21057675778865814,3.9785666465759277
12,69033,69031,0.014272602275013924,-0.05015253275632858,1.0154021978378296,-1.447733998298645,-10.201834678649902,2.4371392726898193,2.0138015747070312,4.072815418243408,0.20128880441188812,1.25942862033844,-0.27261701226234436,4.016170024871826
13,69043,69041,-0.024325983598828316,-0.0038643754087388515,1.0380076169967651,-3.3661623001098633,-7.943389892578125,2.0567705631256104,2.015207529067993,4.0728654861450195,0.20307213068008423,1.208283543586731,-0.29390749335289,4.0411505699157715
14,69053,69051,-0.00037272358895279467,0.05268245190382004,1.0079381465911865,-2.186267852783203,-4.210551738739014,1.8022788763046265,2.015049695968628,4.075881004333496,0.20476752519607544,1.3478057384490967,-0.47056207060813904,4.075859069824219
15,69063,69061,-0.003948835656046867,0.06489996612071991,1.0174731016159058,0.267278790473938,-1.1333235502243042,1.7128674983978271,2.015178918838501,4.07602596282959,0.20571444928646088,1.4819327592849731,-0.38328611850738525,4.081099510192871
16,69073,69071,0.022072626277804375,-0.04036717489361763,0.9904139637947083,3.311702251434326,1.5894094705581665,1.1666436195373535,2.0129878520965576,4.078751564025879,0.2074282318353653,1.6317864656448364,-0.3375590741634369,4.091932773590088
17,69083,69081,0.017339549958705902,0.006621317472308874,1.0196818113327026,6.506466388702393,3.333857536315918,1.141063928604126,2.0136351585388184,4.07634973526001,0.2092689722776413,1.49811851978302,-0.244797945022583,4.094959735870361
18,69093,69091,0.025842338800430298,0.0313081257045269,1.0300456285476685,5.954505920410156,6.300398826599121,0.2759731113910675,2.013369083404541,4.077381134033203,0.21101178228855133,1.4775091409683228,-0.1987893283367157,4.10887336730957
19,69103,69101,0.020543837919831276,-0.04669119417667389,0.9792811274528503,3.939610481262207,6.655001640319824,-0.45278656482696533,2.010181427001953,4.075150966644287,0.2126619964838028,1.790835976600647,-0.09795603156089783,4.103394031524658
20,69113,69111,0.000631543982308358,-0.013588414527475834,1.0068402290344238,2.509263515472412,5.759154796600342,-0.4086557626724243,2.009324789047241,4.075475215911865,0.214249387383461,1.8310060501098633,-0.10290246456861496,4.10894775390625
21,69123,69121,0.021223777905106544,-0.012071050703525543,1.0047638416290283,-0.7088463306427002,7.050573825836182,-1.2909950017929077,2.00962233543396,4.075498580932617,0.21615180373191833,1.703505277633667,-0.06991904973983765,4.0993194580078125
22,69133,69131,-0.009515805169939995,-0.024261940270662308,1.0097378492355347,-2.7281980514526367,8.107927322387695,-2.8166534900665283,2.011227607727051,4.063974857330322,0.21646413207054138,1.4856559038162231,1.509403109550476,3.7225306034088135
23,69143,69141,-0.04163473844528198,0.01798398792743683,0.9829891324043274,-4.854714393615723,9.114981651306152,-0.9705407023429871,2.011434555053711,4.064155101776123,0.21954227983951569,1.3581455945968628,1.2529488801956177,3.7456772327423096
24,69153,69151,-0.09196899086236954,0.1287277340888977,0.9741381406784058,-10.303196907043457,13.277464866638184,-0.24246780574321747,2.011641263961792,4.063800811767578,0.2223978489637375,1.17267644405365,0.9842156767845154,3.782538414001465
25,69163,69161,-0.004314496647566557,0.13153070211410522,0.9576961994171143,-21.182209014892578,13.446794509887695,-0.7417424321174622,2.0123484134674072,4.064154148101807,0.22448395192623138,0.9422911405563354,0.6799822449684143,3.8115220069885254
26,69173,69171,0.012641992419958115,0.02293839119374752,1.0020872354507446,-29.2966365814209,8.755162239074707,-2.252903699874878,2.0115933418273926,4.0646796226501465,0.22644470632076263,0.9179596304893494,0.36796435713768005,3.8277201652526855
27,69183,69181,-0.06520072370767593,0.05019731819629669,0.9802643060684204,-33.52338790893555,2.756270170211792,-3.2640655040740967,2.011547803878784,4.065553188323975,0.22855910658836365,0.8150468468666077,-0.18852515518665314,3.8462026119232178
28,69193,69191,-0.0052187382243573666,0.013350773602724075,0.9463939070701599,-32.303680419921875,-1.1467792987823486,-3.7939701080322266,2.0103704929351807,4.066127300262451,0.2303638756275177,0.94272381067276,-0.6836852431297302,3.8560330867767334
29,69203,69201,-0.024634771049022675,-0.0012078526197001338,1.0809108018875122,-24.37621307373047,-7.459480285644531,-2.892310619354248,2.010124683380127,4.0652642250061035,0.22981591522693634,0.9875276684761047,-0.9321650862693787,3.812281847000122
30,69213,69211,0.04029717668890953,-0.14899420738220215,1.0432069301605225,-10.83422565460205,-3.280811071395874,-3.730032205581665,2.0085344314575195,4.063331604003906,0.23140010237693787,1.0668386220932007,-1.2331641912460327,3.793672561645508
31,69223,69221,-0.029788751155138016,-0.012136289849877357,1.0441367626190186,1.0006837844848633,2.861689567565918,-3.9156882762908936,2.007986545562744,4.065179347991943,0.23305514454841614,1.0570429563522339,-1.3795872926712036,3.7659788131713867
32,69233,69231,0.005693426821380854,-0.02719096653163433,0.9440039992332458,8.700082778930664,7.506742000579834,-3.5502402782440186,2.0099785327911377,4.068241119384766,0.2344529628753662,0.7308289408683777,-1.7849664688110352,3.791102647781372
33,69243,69241,0.008196527138352394,-0.01732097752392292,0.9768368005752563,13.262162208557129,10.792745590209961,-3.7434656620025635,2.009472608566284,4.065178871154785,0.23717114329338074,0.7412322163581848,-1.2903262376785278,3.6939308643341064
34,69253,69251,0.01673448458313942,-0.07527376711368561,1.0446733236312866,15.7783203125,8.841837882995605,-3.419109582901001,2.008162260055542,4.061478614807129,0.23892179131507874,0.6525230407714844,-1.0740059614181519,3.644977569580078
35,69263,69261,0.07066020369529724,-0.10756528377532959,0.9720666408538818,12.922956466674805,9.202399253845215,-3.729304790496826,2.008497714996338,4.063788890838623,0.23993055522441864,0.4977324604988098,-1.2219810485839844,3.6500158309936523
36,69273,69271,0.004180401563644409,-0.05382809042930603,1.016178011894226,5.796814441680908,8.517027854919434,-4.874644756317139,2.012194871902466,4.069901943206787,0.24099518358707428,-0.040821243077516556,-1.5517206192016602,3.690011978149414
37,69283,69281,0.028520366176962852,0.012492689304053783,0.9377875328063965,2.5177221298217773,2.876107692718506,-5.155587196350098,2.010035276412964,4.066794395446777,0.24329344928264618,0.06983239948749542,-1.4154702425003052,3.615064859390259
38,69293,69291,0.051713742315769196,0.010881692171096802,0.9010132551193237,3.1684539318084717,-2.5173888206481934,-4.664087295532227,2.0097615718841553,4.069858551025391,0.2447012960910797,0.10740985721349716,-1.5298666954040527,3.5689592361450195
39,69303,69301,0.03826577588915825,-0.10741233080625534,1.0380752086639404,7.98016357421875,-6.53217887878418,-4.186511993408203,2.0083072185516357,4.067451000213623,0.24902184307575226,0.19964376091957092,-1.4504832029342651,3.5160226821899414
40,69313,69311,0.03406683728098869,-0.16581487655639648,0.992719292640686,15.844924926757812,-10.151902198791504,-3.9369499683380127,2.009021520614624,4.0720977783203125,0.2495926320552826,0.0638170838356018,-1.9102789163589478,3.522017002105713
41,69323,69321,-0.003603653283789754,-0.06873177736997604,0.9873103499412537,22.332178115844727,-10.764504432678223,-3.9816696643829346,2.007072925567627,4.0698747634887695,0.2525566816329956,0.2813858687877655,-1.4524121284484863,3.4620773792266846
42,69333,69331,0.05723080039024353,-0.02335565723478794,0.9538767337799072,31.271482467651367,-11.63191032409668,-3.6594300270080566,2.0057950019836426,4.067136287689209,0.25380656123161316,0.34647947549819946,-1.1166146993637085,3.42130184173584
43,69343,69341,0.016391264274716377,0.03962845355272293,0.9692628383636475,33.431400299072266,-7.959019660949707,-3.4643712043762207,2.0054333209991455,4.068545341491699,0.2555619478225708,0.5503907799720764,-0.7572004199028015,3.373525857925415
44,69353,69351,0.03603748232126236,0.1350325495004654,0.9713401198387146,30.564754486083984,-4.515583038330078,-3.3771064281463623,2.0029497146606445,4.065460681915283,0.2571924924850464,0.6787964105606079,-0.3998492360115051,3.332388162612915
45,69363,69361,0.020657643675804138,0.05227462574839592,0.9648444652557373,24.15558624267578,-3.3930912017822266,-3.007385492324829,2.0028655529022217,4.065905570983887,0.26049020886421204,0.6913658380508423,-0.049869321286678314,3.2999491691589355
46,69373,69371,0.027577193453907967,-0.0469876267015934,0.9482128024101257,15.077264785766602,0.19358259439468384,-3.737175226211548,2.0012917518615723,4.064992904663086,0.26208704710006714,0.7321377396583557,0.015059052035212517,3.268054246902466
47,69383,69381,0.015205399133265018,-0.03687649220228195,0.9360589981079102,7.116674423217773,2.6313319206237793,-4.373650074005127,2.0009422302246094,4.064626693725586,0.2637639045715332,0.7196065187454224,0.2478429526090622,3.2247281074523926
48,69393,69391,0.049766656011343,-0.023657748475670815,0.9161018133163452,2.4247071743011475,7.5707316398620605,-5.022407531738281,1.9990968704223633,4.064267635345459,0.2659059762954712,0.7916472554206848,0.35853374004364014,3.171189308166504
49,69403,69401,-0.012836715206503868,0.01869635097682476,0.9793397188186646,3.1277849674224854,3.4575846195220947,-4.466190338134766,1.9999988079071045,4.065189361572266,0.2674863040447235,0.6694448590278625,0.35473304986953735,3.1286163330078125
50,69413,69411,0.0597708560526371,-0.07121746987104416,0.9473024606704712,3.363386392593384,7.2875285148620605,-3.766800880432129,1.9984982013702393,4.066451549530029,0.2690078318119049,0.7267070412635803,0.43115097284317017,3.0819005966186523
51,69423,69421,0.023805100470781326,-0.04822668060660362,1.0286709070205688,7.123132705688477,3.4393744468688965,-3.7369494438171387,1.9979249238967896,4.063904762268066,0.27050140500068665,0.7167142033576965,0.609821081161499,3.0370380878448486
52,69433,69431,0.03569299355149269,-0.09931051731109619,0.9656790494918823,10.188362121582031,1.9936598539352417,-3.3097198009490967,1.99766206741333,4.0655341148376465,0.2739478349685669,0.6555531024932861,0.611443817615509,3.005127191543579
53,69443,69441,0.05610201507806778,-0.24973097443580627,0.9621873497962952,10.445138931274414,2.104450225830078,-3.318148612976074,1.9965038299560547,4.065049648284912,0.27552127838134766,0.602892279624939,0.7191208600997925,2.972778558731079
54,69453,69451,0.013210930861532688,-0.05216529592871666,0.9697692394256592,10.008869171142578,1.0534121990203857,-3.2917628288269043,1.996272325515747,4.062466621398926,0.27704980969429016,0.5655258297920227,0.9723326563835144,2.9321908950805664
55,69463,69461,0.03068569302558899,-0.0925864651799202,0.9312462210655212,9.281347274780273,0.5749698281288147,-3.122875452041626,1.9941086769104004,4.062637805938721,0.2784406244754791,0.6993197202682495,1.0515296459197998,2.908527135848999
56,69473,69471,0.11806894093751907,-0.023678183555603027,0.8563962578773499,6.627902984619141,1.8042030334472656,-3.1067187786102295,1.991952896118164,4.061594486236572,0.2797382175922394,0.7206851243972778,1.108365535736084,2.8813323974609375
57,69483,69481,0.08662396669387817,-0.03383480757474899,0.8781902194023132,0.81170654296875,6.341644287109375,-3.4227190017700195,1.989423394203186,4.05964469909668,0.28103411197662354,0.6345936059951782,1.1669037342071533,2.8388664722442627
58,69493,69491,0.08046477288007736,-0.04959604889154434,0.9426397681236267,-1.0577644109725952,3.910531520843506,-2.8570659160614014,1.9879884719848633,4.061005115509033,0.2828241288661957,0.6863628625869751,1.1579612493515015,2.820915937423706
59,69503,69501,0.043949998915195465,-0.05013376846909523,0.9885045886039734,-2.676572799682617,6.674429893493652,-3.548424005508423,1.9870539903640747,4.06205415725708,0.2839599549770355,0.6413145661354065,1.1869239807128906,2.7910873889923096
60,69513,69511,0.014858976937830448,-0.02547871693968773,0.9694547653198242,-3.413459300994873,9.583209991455078,-3.8068439960479736,1.9869356155395508,4.062266826629639,0.28505656123161316,0.5355768203735352,1.1838027238845825,2.751420497894287
61,69523,69521,0.011289660818874836,-0.030762365087866783,0.930999219417572,-1.8909763097763062,9.198799133300781,-3.4608750343322754,1.9857163429260254,4.060092449188232,0.2861233055591583,0.42530837655067444,1.1877224445343018,2.711719512939453
62,69533,69531,-0.018743256106972694,-0.004552806727588177,0.9567684531211853,-0.9234183430671692,8.753457069396973,-3.7844650745391846,1.9842591285705566,4.0594353675842285,0.2866469621658325,0.38580259680747986,1.2049018144607544,2.6859312057495117
63,69543,69541,-0.05298883467912674,0.05668508633971214,0.9683606028556824,0.6408300399780273,8.436019897460938,-2.833101272583008,1.9842400550842285,4.0601301193237305,0.287605881690979,0.26927241683006287,1.235381007194519,2.6473920345306396
64,69553,69551,-0.049666959792375565,0.1081930622458458,0.9290449619293213,0.3488815724849701,8.728270530700684,-2.7752017974853516,1.9828399419784546,4.059350490570068,0.28851306438446045,0.2346435785293579,1.2717241048812866,2.6297178268432617
65,69563,69561,-0.011863123625516891,0.12786930799484253,0.8688172101974487,-1.4715864658355713,6.238681793212891,-2.4777801036834717,1.9792839288711548,4.061888217926025,0.289879709482193,0.27508866786956787,1.213664174079895,2.6306209564208984
66,69573,69571,0.02064427360892296,0.11251849681138992,0.8509418964385986,-2.878776788711548,4.933318614959717,-2.790210485458374,1.9770324230194092,4.061324119567871,0.2906095087528229,0.18522025644779205,1.1293736696243286,2.6024363040924072
67,69583,69581,0.003548267064616084,0.16921502351760864,0.9127146601676941,-3.84200119972229,5.6971540451049805,-2.510031223297119,1.9762951135635376,4.061505317687988,0.2912665903568268,0.09763143956661224,1.109122395515442,2.5691442489624023
68,69593,69591,-0.051561374217271805,0.15703268349170685,1.016130805015564,-4.442007541656494,6.7861127853393555,-2.6070497035980225,1.9744478464126587,4.061102390289307,0.2956446707248688,0.0809602364897728,1.0655890703201294,2.5535507202148438
69,69603,69601,-0.018992098048329353,0.04428508132696152,0.9871958494186401,-4.079662799835205,6.625306606292725,-2.652575731277466,1.9734452962875366,4.057351112365723,0.2964754104614258,-0.08894044160842896,1.0939509868621826,2.5093507766723633
70,69613,69611,-0.0013131251325830817,-0.016419250518083572,0.9703893065452576,-4.332787036895752,8.004881858825684,-2.2344424724578857,1.9724195003509521,4.0577287673950195,0.29726842045783997,-0.10898394137620926,1.0420840978622437,2.493886947631836
71,69623,69621,-0.012771008536219597,0.01177749689668417,0.9506248235702515,-4.7857794761657715,7.73193359375,-3.0482637882232666,1.9722959995269775,4.056119441986084,0.29802581667900085,-0.2983691394329071,0.980048418045044,2.447685480117798
72,69633,69631,-0.07775679975748062,0.12274396419525146,0.9762366414070129,-5.766996383666992,6.0215020179748535,-3.257776975631714,1.9702385663986206,4.05599308013916,0.29988035559654236,-0.32183825969696045,0.9067317843437195,2.4286551475524902
73,69643,69641,-0.10799508541822433,0.17086651921272278,1.0281304121017456,-4.542749404907227,4.977231979370117,-2.6346092224121094,1.9694963693618774,4.0560302734375,0.3006514310836792,-0.38440021872520447,0.8374789357185364,2.3964614868164062
74,69653,69651,0.013003665953874588,-0.023918116465210915,0.9404820799827576,-3.0628674030303955,3.679476737976074,-2.4470198154449463,1.9671729803085327,4.054553508758545,0.3014172315597534,-0.36005574464797974,0.7877097129821777,2.3839681148529053
75,69663,69661,0.014945178292691708,0.019049642607569695,0.994353711605072,-1.904394507408142,0.7700141668319702,-2.0653533935546875,1.9676636457443237,4.055513381958008,0.3001478314399719,-0.4672122895717621,0.758156418800354,2.347583055496216
76,69673,69671,-0.05643339827656746,0.0712294727563858,1.0810297727584839,0.5865654349327087,-0.4978572726249695,-1.7559839487075806,1.9659415483474731,4.052959442138672,0.30078452825546265,-0.5103235244750977,0.758241593837738,2.3187344074249268
77,69683,69681,-0.035445138812065125,0.02430499531328678,1.0408824682235718,2.0785040855407715,-0.4684183895587921,-1.351571798324585,1.9649615287780762,4.052220344543457,0.30082836747169495,-0.5499497056007385,0.794198215007782,2.2997233867645264
78,69693,69691,-0.01771596074104309,0.046384070068597794,0.9963630437850952,0.13229507207870483,3.4050281047821045,-1.6574369668960571,1.962868571281433,4.048363208770752,0.29894647002220154,-0.6136354207992554,0.8899701833724976,2.284665584564209
79,69703,69701,0.07373923808336258,-0.036369942128658295,0.9246783256530762,-1.4329767227172852,1.1376748085021973,-1.933004379272461,1.9594179391860962,4.044152736663818,0.29943543672561646,-0.4635571241378784,0.9461751580238342,2.304527759552002
80,69713,69711,-0.010656298138201237,0.17773787677288055,0.9950332641601562,-4.944534778594971,0.42678216099739075,-2.009263515472412,1.9573463201522827,4.0447282791137695,0.299944132566452,-0.4443263113498688,0.8778412342071533,2.287194013595581
81,69723,69721,0.007177543826401234,0.2419225424528122,0.9499273300170898,-7.893491268157959,3.2544963359832764,-2.0516340732574463,1.9554229974746704,4.0435662269592285,0.3012450039386749,-0.507571816444397,0.7629439830780029,2.252493143081665
82,69733,69731,0.008753228932619095,0.13438285887241364,0.9281442761421204,-9.03164005279541,1.7039932012557983,-1.307814121246338,1.954838514328003,4.044193744659424,0.30173057317733765,-0.5780594944953918,0.6862652897834778,2.230037212371826
83,69743,69741,-0.05433574318885803,0.01326822116971016,1.0124783515930176,-9.194056510925293,2.2121543884277344,-1.2251431941986084,1.9546300172805786,4.045154094696045,0.3021128177642822,-0.5764046907424927,0.6019776463508606,2.2218143939971924
84,69753,69751,-0.02821461856365204,0.015833616256713867,1.0310693979263306,-8.051859855651855,1.0639493465423584,-1.8519963026046753,1.9542624950408936,4.043910980224609,0.3024832010269165,-0.644317626953125,0.5245620012283325,2.201220989227295
85,69763,69761,-0.031220100820064545,0.016634734347462654,0.9812063574790955,-6.34686803817749,0.5217101573944092,-1.766241431236267,1.9531890153884888,4.045894145965576,0.30006489157676697,-0.6938387751579285,0.39308229088783264,2.1722893714904785
86,69773,69771,-0.018746988847851753,0.003785734297707677,0.958379328250885,-4.207250118255615,-0.014974418096244335,-1.7703551054000854,1.9517234563827515,4.044394016265869,0.30047160387039185,-0.6296070218086243,0.5311230421066284,2.1941041946411133
87,69783,69781,-0.03270367532968521,0.08434274047613144,0.9700552225112915,-2.5760600566864014,-3.383521318435669,-1.313907504081726,1.9501800537109375,4.0443949699401855,0.3005295395851135,-0.5550504326820374,0.453851580619812,2.1781065464019775
88,69793,69791,0.004357463680207729,0.0633726641535759,0.9544002413749695,-1.715316653251648,-4.511481285095215,-0.9226875305175781,1.9498300552368164,4.044500350952148,0.2977379262447357,-0.5294645428657532,0.39679083228111267,2.1606950759887695
89,69803,69801,-0.022403445094823837,0.0893750861287117,1.0585967302322388,-3.4973809719085693,0.9026100039482117,-0.3387492299079895,1.9494764804840088,4.044320106506348,0.2976856529712677,-0.5410383939743042,0.3307282626628876,2.1445999145507812
90,69813,69811,-0.009377378970384598,0.03642357513308525,1.046022891998291,-6.261824131011963,11.677563667297363,-0.9049779772758484,1.9484915733337402,4.043001174926758,0.2976435124874115,-0.6217409372329712,0.22941555082798004,2.13128924369812
91,69823,69821,-0.016710365191102028,0.040412284433841705,1.026253581047058,-6.356381893157959,18.04779624938965,-1.7377177476882935,1.9495751857757568,4.043456077575684,0.2970817983150482,-0.9197443723678589,0.10411465167999268,2.098520040512085
92,69833,69831,-0.052248965948820114,0.17131900787353516,0.923385500907898,-7.273492813110352,24.904691696166992,-1.5844327211380005,1.9485936164855957,4.043089389801025,0.2971266508102417,-1.088067889213562,0.1348116099834442,2.102266788482666
93,69843,69841,-0.08505716919898987,0.2225930094718933,0.944542407989502,-5.4529829025268555,22.682104110717773,-1.9586737155914307,1.9490443468093872,4.042700290679932,0.2970564067363739,-1.4333795309066772,0.09188571572303772,2.0837643146514893
94,69853,69851,-0.015251644887030125,0.10719560086727142,0.9741857647895813,-2.593413829803467,15.154731750488281,-1.188481092453003,1.9488757848739624,4.043639659881592,0.29700618982315063,-1.605633020401001,0.008147474378347397,2.061725616455078
95,69863,69861,-0.020749319344758987,0.016318246722221375,1.0393065214157104,-0.703437864780426,6.544614315032959,-1.279808521270752,1.947613000869751,4.04344367980957,0.29862457513809204,-1.7097671031951904,-0.032953351736068726,2.044480085372925
96,69873,69871,-0.004292425699532032,-0.09946736693382263,1.0511085987091064,0.5298389792442322,-1.835099697113037,-0.8082975149154663,1.9461957216262817,4.043169975280762,0.298674613237381,-1.6634012460708618,0.034817781299352646,2.051030397415161
97,69883,69881,-0.009406543336808681,-0.07267332077026367,1.0392649173736572,0.9078574776649475,-3.5567452907562256,-0.9429783225059509,1.9443436861038208,4.04179573059082,0.29877346754074097,-1.4635411500930786,0.10752622038125992,2.061828374862671
98,69893,69891,-0.05399712175130844,0.0024896753020584583,1.0104973316192627,-1.460189938545227,-1.7501423358917236,-0.7691762447357178,1.943747639656067,4.04201078414917,0.29985707998275757,-1.4028371572494507,0.16259881854057312,2.0643506050109863
99,69903,69901,-0.011703966185450554,-0.020117808133363724,0.9823418855667114,-4.634604454040527,0.8571479320526123,-1.304288387298584,1.943858027458191,4.042322158813477,0.3000114858150482,-1.4117413759231567,0.07451500743627548,2.040883779525757
100,69913,69911,0.04597512260079384,-0.044548843055963516,1.0214632749557495,-6.5156426429748535,6.815062999725342,-1.0554211139678955,1.9426124095916748,4.0427703857421875,0.300187349319458,-1.4237045049667358,-0.050335802137851715,2.015298366546631
101,69923,69921,0.02485891990363598,-0.14283357560634613,0.9969971179962158,-8.096314430236816,9.906832695007324,-1.3179627656936646,1.9420552253723145,4.044009685516357,0.30181726813316345,-1.5821126699447632,-0.20195604860782623,1.9850519895553589
102,69933,69931,0.007544366642832756,-0.03869034722447395,1.0361560583114624,-6.882348537445068,10.910966873168945,-0.7950523495674133,1.9429842233657837,4.044389724731445,0.3020355999469757,-1.7641488313674927,-0.2605697810649872,1.9788165092468262
103,69943,69941,0.023612791672348976,0.012529231607913971,1.0027680397033691,-3.3548531532287598,10.850712776184082,-0.24367570877075195,1.942956566810608,4.0447773933410645,0.30223900079727173,-1.9504560232162476,-0.28004780411720276,1.981391429901123
104,69953,69951,0.02895512990653515,0.04223669692873955,1.0307328701019287,0.23892448842525482,7.214388370513916,-0.38245803117752075,1.9435200691223145,4.044142723083496,0.3024619519710541,-2.091135025024414,-0.24020344018936157,1.9929174184799194
105,69963,69961,0.01743176020681858,0.016566548496484756,1.004237413406372,2.690725326538086,1.3290157318115234,-0.9809896945953369,1.9418853521347046,4.043800354003906,0.29999735951423645,-2.1281888484954834,-0.23393090069293976,1.984525442123413
106,69973,69971,-0.000591324525885284,-0.016152136027812958,0.9543192386627197,2.4256234169006348,-4.619048118591309,-0.85367351770401,1.9395642280578613,4.041776180267334,0.3001537621021271,-2.061491012573242,-0.20693807303905487,1.9748440980911255
107,69983,69981,-0.019117310643196106,-0.01615794189274311,1.0102276802062988,1.6527591943740845,-9.083905220031738,-0.5454677939414978,1.9393914937973022,4.042291641235352,0.3003382086753845,-1.9124292135238647,-0.189873605966568,1.9654390811920166
108,69993,69991,0.027865512296557426,-0.015352300368249416,1.0125983953475952,-0.08002685010433197,-9.279378890991211,-1.4791079759597778,1.9367778301239014,4.0413336753845215,0.3005979359149933,-1.717429280281067,-0.12344249337911606,1.971717357635498
109,70003,70001,-0.017073025926947594,0.09471507370471954,0.9876831769943237,-3.124058723449707,-9.239035606384277,-1.0027889013290405,1.9380823373794556,4.041091442108154,0.3006693124771118,-1.8604193925857544,-0.18762482702732086,1.9535385370254517
110,70013,70011,0.019944606348872185,-0.034778449684381485,0.979100227355957,-5.264172077178955,-4.155258655548096,-0.45099180936813354,1.9371638298034668,4.038784027099609,0.3008289039134979,-1.7047966718673706,-0.19290584325790405,1.9525859355926514
111,70023,70021,-0.017768951132893562,-0.000980124925263226,0.9957603812217712,-5.6357855796813965,-0.39658457040786743,-0.5760864615440369,1.9362058639526367,4.0372419357299805,0.3022279441356659,-1.6087477207183838,-0.30130764842033386,1.9282145500183105
112,70033,70031,-0.006079519167542458,-0.0246281698346138,1.0627368688583374,-5.2835822105407715,1.6594833135604858,-0.3463771343231201,1.9364069700241089,4.038351535797119,0.3026237189769745,-1.5905085802078247,-0.4121716618537903,1.9073967933654785
113,70043,70041,0.09214136749505997,-0.08908868581056595,0.9632390737533569,-3.5091466903686523,5.459173679351807,0.14557421207427979,1.9367029666900635,4.039217472076416,0.3026421368122101,-1.6442370414733887,-0.42271095514297485,1.9174163341522217
114,70053,70051,0.06457744538784027,-0.07442862540483475,0.9867217540740967,-1.3692489862442017,2.6553399562835693,0.19225329160690308,1.937580943107605,4.0388922691345215,0.30346667766571045,-1.8283512592315674,-0.47580578923225403,1.917670726776123
115,70063,70061,0.05500466749072075,-0.2149507999420166,0.9879401326179504,1.3484805822372437,-2.2362332344055176,0.01766064018011093,1.9369028806686401,4.0389533042907715,0.30375927686691284,-1.7695480585098267,-0.47524234652519226,1.9152320623397827
116,70073,70071,-0.030147355049848557,-0.0905315950512886,1.0880587100982666,3.0318424701690674,-6.390975475311279,0.1568726897239685,1.9379780292510986,4.038557052612305,0.303951621055603,-1.795729637145996,-0.4404178261756897,1.9239625930786133
117,70083,70081,0.024532875046133995,-0.005849947687238455,0.9967166185379028,3.186889171600342,-9.319023132324219,0.11640289425849915,1.9386135339736938,4.0383501052856445,0.3041652739048004,-1.7558271884918213,-0.3955090343952179,1.933441162109375
118,70093,70091,-0.00968115497380495,0.004985537379980087,1.0212876796722412,2.7940926551818848,-10.452771186828613,0.09162416309118271,1.9365698099136353,4.0387959480285645,0.30189040303230286,-1.5118651390075684,-0.43730711936950684,1.9053336381912231
119,70103,70101,0.03082631714642048,-0.0047165220603346825,0.9944133162498474,2.0284690856933594,-7.227025508880615,-0.009620752185583115,1.9368585348129272,4.0378499031066895,0.3020625114440918,-1.3874179124832153,-0.316961407661438,1.9295878410339355
120,70113,70111,0.02928665280342102,0.0022424550261348486,1.00458562374115,2.245335102081299,-8.031463623046875,0.002167090540751815,1.9387239217758179,4.037802696228027,0.30209407210350037,-1.5821720361709595,-0.3679008483886719,1.9314085245132446
121,70123,70121,-0.044369250535964966,0.03579491749405861,0.9860119223594666,0.0979170873761177,-4.369997024536133,-0.0450541190803051,1.938058614730835,4.036601543426514,0.3005691468715668,-1.3919897079467773,-0.34877708554267883,1.9189223051071167
122,70133,70131,0.0027643449138849974,-0.07429075241088867,1.0224822759628296,-0.1713109314441681,-2.133976697921753,-0.8368681073188782,1.938643455505371,4.038067817687988,0.3005868196487427,-1.4217931032180786,-0.35208213329315186,1.9182066917419434
123,70143,70141,-0.013046511448919773,0.034752942621707916,1.0292423963546753,0.7570704221725464,-3.824274778366089,-0.9710486531257629,1.940218448638916,4.036435127258301,0.3006644546985626,-1.4205681085586548,-0.3482212424278259,1.91441011428833
124,70153,70151,7.287855260074139e-05,0.06938193738460541,1.034518837928772,3.305196523666382,-1.6606414318084717,-1.5158640146255493,1.9390262365341187,4.036546230316162,0.30214548110961914,-1.2800021171569824,-0.3149159252643585,1.8988465070724487
125,70163,70161,0.03887690603733063,-0.03823724761605263,0.9331077933311462,5.470192909240723,-6.265604019165039,-0.8114326596260071,1.9402167797088623,4.036261081695557,0.3023860454559326,-1.2025179862976074,-0.23546187579631805,1.8923810720443726
126,70173,70171,-0.01533881388604641,-0.02552088163793087,0.9979796409606934,6.383345603942871,-8.456304550170898,-0.1861424595117569,1.9410390853881836,4.037705898284912,0.30260154604911804,-1.1515246629714966,-0.3684031069278717,1.8457671403884888
127,70183,70181,-0.04213474690914154,0.07435207813978195,1.017591953277588,5.328627109527588,-7.205219268798828,0.7783302664756775,1.9407154321670532,4.037292003631592,0.30280300974845886,-1.0834572315216064,-0.24738697707653046,1.8622586727142334
128,70193,70191,0.014801065437495708,-0.005734254606068134,0.9958542585372925,5.009322643280029,-7.604791164398193,0.5034675598144531,1.9418948888778687,4.0369954109191895,0.30473434925079346,-1.0231038331985474,-0.14931322634220123,1.8803881406784058
129,70203,70201,-0.018980545923113823,-0.05700176954269409,1.017159104347229,4.435057640075684,-8.92746353149414,0.7523689866065979,1.9420099258422852,4.03619909286499,0.3049924075603485,-0.9498962163925171,-0.13918787240982056,1.879875659942627
130,70213,70211,0.017025282606482506,-0.15303005278110504,1.0100281238555908,3.5941991806030273,-4.463634967803955,-0.008013238199055195,1.9430674314498901,4.035113334655762,0.30523881316185,-0.911015510559082,-0.0641728937625885,1.8911570310592651
131,70223,70221,-0.02463301084935665,-0.03195923939347267,1.0130765438079834,3.5701699256896973,-4.873101234436035,-0.5018451809883118,1.9416604042053223,4.03286600112915,0.3050941228866577,-0.7242785096168518,0.00580040505155921,1.8831965923309326
132,70233,70231,0.06489567458629608,-0.0647890716791153,0.9167454242706299,1.6326409578323364,-0.16130873560905457,-0.8828991055488586,1.9437611103057861,4.03414249420166,0.3053261935710907,-0.8596428036689758,-0.1232554242014885,1.8723280429840088
133,70243,70241,0.10295450687408447,-0.01260331179946661,0.9324496388435364,-1.5332763195037842,1.2562140226364136,-0.8303807377815247,1.944077968597412,4.034971237182617,0.3056809902191162,-0.7326886653900146,-0.08287297934293747,1.8601707220077515
134,70253,70251,0.09123271703720093,-0.05253589525818825,0.9631940126419067,-1.5306642055511475,-0.8133581280708313,-1.5145392417907715,1.9446734189987183,4.035022258758545,0.3075922131538391,-0.7085574865341187,-0.08588025718927383,1.8499082326889038
135,70263,70261,-0.040002208203077316,0.03741510212421417,0.9984328150749207,-0.7063169479370117,-2.9984395503997803,-0.9763545393943787,1.9463804960250854,4.034316062927246,0.30774107575416565,-0.820807933807373,-0.09517234563827515,1.8453714847564697
136,70273,70271,0.017044417560100555,-0.041312020272016525,0.9575270414352417,0.2406676709651947,-2.0518739223480225,-1.3642833232879639,1.9459766149520874,4.033605575561523,0.3080621063709259,-0.6832568645477295,-0.09154733270406723,1.8325154781341553
137,70283,70281,0.014647696167230606,0.0031489802058786154,0.9656269550323486,0.657874584197998,-2.383690357208252,-0.981885552406311,1.9482861757278442,4.033498764038086,0.30810147523880005,-0.7692306041717529,-0.07196512818336487,1.8282161951065063
138,70293,70291,-0.007010947447270155,0.026054037734866142,1.000014305114746,2.592963933944702,-2.473153829574585,-0.9774978756904602,1.9481430053710938,4.034317970275879,0.3083121180534363,-0.6768081188201904,-0.03687899559736252,1.82315993309021
139,70303,70301,0.009238644503057003,-0.022691333666443825,0.9831401705741882,3.6763970851898193,-2.2796194553375244,0.15055888891220093,1.9496026039123535,4.034268379211426,0.3083951473236084,-0.6763115525245667,0.015325861051678658,1.8190504312515259
140,70313,70311,-0.02547352761030197,0.08242052793502808,1.0354737043380737,3.3144285678863525,-0.5477266311645508,-0.01878715306520462,1.9498622417449951,4.033667087554932,0.3085363805294037,-0.6210846900939941,0.0776292011141777,1.8177176713943481
141,70323,70321,-0.0390499122440815,0.0738091915845871,0.9949080944061279,1.8075132369995117,-0.20507623255252838,0.904653787612915,1.9522839784622192,4.0337324142456055,0.31002065539360046,-0.8192472457885742,0.050939444452524185,1.8209733963012695
142,70333,70331,0.006462483201175928,-0.10742945969104767,0.9686526656150818,0.7117435932159424,1.0736929178237915,-0.12410610914230347,1.9515299797058105,4.033722400665283,0.31039246916770935,-0.7074936628341675,0.01335450541228056,1.8207401037216187
143,70343,70341,-0.031037909910082817,0.09349782764911652,1.041768193244934,0.4702676236629486,-4.692041873931885,-0.6060757637023926,1.9505716562271118,4.032087326049805,0.31076231598854065,-0.5890234112739563,0.12096701562404633,1.8171988725662231
144,70353,70351,0.017956934869289398,-0.03008142299950123,0.9606109261512756,0.6901584267616272,-7.785744667053223,-0.8539689183235168,1.950852870941162,4.03243350982666,0.3137686252593994,-0.4945458471775055,0.1384316235780716,1.810775876045227
145,70363,70361,-0.024756411090493202,-0.030727164819836617,0.9902476668357849,-0.13322633504867554,-11.503569602966309,-0.5315348505973816,1.9529361724853516,4.032826900482178,0.31410276889801025,-0.5653759837150574,0.15413090586662292,1.8048758506774902
146,70373,70371,-0.029007291421294212,-0.06015213578939438,0.957491397857666,-3.2190299034118652,-9.99697208404541,0.08264723420143127,1.9523391723632812,4.0336689949035645,0.31466156244277954,-0.2863982617855072,0.06851889938116074,1.7937383651733398
147,70383,70381,0.014749418944120407,-0.06811954081058502,0.9901980757713318,-4.371975421905518,-10.387009620666504,0.2850646376609802,1.952566385269165,4.033234119415283,0.3170439600944519,-0.09930049628019333,0.10600995272397995,1.7907828092575073
148,70393,70391,0.07641854137182236,-0.16417190432548523,0.9773363471031189,-2.055891513824463,-9.518194198608398,0.13468073308467865,1.954099178314209,4.0334978103637695,0.31749045848846436,-0.07028058171272278,0.050501082092523575,1.7923307418823242
149,70403,70401,0.010358919389545918,-0.08165261894464493,1.0317288637161255,-0.2430858612060547,-6.464517593383789,0.897524356842041,1.9554810523986816,4.033132076263428,0.3179069757461548,-0.0650186538696289,0.01857888139784336,1.794806957244873
150,70413,70411,-0.007840374484658241,-0.09875810891389847,0.9807500243186951,2.8280625343322754,-0.7264939546585083,0.6807652115821838,1.9564223289489746,4.032827377319336,0.31845781207084656,0.04202638939023018,0.031182486563920975,1.8014317750930786
151,70423,70421,0.02360515296459198,-0.046288371086120605,0.9425792098045349,4.339416980743408,4.582850456237793,0.4056437313556671,1.9582678079605103,4.0332112312316895,0.3157249689102173,-0.0015505228657275438,0.08512411266565323,1.797709584236145
152,70433,70431,0.03530252352356911,0.0019057531608268619,0.9477943181991577,4.940568447113037,6.132289409637451,0.9017237424850464,1.9584980010986328,4.03242826461792,0.316022127866745,0.04715019464492798,0.08549884706735611,1.8055195808410645
153,70443,70441,0.05336950346827507,-0.03711060434579849,0.945121169090271,3.52512788772583,5.149343490600586,1.2780550718307495,1.9593333005905151,4.032434463500977,0.3162943124771118,0.057563912123441696,0.17310640215873718,1.8112678527832031
154,70453,70451,0.05252080038189888,-0.10904756188392639,0.9765551090240479,1.4516432285308838,2.0425684452056885,1.2208341360092163,1.960312843322754,4.032660007476807,0.31560954451560974,-0.07857132703065872,0.23339897394180298,1.8237621784210205
155,70463,70461,0.01226095762103796,-0.1270403414964676,1.0280399322509766,-2.8616368770599365,-0.18465358018875122,-0.37587451934814453,1.9608603715896606,4.032505512237549,0.31569135189056396,-0.0938601866364479,0.17053864896297455,1.832952857017517
156,70473,70471,0.03386574238538742,-0.1405198574066162,0.9246249794960022,-6.977180004119873,-1.6760761737823486,-1.1456726789474487,1.9604445695877075,4.032080173492432,0.3158213496208191,0.005784587003290653,0.12496825307607651,1.833081841468811
157,70483,70481,0.021905921399593353,-0.003629038343206048,0.9753028750419617,-7.838549613952637,-1.8710540533065796,-2.050041913986206,1.9622516632080078,4.0331220626831055,0.3145691454410553,-0.02096117101609707,0.025338592007756233,1.8270554542541504
158,70493,70491,0.0543825738132,0.07619128376245499,0.9264876246452332,-6.679543495178223,-0.16670872271060944,-2.807312250137329,1.9618498086929321,4.031721591949463,0.3145686686038971,0.04774664342403412,0.06920924037694931,1.8049482107162476
159,70503,70501,0.10515253990888596,0.01610468700528145,0.9045321345329285,-2.485393524169922,-0.30245837569236755,-4.018493175506592,1.9619218111038208,4.032606601715088,0.3144204318523407,0.09865407645702362,-0.029013408347964287,1.7832258939743042
160,70513,70511,0.03188952058553696,-0.02892066352069378,0.9917281270027161,0.8960883021354675,-0.2347506582736969,-4.751514434814453,1.9631683826446533,4.03192663192749,0.31406867504119873,-0.017502177506685257,-0.06426869332790375,1.742713451385498
161,70523,70521,0.016126278787851334,-0.057167019695043564,1.0017337799072266,4.297469615936279,-0.06091700494289398,-5.461239337921143,1.9628190994262695,4.031219482421875,0.3138112425804138,0.023404745385050774,-0.036584507673978806,1.6940587759017944
162,70533,70531,-0.027804220095276833,-0.006083607207983732,1.0253480672836304,6.9040985107421875,3.54526424407959,-5.261554718017578,1.9620355367660522,4.030457496643066,0.31355613470077515,0.10572881996631622,0.03995118662714958,1.639674425125122
163,70543,70541,-0.028398437425494194,-0.012950179167091846,0.9845216274261475,6.535810947418213,5.37559700012207,-5.390682220458984,1.9624214172363281,4.029874324798584,0.31330880522727966,0.13328300416469574,0.1434582769870758,1.5822336673736572
164,70553,70551,-0.009482601657509804,0.10602991282939911,0.9987433552742004,4.097140312194824,6.613814830780029,-4.553102970123291,1.963873028755188,4.030023574829102,0.3158316910266876,-0.03429197147488594,0.29677775502204895,1.4746496677398682
165,70563,70561,-0.0073095643892884254,0.05598148703575134,0.9887534976005554,-2.010354995727539,4.144446849822998,-4.397793292999268,1.963579773902893,4.030406951904297,0.3157816231250763,0.0097409812733531,0.2159457802772522,1.484312653541565
166,70573,70571,0.01016820315271616,-0.0574384368956089,0.98055100440979,-7.253969669342041,0.765232503414154,-4.3670477867126465,1.9644955396652222,4.030848503112793,0.31568822264671326,-0.04278784245252609,0.1820603311061859,1.441860556602478
167,70583,70581,0.022842692211270332,-0.0327548086643219,0.9580910801887512,-15.485910415649414,-9.942758560180664,-4.813060283660889,1.9634912014007568,4.03075647354126,0.3168296217918396,0.07145813852548599,0.11232445389032364,1.4069972038269043
168,70593,70591,-0.007966131903231144,-0.01545153371989727,0.9928860664367676,-22.5131778717041,-14.43820858001709,-5.794493198394775,1.9632279872894287,4.030372142791748,0.3167997896671295,0.35389235615730286,-0.200382798910141,1.2945549488067627
169,70603,70601,0.04648887366056442,-0.027369696646928787,0.9718201160430908,-23.034299850463867,-15.17441463470459,-6.080959320068359,1.964656114578247,4.028153419494629,0.31673598289489746,0.2200857400894165,-0.12693189084529877,1.284685492515564
170,70613,70611,0.05468239635229111,-0.07591702789068222,0.9773248434066772,-17.409103393554688,-11.790960311889648,-6.617856979370117,1.965227723121643,4.029455661773682,0.31660765409469604,0.5335479974746704,-0.7019781470298767,1.1773403882980347
171,70623,70621,0.03217774257063866,0.019366484135389328,1.046849250793457,-8.851174354553223,-3.8231406211853027,-7.415420055389404,1.9662251472473145,4.029547691345215,0.3158988058567047,0.5014889240264893,-0.6993908882141113,1.1768643856048584
172,70633,70631,0.044309478253126144,0.08368466049432755,1.0238597393035889,-0.04266175255179405,4.021915912628174,-7.729693412780762,1.9663363695144653,4.028329372406006,0.3158656656742096,0.6442673206329346,-0.7217174172401428,1.0124722719192505
173,70643,70641,0.010527998208999634,0.0969347208738327,1.065597414970398,8.090989112854004,6.2643842697143555,-7.704735279083252,1.9672281742095947,4.027185440063477,0.3157995939254761,0.5958982110023499,-0.6090405583381653,0.9981181025505066
174,70653,70651,-0.03241592273116112,0.030382486060261726,0.9782552719116211,12.370174407958984,13.636845588684082,-8.151900291442871,1.9675647020339966,4.026968479156494,0.31759628653526306,0.5435958504676819,-0.5657855272293091,0.922836184501648
175,70663,70661,-0.03869488835334778,0.09924369305372238,0.9795377850532532,9.740330696105957,9.21747875213623,-6.582658290863037,1.9682912826538086,4.025667190551758,0.3176496922969818,0.4183588922023773,-0.45145270228385925,0.8391990065574646
176,70673,70671,0.015895748510956764,-0.009035701863467693,1.0027992725372314,3.2557907104492188,9.69275951385498,-7.3763957023620605,1.9682739973068237,4.026083469390869,0.31768614053726196,0.2946012318134308,-0.31595972180366516,0.7626681923866272
177,70683,70681,0.014343171380460262,-0.05893322080373764,1.0506316423416138,-0.6423106789588928,5.621876239776611,-7.286916732788086,1.968179702758789,4.025398254394531,0.319204181432724,0.20669719576835632,-0.27674317359924316,0.6826082468032837
178,70693,70691,-0.0069208466447889805,0.015266472473740578,1.0494416952133179,-2.7885351181030273,0.5460899472236633,-7.07778787612915,1.9670523405075073,4.024456024169922,0.31941312551498413,0.1937883049249649,-0.30289357900619507,0.601921021938324
179,70703,70701,0.0024817916564643383,-0.04193410277366638,1.0181883573532104,-1.9316800832748413,-0.38098618388175964,-6.782767295837402,1.967309832572937,4.025540351867676,0.31960707902908325,0.16131867468357086,-0.3510689437389374,0.5582899451255798
180,70713,70711,-0.04099378362298012,-0.0034818851854652166,1.0250540971755981,1.3941408395767212,-3.045165538787842,-6.00528621673584,1.9664530754089355,4.024735927581787,0.32159239053726196,0.16082605719566345,-0.3765731453895569,0.4841150939464569
181,70723,70721,-0.05187053605914116,0.010712740011513233,1.0204951763153076,4.40363883972168,-1.6053229570388794,-5.419682025909424,1.9647067785263062,4.023244857788086,0.32203128933906555,0.24583226442337036,-0.3532107472419739,0.41991716623306274
182,70733,70731,-0.07610421627759933,-0.010335232131183147,1.0528050661087036,5.7486748695373535,6.007579803466797,-5.0087809562683105,1.9644790887832642,4.022871017456055,0.32243475317955017,0.2693201005458832,-0.282533198595047,0.3668390214443207
183,70743,70741,-0.04082747921347618,0.015564617700874805,1.0658499002456665,5.974399089813232,5.388398170471191,-4.857550144195557,1.9650046825408936,4.023891925811768,0.32290005683898926,0.215726837515831,-0.34534844756126404,0.3233864903450012
184,70753,70751,-0.049759358167648315,0.027225995436310768,1.0989891290664673,3.3197250366210938,11.526989936828613,-5.461080074310303,1.96458899974823,4.023111343383789,0.32061776518821716,0.11121812462806702,-0.2541581988334656,0.285421758890152
185,70763,70761,-0.017038792371749878,-0.02860918641090393,0.99745774269104,2.1816294193267822,7.782894611358643,-5.207162857055664,1.9652940034866333,4.022124767303467,0.32099753618240356,-0.020361166447401047,-0.19624002277851105,0.228311225771904
186,70773,70771,-0.011200232431292534,-0.10023106634616852,0.9745321869850159,2.2349493503570557,8.49453353881836,-5.487710475921631,1.9656260013580322,4.023686408996582,0.32141050696372986,-0.1295253336429596,-0.23206140100955963,0.18048807978630066
187,70783,70781,0.012486180290579796,-0.09772789478302002,0.9453585147857666,4.1641764640808105,10.058753967285156,-6.318348407745361,1.965303659439087,4.023712158203125,0.3205593228340149,-0.13848014175891876,-0.17570897936820984,0.1343027800321579
188,70793,70791,0.04925035312771797,0.03893274441361427,0.8861930966377258,5.877612113952637,6.137327194213867,-5.746273040771484,1.9660577774047852,4.024806022644043,0.3208634853363037,-0.22215694189071655,-0.175008624792099,0.0774063840508461
189,70803,70801,0.033029042184352875,-0.04317605867981911,0.9123790860176086,9.055910110473633,7.266218662261963,-6.121708869934082,1.9664679765701294,4.024890422821045,0.3210522532463074,-0.3659459054470062,-0.12916891276836395,0.025160232558846474
190,70813,70811,0.02798072248697281,-0.0407378152012825,0.9220196604728699,12.346575736999512,10.300312995910645,-6.456328868865967,1.9677382707595825,4.024895191192627,0.32113540172576904,-0.4406682550907135,-0.029182128608226776,-0.030862221494317055
191,70823,70821,0.025742461904883385,-0.007037901319563389,0.9154974818229675,15.24567985534668,11.170080184936523,-7.158292293548584,1.9680041074752808,4.0252532958984375,0.3211871385574341,-0.5543097853660583,0.12393242865800858,-0.09471522271633148
192,70833,70831,0.03185340017080307,0.14870037138462067,0.909103274345398,13.106603622436523,8.353734016418457,-7.486536979675293,1.9690794944763184,4.0250773429870605,0.32118988037109375,-0.6761119365692139,0.2958308458328247,-0.16463418304920197
193,70843,70841,0.019302330911159515,0.2025049775838852,0.9803354740142822,8.397306442260742,1.8216394186019897,-7.42343282699585,1.9684468507766724,4.024857044219971,0.3212229013442993,-0.7429032325744629,0.42511093616485596,-0.24034900963306427
194,70853,70851,-0.015529900789260864,0.1630469411611557,0.9843646883964539,3.6064467430114746,-4.242830276489258,-6.642919540405273,1.9687254428863525,4.025268077850342,0.32145005464553833,-0.710645854473114,0.4784204661846161,-0.311699777841568
195,70863,70861,-0.020675914362072945,0.08356970548629761,0.953938901424408,-0.1605687141418457,-5.621861457824707,-5.405909538269043,1.9684441089630127,4.025230884552002,0.32139506936073303,-0.6040172576904297,0.536206066608429,-0.3859460949897766
196,70873,70871,0.0785946175456047,-0.03328618407249451,0.9308257699012756,-1.8093078136444092,-4.853087425231934,-5.513038158416748,1.968381643295288,4.024656295776367,0.321365088224411,-0.47946643829345703,0.532631516456604,-0.4441964626312256
197,70883,70881,0.008188886567950249,-0.02221468649804592,0.9468668699264526,-0.8572022318840027,-0.8492093086242676,-5.613879680633545,1.9697463512420654,4.023981094360352,0.32251402735710144,-0.5368386507034302,0.5070128440856934,-0.5149083733558655
198,70893,70891,0.009557577781379223,-0.008752896450459957,0.9778884649276733,2.8774969577789307,2.300631046295166,-5.038585186004639,1.969804048538208,4.023574352264404,0.3223959803581238,-0.4777221977710724,0.5050638318061829,-0.5717641711235046
199,70903,70901,0.02309962920844555,-0.11957700550556183,1.0042216777801514,10.394035339355469,3.337907314300537,-3.802138566970825,1.9695621728897095,4.02339506149292,0.32223397493362427,-0.4643005430698395,0.5807557702064514,-0.6138248443603516
200,70913,70911,0.03181638568639755,-0.13212499022483826,1.0132148265838623,13.344569206237793,2.82795786857605,-2.123234272003174,1.9699749946594238,4.023582935333252,0.32004496455192566,-0.6157631874084473,0.5106028318405151,-0.6626883149147034
201,70923,70921,0.007773403078317642,-0.09267138689756393,0.9736114144325256,13.468657493591309,4.348354816436768,-1.3067965507507324,1.9692869186401367,4.024478435516357,0.3198038339614868,-0.5340892672538757,0.7481926679611206,-0.6659980416297913
202,70933,70931,0.037281617522239685,-0.07949694246053696,0.9811061024665833,9.685491561889648,4.310512542724609,-0.038460999727249146,1.9698899984359741,4.023033142089844,0.3194428086280823,-0.6367513537406921,0.8808285593986511,-0.69928377866745
203,70943,70941,-0.015727445483207703,0.00045307516120374203,1.028085708618164,4.110027313232422,7.42422342300415,0.627869188785553,1.969368577003479,4.022497177124023,0.31913530826568604,-0.6664111018180847,1.0270137786865234,-0.7021387219429016
204,70953,70951,0.031015850603580475,0.10335240513086319,0.9896382093429565,-0.7494274377822876,6.008330345153809,1.252541422843933,1.9695100784301758,4.022885799407959,0.320169061422348,-0.724753737449646,0.916278064250946,-0.7105575799942017
205,70963,70961,0.0030588738154619932,-0.013452040031552315,0.9708716869354248,-5.924564838409424,5.310832977294922,1.6881922483444214,1.9694340229034424,4.023096084594727,0.31988272070884705,-0.7770782709121704,0.8875797986984253,-0.7028055787086487
206,70973,70971,-0.030905110761523247,0.017747366800904274,1.0049506425857544,-11.308609962463379,1.2028579711914062,1.5138710737228394,1.9698436260223389,4.022103786468506,0.3195575475692749,-0.8708372712135315,0.8522523641586304,-0.6889716386795044
207,70983,70981,-0.038375213742256165,0.09103424847126007,1.0090932846069336,-14.1172456741333,-2.6899375915527344,2.2109580039978027,1.970167875289917,4.021556377410889,0.3202134966850281,-0.8165375590324402,0.8174449801445007,-0.6630622744560242
208,70993,70991,-0.006875678431242704,-0.04547513648867607,0.9730110168457031,-12.955683708190918,-2.779960870742798,3.1748757362365723,1.9706207513809204,4.021144390106201,0.31991803646087646,-0.8013378977775574,0.7384123206138611,-0.6410880088806152
209,71003,71001,0.007012497633695602,-0.11403725296258926,1.0113285779953003,-7.514350414276123,-1.584423542022705,3.782863140106201,1.9722707271575928,4.0213494300842285,0.31957629323005676,-0.8638172745704651,0.5268352031707764,-0.636350691318512
210,71013,71011,-0.03306689113378525,-0.03264804556965828,1.0682293176651,-1.4138095378875732,0.19274193048477173,4.647305965423584,1.9738281965255737,4.021537780761719,0.31977787613868713,-0.9459536075592041,0.40686139464378357,-0.6121421456336975
211,71023,71021,-0.054382454603910446,0.1440066397190094,1.0338139533996582,4.868378639221191,2.8987061977386475,5.46183967590332,1.9734044075012207,4.022005081176758,0.3195967972278595,-0.8919435143470764,0.3941550552845001,-0.5450654029846191
212,71033,71031,-0.08033864945173264,0.1910601258277893,1.0167226791381836,8.20472240447998,7.366156101226807,6.185196876525879,1.9739075899124146,4.020678997039795,0.31944912672042847,-0.8970958590507507,0.4745483994483948,-0.48874279856681824
213,71043,71041,-0.021270612254738808,-0.05003863945603371,1.0077409744262695,8.732512474060059,8.790787696838379,6.928954124450684,1.9733216762542725,4.020357608795166,0.3182401657104492,-0.9472388625144958,0.6013317108154297,-0.4210774004459381
214,71053,71051,0.024824177846312523,0.1870526373386383,0.9463564157485962,4.699831008911133,7.754566192626953,7.446846961975098,1.9728766679763794,4.02007532119751,0.3180280923843384,-1.0153405666351318,0.7163437008857727,-0.34218907356262207
215,71063,71061,0.03617941960692406,0.03990933671593666,0.9709460735321045,-0.7858874797821045,0.8140477538108826,7.176950931549072,1.973785161972046,4.019668102264404,0.3177778422832489,-1.1265742778778076,0.7580854892730713,-0.2715512216091156
216,71073,71071,0.017801938578486443,-0.0018586900550872087,1.0244663953781128,-7.057368755340576,-3.4940743446350098,7.104946136474609,1.974700689315796,4.02055549621582,0.3175590932369232,-1.147801160812378,0.7074998617172241,-0.20445336401462555
217,71083,71081,-0.0011701863259077072,-0.02429608814418316,0.9682644605636597,-12.845268249511719,-5.490145206451416,7.301910877227783,1.974859356880188,4.019664287567139,0.31610456109046936,-1.0804567337036133,0.7171309590339661,-0.11587492376565933
218,71093,71091,0.021282952278852463,-0.05242954194545746,0.9146866798400879,-18.512847900390625,-7.693581581115723,7.9571638107299805,1.9763462543487549,4.019359588623047,0.31568628549575806,-1.1113653182983398,0.6176373362541199,-0.05106166750192642
219,71103,71101,0.07117138803005219,-0.0998251885175705,0.9358823895454407,-21.077547073364258,-11.494392395019531,7.558381080627441,1.9771409034729004,4.019400119781494,0.3154061436653137,-0.9316620826721191,0.43439197540283203,0.03128746896982193
220,71113,71111,0.02841922454535961,-0.17354346811771393,1.012346863746643,-18.034353256225586,-11.709319114685059,7.3719892501831055,1.9788416624069214,4.017568111419678,0.3152162432670593,-0.9609946608543396,0.38274556398391724,0.10674183815717697
221,71123,71121,-0.0027472192887216806,0.005211947485804558,0.9912038445472717,-10.441821098327637,-10.766594886779785,7.286156177520752,1.9795949459075928,4.017797946929932,0.31489330530166626,-0.7458638548851013,0.06393447518348694,0.1649104654788971
222,71133,71131,0.021061653271317482,-0.07056599110364914,0.9758033156394958,-2.519087314605713,-4.017129421234131,7.6034626960754395,1.9803414344787598,4.015532493591309,0.31447863578796387,-0.5903781652450562,0.11385627090930939,0.2443092316389084
223,71143,71141,0.015904176980257034,0.055139247328042984,0.9954602122306824,2.3581349849700928,-1.1809289455413818,7.28126859664917,1.9806067943572998,4.014957904815674,0.31401386857032776,-0.5173860788345337,0.03883371874690056,0.31847891211509705
224,71153,71151,0.011279089376330376,-0.03951636329293251,0.9903750419616699,1.3311656713485718,-1.8308454751968384,6.65478515625,1.9819211959838867,4.014834403991699,0.31335049867630005,-0.712178111076355,0.02660534717142582,0.38746270537376404
225,71163,71161,0.05943583697080612,-0.0857275202870369,0.996711015701294,-4.722344398498535,0.7114042043685913,4.300670623779297,1.9825387001037598,4.0150909423828125,0.3128839135169983,-0.6817684769630432,-0.020151983946561813,0.45007050037384033
226,71173,71171,0.023005306720733643,-0.039305660873651505,1.0324623584747314,-11.298410415649414,-1.030257225036621,2.9644339084625244,1.9832313060760498,4.015113353729248,0.312331885099411,-0.7391813397407532,-0.08062005043029785,0.5026032328605652
227,71183,71181,-0.03873547911643982,0.01796673610806465,0.9988068342208862,-16.415603637695312,-2.5303659439086914,1.9632045030593872,1.9828203916549683,4.013797760009766,0.3125346302986145,-0.6034166812896729,-0.16479070484638214,0.5340969562530518
228,71193,71191,-0.002304461318999529,0.12581557035446167,1.0740197896957397,-15.061841011047363,-7.930152416229248,1.456115484237671,1.98387610912323,4.014246940612793,0.31208547949790955,-0.5928815603256226,-0.30966049432754517,0.565300703048706
229,71203,71201,0.021403543651103973,0.024572251364588737,1.0412715673446655,-8.91457748413086,-12.874634742736816,-0.14883457124233246,1.98375403881073,4.010946750640869,0.3114858865737915,-0.6587792038917542,-0.34658393263816833,0.5603238940238953
230,71213,71211,-0.024333905428647995,0.025868995115160942,1.0823978185653687,-1.4615206718444824,-16.10531234741211,-0.8695480823516846,1.9844374656677246,4.010843276977539,0.3139309287071228,-0.48147618770599365,-0.5162104964256287,0.5595334768295288
231,71223,71221,-0.04209780693054199,-0.04018557444214821,1.0385850667953491,2.4011757373809814,-19.745166778564453,-0.2708238959312439,1.9860767126083374,4.008426666259766,0.31375131011009216,-0.4076754152774811,-0.4188743829727173,0.5486647486686707
232,71233,71231,-0.014570550061762333,-0.0421619787812233,1.01192307472229,1.3403844833374023,-19.830991744995117,0.024316906929016113,1.9854809045791626,4.007423400878906,0.3138501048088074,-0.05449273809790611,-0.43614616990089417,0.5277811884880066
233,71243,71241,-0.007968762889504433,-0.05271685868501663,1.0375100374221802,-5.912684917449951,-13.444585800170898,-2.8752551078796387,1.986693263053894,4.007503986358643,0.3121945858001709,0.10484471917152405,-0.49227842688560486,0.5242489576339722
234,71253,71251,-0.03447426110506058,0.04679349064826965,1.010990858078003,-17.26587677001953,-0.6570060849189758,-5.143769264221191,1.9889246225357056,4.006167888641357,0.3120109736919403,0.08182816207408905,-0.5244595408439636,0.4895215928554535
235,71263,71261,0.012187687680125237,-0.12327728420495987,1.002780795097351,-23.530696868896484,10.35024356842041,-7.569402694702148,1.9895541667938232,4.006231784820557,0.31199076771736145,0.20165801048278809,-0.7125239372253418,0.4460395574569702
236,71273,71271,0.02472982183098793,-0.12761561572551727,1.0141656398773193,-24.054407119750977,11.277565956115723,-8.405635833740234,1.9900357723236084,4.007195949554443,0.3119172155857086,0.15858569741249084,-1.0594664812088013,0.37936365604400635
237,71283,71281,-0.033996932208538055,0.10098065435886383,1.0152419805526733,-22.03876495361328,11.671455383300781,-8.567767143249512,1.9913499355316162,4.006263732910156,0.3111499845981598,-0.005597472656518221,-1.243996500968933,0.2796514928340912
238,71293,71291,-0.027738751843571663,-0.050097767263650894,1.0397034883499146,-11.850164413452148,5.002074241638184,-9.021798133850098,1.9914360046386719,4.004766464233398,0.31119129061698914,-0.054125167429447174,-1.439868688583374,0.1853710561990738
239,71303,71301,-0.0034101828932762146,-0.000819134118501097,1.052646279335022,-3.3446435928344727,-3.602215051651001,-8.829103469848633,1.991551399230957,4.002964973449707,0.3113308548927307,-0.009821598418056965,-1.489465594291687,0.06192474067211151
240,71313,71311,-0.0050117336213588715,0.06823515146970749,1.0202783346176147,4.615020275115967,-5.172995090484619,-9.41480541229248,1.9920825958251953,4.00134801864624,0.31332284212112427,0.05395646020770073,-1.3933382034301758,-0.03802206367254257
241,71323,71321,0.015618965029716492,0.06054460629820824,0.9945282340049744,10.69243049621582,-7.010264873504639,-9.025010108947754,1.9909932613372803,4.000380516052246,0.31353941559791565,0.24388720095157623,-1.3359452486038208,-0.14614716172218323
242,71333,71331,-0.02013392373919487,-0.002189135178923607,0.9826788902282715,10.684057235717773,-2.74296498298645,-9.418734550476074,1.9933218955993652,4.000330448150635,0.31365421414375305,0.11984436213970184,-1.2816613912582397,-0.21995584666728973
243,71343,71341,0.005732330959290266,0.14190633594989777,0.9028635025024414,6.374321460723877,-0.9130138158798218,-9.300190925598145,1.9936949014663696,3.999380111694336,0.31107476353645325,0.19051848351955414,-1.1572264432907104,-0.30911126732826233
244,71353,71351,0.013209971599280834,0.02856672741472721,0.9287088513374329,0.9912078976631165,2.6646862030029297,-9.848642349243164,1.9944696426391602,4.000463485717773,0.311023086309433,0.20339207351207733,-1.180209994316101,-0.3822205662727356
245,71363,71361,-0.012121607549488544,0.006470175925642252,1.0226995944976807,-3.6900503635406494,4.605666160583496,-10.16002082824707,1.9946999549865723,4.001337051391602,0.3109234571456909,0.25379979610443115,-1.2798502445220947,-0.48353585600852966
246,71373,71371,0.00032610056223347783,-0.09106657654047012,0.9937797784805298,-5.162405014038086,5.86984920501709,-9.772361755371094,1.998104453086853,4.000726699829102,0.3113749921321869,-0.04542648792266846,-1.2723015546798706,-0.5471852421760559
247,71383,71381,0.024027453735470772,-0.23115064203739166,0.9580488204956055,-4.554972171783447,6.750338554382324,-9.394580841064453,1.9983348846435547,4.0007429122924805,0.31129416823387146,-0.029023416340351105,-1.3688645362854004,-0.6570279598236084
248,71393,71391,0.014813514426350594,0.009657134301960468,1.0379441976547241,-2.0190656185150146,1.418283462524414,-8.157356262207031,1.9986835718154907,4.00073766708374,0.3112041652202606,-0.01023700088262558,-1.4477649927139282,-0.767518162727356
249,71403,71401,-0.004632082302123308,0.054733697324991226,1.0365488529205322,0.932847797870636,-0.22595039010047913,-9.288508415222168,1.9995218515396118,4.000038146972656,0.3110111653804779,-0.09085685759782791,-1.402137279510498,-0.8482435345649719
250,71413,71411,-0.011649337597191334,-0.05346594378352165,0.9752296805381775,6.728580474853516,-5.329867362976074,-8.739020347595215,1.9999064207077026,3.9993093013763428,0.3108725845813751,-0.020768437534570694,-1.36314058303833,-0.9606688022613525
251,71423,71421,0.038520410656929016,-0.08079618215560913,0.9575179219245911,14.986910820007324,-4.553980827331543,-8.437466621398926,2.0012693405151367,3.9993231296539307,0.31074973940849304,0.0144515885040164,-1.2184436321258545,-1.0300047397613525
252,71433,71431,0.03213919326663017,0.018713055178523064,0.9801075458526611,15.176441192626953,-5.42194938659668,-8.009185791015625,2.000443458557129,3.999577045440674,0.3107481300830841,0.21837438642978668,-1.1529741287231445,-1.1502983570098877
253,71443,71441,-0.004622557200491428,0.042373187839984894,1.0083682537078857,9.128924369812012,-3.0688283443450928,-6.7096428871154785,2.001119613647461,3.999523639678955,0.311029851436615,0.2515711188316345,-1.0090943574905396,-1.207964301109314
254,71453,71451,0.004375952761620283,-0.07019904255867004,1.004217267036438,4.096413612365723,2.7886855602264404,-5.917105197906494,2.0030081272125244,3.9998791217803955,0.31083396077156067,0.22904342412948608,-0.9429422616958618,-1.2457287311553955
255,71463,71461,0.03122907131910324,-0.14478912949562073,0.9715414047241211,3.1342294216156006,7.6585187911987305,-6.908044815063477,2.002723455429077,4.000678539276123,0.3106980323791504,0.27908965945243835,-0.9427467584609985,-1.313225507736206
256,71473,71471,0.01083952747285366,-0.09715279936790466,0.9958776831626892,4.2298712730407715,3.655932903289795,-5.697361946105957,2.004037380218506,4.001584053039551,0.310947060585022,0.13436630368232727,-0.9464266896247864,-1.3436096906661987
257,71483,71481,-0.021446123719215393,-0.013266258873045444,1.0264129638671875,9.129619598388672,1.8712871074676514,-5.0173444747924805,2.0037569999694824,4.001087665557861,0.31087806820869446,0.17180049419403076,-0.8357030749320984,-1.424673080444336
258,71493,71491,-0.014118460938334465,-0.09749196469783783,0.9758676290512085,10.241532325744629,-0.5966495871543884,-4.193965435028076,2.0053961277008057,4.002197742462158,0.3106882870197296,0.09237655252218246,-0.7597464323043823,-1.4393393993377686
259,71503,71501,-0.004951632581651211,-0.14890295267105103,1.0386706590652466,10.805542945861816,-2.6644842624664307,-3.748105525970459,2.0052154064178467,4.002316951751709,0.31064674258232117,0.20943503081798553,-0.7156022191047668,-1.4887045621871948
260,71513,71511,-0.020472755655646324,-0.20047912001609802,1.0817224979400635,9.704038619995117,1.2323756217956543,-3.5958199501037598,2.0061140060424805,4.004281997680664,0.30850857496261597,0.15542824566364288,-0.6710612773895264,-1.4987480640411377
261,71523,71521,-0.08639161288738251,-0.08115441352128983,1.1064432859420776,5.671642303466797,1.4112435579299927,-3.5500595569610596,2.0053601264953613,4.003964424133301,0.3084093928337097,0.24719445407390594,-0.5552080273628235,-1.5550082921981812
262,71533,71531,-0.02784101292490959,0.006075491663068533,1.052496075630188,0.10693567991256714,4.474463939666748,-3.603200674057007,2.005598306655884,4.005303382873535,0.3083774149417877,0.22385567426681519,-0.6115233898162842,-1.576759696006775
263,71543,71541,-0.007499050814658403,0.004828192759305239,1.049198031425476,0.20649495720863342,-0.14143027365207672,-3.3742828369140625,2.005824327468872,4.0060906410217285,0.3082670569419861,0.24913685023784637,-0.642851710319519,-1.6157985925674438
264,71553,71551,-0.050427164882421494,-0.050782978534698486,1.1269266605377197,2.608381748199463,1.4089096784591675,-4.237863063812256,2.006284713745117,4.005083084106445,0.30833908915519714,0.20486386120319366,-0.5776200890541077,-1.6838504076004028
265,71563,71561,-0.042335011065006256,-0.10544004291296005,1.1015455722808838,8.391003608703613,7.0125017166137695,-5.043216228485107,2.0054659843444824,4.004508018493652,0.30863505601882935,0.2866494357585907,-0.4574505090713501,-1.7537636756896973
266,71573,71571,-0.03616023808717728,-0.016175024211406708,1.0838853120803833,13.428386688232422,9.287240982055664,-5.640607833862305,2.0074219703674316,4.005430221557617,0.31070154905319214,0.14526213705539703,-0.40387800335884094,-1.7941176891326904
267,71583,71581,-0.032555390149354935,0.11008712649345398,1.043466329574585,15.335455894470215,9.38773250579834,-6.1722636222839355,2.00846791267395,4.005464553833008,0.3111034333705902,-0.023540452122688293,-0.277672678232193,-1.8418344259262085
268,71593,71591,-0.0548369437456131,0.10086430609226227,1.0699506998062134,13.24956226348877,9.964075088500977,-5.952658653259277,2.0090012550354004,4.00567102432251,0.31159356236457825,-0.12619346380233765,-0.06181299686431885,-1.8960661888122559
269,71603,71601,-0.029995765537023544,0.05734033137559891,1.0868586301803589,8.478869438171387,8.221960067749023,-7.85703706741333,2.008474588394165,4.006620407104492,0.31255701184272766,-0.08046656101942062,-0.06030947342514992,-1.9557310342788696
270,71613,71611,-0.020325882360339165,-0.03480202332139015,1.0605337619781494,3.2492563724517822,4.537650108337402,-8.545181274414062,2.008603096008301,4.008114337921143,0.3132011294364929,-0.15016235411167145,0.034445878118276596,-2.024228572845459
271,71623,71621,-0.007834024727344513,-0.03177861124277115,1.0355316400527954,-0.4990975856781006,0.25562813878059387,-10.028348922729492,2.008800745010376,4.008833408355713,0.3139149248600006,-0.14870277047157288,0.0339747816324234,-2.122408151626587
272,71633,71631,-0.016678621992468834,0.053952090442180634,1.0353894233703613,-1.1713824272155762,-3.365119218826294,-10.897212982177734,2.008399486541748,4.007857322692871,0.3146847188472748,-0.1645842343568802,0.06350353360176086,-2.2372844219207764
273,71643,71641,-0.04369350150227547,0.08377125859260559,1.0479367971420288,-0.8932266235351562,-1.8723164796829224,-10.751715660095215,2.0091938972473145,4.008899211883545,0.3152739107608795,-0.16876927018165588,0.001403744681738317,-2.348942756652832
274,71653,71651,-0.06061653420329094,0.03276117146015167,1.0705740451812744,0.41827309131622314,4.192611217498779,-10.714827537536621,2.010535955429077,4.0086445808410645,0.31610238552093506,-0.28507760167121887,-0.021129772067070007,-2.488483190536499
275,71663,71661,0.010060332715511322,-0.013260278850793839,0.9780591726303101,5.323034286499023,5.086919784545898,-10.625482559204102,2.010613203048706,4.008056640625,0.31704533100128174,-0.32084381580352783,0.07081261277198792,-2.6082303524017334
276,71673,71671,-0.005345707293599844,-0.107434943318367,1.0372538566589355,9.214743614196777,7.851241588592529,-11.962620735168457,2.010850429534912,4.006674289703369,0.3179331421852112,-0.35763412714004517,0.22901083528995514,-2.7414186000823975
277,71683,71681,0.005449958145618439,-0.11631330847740173,0.9696565866470337,11.234667778015137,7.560449123382568,-12.015915870666504,2.0108208656311035,4.00887393951416,0.31889280676841736,-0.33243104815483093,0.12167196720838547,-2.862037181854248
278,71693,71691,-0.01666964963078499,-0.0189212579280138,0.9084770679473877,11.522850036621094,7.30709171295166,-11.767565727233887,2.0106260776519775,4.008756160736084,0.3197214603424072,-0.3855690658092499,0.21725261211395264,-2.987672805786133
279,71703,71701,-0.03591276332736015,0.07690319418907166,0.9123602509498596,12.421405792236328,4.5167741775512695,-10.69631576538086,2.011392593383789,4.008007526397705,0.31854772567749023,-0.500490665435791,0.47598347067832947,-3.1201376914978027
280,71713,71711,0.006658502388745546,-0.10581705719232559,0.8719015717506409,11.899958610534668,3.6787352561950684,-9.719076156616211,2.0121121406555176,4.010074615478516,0.31907230615615845,-0.5914527773857117,0.5025211572647095,-3.1785731315612793
281,71723,71721,0.007192148827016354,0.000741027295589447,0.9758458733558655,12.974645614624023,3.7183737754821777,-8.60483169555664,2.0140435695648193,4.0100555419921875,0.31942540407180786,-0.7609055042266846,0.610907256603241,-3.3006839752197266
282,71733,71731,0.012028521858155727,-0.05954742431640625,0.9989653825759888,12.057560920715332,5.046509742736816,-7.517160415649414,2.013087511062622,4.008610725402832,0.3200245201587677,-0.690122663974762,0.8686863780021667,-3.401165246963501
283,71743,71741,0.029425766319036484,-0.12572820484638214,0.9754319787025452,11.71818733215332,8.198638916015625,-8.03940200805664,2.012855291366577,4.009018898010254,0.31974929571151733,-0.7186121940612793,0.8681217432022095,-3.4977922439575195
284,71753,71751,0.03712541610002518,-0.09210081398487091,0.8806769251823425,4.837268352508545,11.569665908813477,-7.795725345611572,2.0117461681365967,4.009954452514648,0.3202303647994995,-0.6151328086853027,0.9042081236839294,-3.569730520248413
285,71763,71761,0.02347610704600811,0.034289948642253876,0.8975127339363098,0.5615370273590088,7.422155380249023,-6.7534990310668945,2.0118610858917236,4.011788368225098,0.3204372227191925,-0.7060617208480835,0.8587560653686523,-3.6251769065856934
286,71773,71771,0.04877469316124916,0.16374729573726654,0.9519623517990112,-1.0756291151046753,3.7303483486175537,-5.837202548980713,2.012153148651123,4.012044906616211,0.31722554564476013,-0.7997303605079651,0.9238068461418152,-3.680316686630249
287,71783,71781,-0.013297108933329582,0.04908859729766846,0.957119882106781,4.48801326751709,11.868185997009277,-4.062798976898193,2.0128602981567383,4.013899803161621,0.31710007786750793,-0.8843991756439209,0.8158165216445923,-3.7264225482940674
288,71793,71791,-0.17118008434772491,-0.07461300492286682,1.017327070236206,2.7134923934936523,9.653914451599121,-3.9664041996002197,2.0131709575653076,4.014808177947998,0.3169737160205841,-1.0734566450119019,0.9359755516052246,-3.758136034011841
289,71803,71801,-0.12512870132923126,-0.14265571534633636,1.0472524166107178,2.209881544113159,7.553287029266357,-4.1203460693359375,2.014389991760254,4.014071941375732,0.31507793068885803,-1.209546446800232,1.0196696519851685,-3.8104939460754395
290,71813,71811,0.08253587037324905,-0.07342629134654999,0.9343258738517761,4.842076778411865,2.1446642875671387,-3.064814805984497,2.015972137451172,4.013089179992676,0.3147915303707123,-1.2994999885559082,1.1269828081130981,-3.8454556465148926
291,71823,71821,0.08371300250291824,0.08511389791965485,0.9626569747924805,4.473130702972412,1.1074951887130737,-1.995483636856079,2.0159964561462402,4.012740612030029,0.3146130442619324,-1.2634098529815674,1.164169192314148,-3.8878211975097656
292,71833,71831,0.08694326132535934,0.06472364813089371,0.9824988842010498,3.0214030742645264,-2.8064024448394775,-2.77053165435791,2.016221761703491,4.013078689575195,0.31433236598968506,-1.2566773891448975,1.182921290397644,-3.9025607109069824
293,71843,71841,-0.04724876582622528,0.06273733079433441,0.9818641543388367,-0.7054123878479004,-2.7806715965270996,-1.7594290971755981,2.016937494277954,4.013705253601074,0.318545937538147,-1.2111269235610962,1.2343157529830933,-3.919886350631714
294,71853,71851,-0.0447700172662735,0.018042275682091713,1.003481388092041,-2.3648974895477295,-1.2571157217025757,-0.6297900676727295,2.0173604488372803,4.013402462005615,0.31847813725471497,-1.2546430826187134,1.1643081903457642,-3.955641984939575
295,71863,71861,0.03462080657482147,0.009625907987356186,0.949975311756134,-2.476139545440674,-1.5250166654586792,1.306636095046997,2.018587589263916,4.013782978057861,0.3183891177177429,-1.2159271240234375,1.1551811695098877,-3.9579122066497803
296,71873,71871,0.02993709407746792,0.09760809689760208,0.9294790029525757,-2.6851236820220947,-4.8872246742248535,1.2867053747177124,2.019084930419922,4.0140533447265625,0.31739845871925354,-1.1389944553375244,1.138236165046692,-3.9176836013793945
297,71883,71881,0.020331401377916336,0.06807171553373337,1.050620675086975,-3.9605696201324463,-7.42640495300293,2.71865177154541,2.0201339721679688,4.014903545379639,0.317096084356308,-1.1624464988708496,1.1031423807144165,-3.9057905673980713
298,71893,71891,0.07504336535930634,0.012415294535458088,1.005811095237732,-0.5655319690704346,-0.2985331416130066,3.1388325691223145,2.0209548473358154,4.015310764312744,0.31690713763237,-1.0799704790115356,1.0895987749099731,-3.8690576553344727
299,71903,71901,0.033893536776304245,-0.014233669266104698,0.9705218076705933,0.7214934229850769,1.7166874408721924,4.9270524978637695,2.0223278999328613,4.015108585357666,0.31976860761642456,-1.1586239337921143,1.1115292310714722,-3.8359181880950928
300,71913,71911,-0.02145092934370041,0.038990460336208344,0.993989109992981,2.3396658897399902,-1.2112586498260498,5.600751876831055,2.022442579269409,4.015482425689697,0.31979241967201233,-1.127636432647705,1.1505388021469116,-3.7427124977111816
301,71923,71921,-0.07812006771564484,0.00531694944947958,1.0369709730148315,3.3473422527313232,3.4421684741973877,6.489760875701904,2.0231170654296875,4.01458740234375,0.31979119777679443,-1.035338044166565,1.129818081855774,-3.69195818901062
302,71933,71931,0.03827175125479698,-0.015399020165205002,0.9520505666732788,1.362926721572876,-1.5765537023544312,6.7087202072143555,2.023491382598877,4.016001224517822,0.3170658349990845,-1.1825628280639648,1.18256413936615,-3.619603395462036
303,71943,71941,0.03379826992750168,-0.02613019198179245,0.9497749209403992,-1.0577669143676758,-5.208520889282227,6.439136505126953,2.024028778076172,4.015922546386719,0.31698042154312134,-1.0898631811141968,1.114823341369629,-3.578383684158325
304,71953,71951,-0.02349802292883396,-0.10655993968248367,1.0162756443023682,-3.2054784297943115,-9.210946083068848,8.077062606811523,2.0248923301696777,4.016069412231445,0.31681421399116516,-1.0051548480987549,1.0963284969329834,-3.518928289413452
305,71963,71961,-0.041307706385850906,-0.028519365936517715,1.02877938747406,-6.3671369552612305,-11.128201484680176,7.7684245109558105,2.0253913402557373,4.0149359703063965,0.3166370093822479,-1.040621280670166,1.1093648672103882,-3.487131357192993
306,71973,71971,-0.01353530865162611,0.09094337373971939,1.0287317037582397,-8.155792236328125,-7.656286239624023,8.962632179260254,2.0279626846313477,4.01398229598999,0.3204444348812103,-0.905412495136261,1.0689321756362915,-3.3956565856933594
307,71983,71981,0.014131068252027035,0.02436208911240101,0.9724037647247314,-6.5385236740112305,-6.706302165985107,9.620771408081055,2.0271732807159424,4.014344215393066,0.3207817077636719,-0.6539791822433472,0.9497638940811157,-3.2765138149261475
308,71993,71991,-0.001961726928129792,0.049717605113983154,0.9860796928405762,-4.725189208984375,-6.9696149826049805,9.446630477905273,2.029629707336426,4.013651371002197,0.3207884728908539,-0.7571412324905396,0.8686940670013428,-3.234544515609741
309,72003,72001,0.04043193906545639,0.0770341083407402,0.9837680459022522,-1.8554121255874634,-5.412533760070801,10.68490982055664,2.0309526920318604,4.013996124267578,0.31989747285842896,-0.7611463069915771,0.8196445107460022,-3.1545321941375732
310,72013,72011,0.050697170197963715,-0.05324704945087433,0.9876270890235901,-0.7073537111282349,-5.61760950088501,10.580236434936523,2.032886028289795,4.013696193695068,0.31985947489738464,-0.6035571098327637,0.8844628930091858,-3.0339789390563965
311,72023,72021,0.04831660911440849,-0.09226366877555847,0.9899769425392151,-1.5775028467178345,-7.42220401763916,10.941437721252441,2.0324506759643555,4.012942790985107,0.32003241777420044,-0.5126400589942932,0.9394330382347107,-2.922816753387451
312,72033,72031,0.024920184165239334,-0.05987844988703728,0.9881011843681335,-3.981156826019287,-9.777915954589844,11.369577407836914,2.032494306564331,4.012628078460693,0.32009559869766235,-0.32140350341796875,0.8741196990013123,-2.7984704971313477
313,72043,72041,0.04585196077823639,-0.043074119836091995,1.0257145166397095,-7.572115421295166,-8.53409481048584,11.136608123779297,2.0335137844085693,4.011828422546387,0.3200697898864746,-0.3611818552017212,0.7648532390594482,-2.7243411540985107
314,72053,72051,0.006868274416774511,0.07204760611057281,1.0449879169464111,-11.662238121032715,-6.049528121948242,11.560501098632812,2.0361056327819824,4.012260437011719,0.3199806213378906,-0.5063972473144531,0.7445985078811646,-2.6619527339935303
315,72063,72061,-0.043717317283153534,0.12884736061096191,1.0485365390777588,-15.930477142333984,-1.4159140586853027,12.056147575378418,2.037930727005005,4.011247634887695,0.3200240135192871,-0.3032047152519226,0.48970726132392883,-2.5624847412109375
316,72073,72072,-0.01158564630895853,0.055227622389793396,0.9552109837532043,-16.499242782592773,-0.3276842534542084,12.26530933380127,2.038961172103882,4.0081257820129395,0.3161085546016693,-0.31487369537353516,0.5228430032730103,-2.4802608489990234
317,72083,72081,-0.025363894179463387,0.06936058402061462,1.0037035942077637,-11.046563148498535,-5.307565689086914,13.575166702270508,2.0402889251708984,4.007814407348633,0.3158804178237915,-0.21271945536136627,0.2693122327327728,-2.346632480621338
318,72093,72091,-0.04061170667409897,0.08161918073892593,1.0442835092544556,-8.176970481872559,1.8177450895309448,13.436553001403809,2.040682077407837,4.007535934448242,0.3157671093940735,-0.19969375431537628,0.09259583055973053,-2.2343945503234863
319,72103,72101,0.04503818228840828,0.046817295253276825,0.9590992331504822,-3.251648426055908,-4.0354323387146,13.53377628326416,2.0420937538146973,4.00994873046875,0.3128173351287842,-0.17678947746753693,-0.006485502235591412,-2.069965124130249
320,72113,72111,0.01492310594767332,0.04624650627374649,0.9540648460388184,-0.15105178952217102,-3.458188533782959,12.903768539428711,2.044098377227783,4.007903575897217,0.31227201223373413,-0.29160076379776,0.03820428252220154,-1.985093355178833
321,72123,72121,0.041759200394153595,0.08661030232906342,0.9090146422386169,1.6230233907699585,-7.799806118011475,13.478487968444824,2.045156717300415,4.007047176361084,0.31185072660446167,-0.21498341858386993,0.1215348169207573,-1.8501416444778442
322,72133,72131,0.019368750974535942,0.020460814237594604,0.9838464856147766,1.6751198768615723,-7.092970371246338,12.92491626739502,2.0467798709869385,4.007068157196045,0.3101034164428711,-0.0910736545920372,0.13173219561576843,-1.6855740547180176
323,72143,72141,0.006219093222171068,0.08238141238689423,1.0046212673187256,-0.85225909948349,-7.273919105529785,12.718297958374023,2.046442747116089,4.006405830383301,0.3101527690887451,0.027632027864456177,0.032783571630716324,-1.541877031326294
324,72153,72151,0.0032107888255268335,0.15556281805038452,0.9880571961402893,-4.717885494232178,-9.957789421081543,14.312618255615234,2.0468361377716064,4.007467269897461,0.30953410267829895,0.1601630449295044,0.03009164147078991,-1.391241192817688
325,72163,72161,0.0022880767937749624,-0.1290459930896759,1.019195556640625,-8.068988800048828,-9.47602367401123,14.028823852539062,2.048078775405884,4.007253646850586,0.30877572298049927,0.19734592735767365,0.10948958247900009,-1.3865880966186523
326,72173,72171,0.01597069762647152,-0.04345531016588211,1.019779086112976,-10.422992706298828,-4.297752857208252,13.03601360321045,2.0486319065093994,4.006503582000732,0.3084637522697449,0.32251548767089844,-0.05271512269973755,-1.2372561693191528
327,72183,72181,-0.0065619670785963535,0.0788794606924057,1.030928611755371,-10.268067359924316,-4.204777717590332,13.24710750579834,2.049722671508789,4.006303787231445,0.30783984065055847,0.380389541387558,-0.1557883471250534,-1.1010048389434814
328,72193,72191,0.0056167650036513805,-0.043901409953832626,1.003330945968628,-9.578042984008789,-4.809162616729736,11.605907440185547,2.051154375076294,4.005620002746582,0.30720776319503784,0.2725466787815094,-0.11760599166154861,-1.0092326402664185
329,72203,72201,0.0007768713403493166,-0.10448285937309265,1.0859194993972778,-6.2870073318481445,-1.9799377918243408,8.768028259277344,2.0540053844451904,4.004537105560303,0.30772122740745544,0.31957876682281494,-0.2885020673274994,-0.8830199837684631
330,72213,72211,-0.020874900743365288,-0.05784286931157112,1.031093716621399,-4.636537551879883,-3.735997200012207,6.981366157531738,2.0549731254577637,4.004334926605225,0.30720874667167664,0.5083149671554565,-0.40991753339767456,-0.7823798060417175
331,72223,72221,-0.027059495449066162,-0.1573244333267212,1.0400668382644653,-2.7767319679260254,-0.588869571685791,5.556798934936523,2.0549111366271973,4.00501823425293,0.3068884611129761,0.5161057114601135,-0.5043488144874573,-0.724586546421051
332,72233,72231,0.015411452390253544,0.008304413408041,0.9847915768623352,-0.4336729347705841,-0.9861658215522766,4.647007942199707,2.056265354156494,4.004826068878174,0.3052939474582672,0.5112990140914917,-0.5551449656486511,-0.631482720375061
333,72243,72241,-0.02608598954975605,0.06130583956837654,1.0649597644805908,1.9449595212936401,-0.6379959583282471,3.8804168701171875,2.0576796531677246,4.004247665405273,0.30485478043556213,0.6407079696655273,-0.5596917867660522,-0.5815863013267517
334,72253,72251,0.033631905913352966,-0.09393057227134705,0.9937535524368286,4.769899368286133,-0.1916346549987793,2.94124698638916,2.0569536685943604,4.004876613616943,0.3045467138290405,0.5246983766555786,-0.44520121812820435,-0.5387665033340454
335,72263,72261,0.0030511212535202503,-0.026646845042705536,1.039865255355835,6.379908084869385,-0.18285512924194336,1.5069568157196045,2.0581343173980713,4.004246711730957,0.3040692210197449,0.4905107617378235,-0.3756697475910187,-0.47790077328681946
336,72273,72271,-0.025113195180892944,0.04251262545585632,1.073622465133667,6.8842363357543945,2.2141268253326416,-0.057041481137275696,2.0592923164367676,4.004113674163818,0.3001432418823242,0.5910584330558777,-0.28652095794677734,-0.45603659749031067
337,72283,72281,0.023293767124414444,-0.10501009225845337,1.0132330656051636,5.478181838989258,5.722370147705078,-2.0218803882598877,2.0598907470703125,4.004406452178955,0.2997138798236847,0.4880165159702301,-0.35628876090049744,-0.4471660852432251
338,72293,72291,-0.03436759114265442,0.06066245958209038,1.0557833909988403,1.7034064531326294,2.5834524631500244,-2.132279872894287,2.060058832168579,4.003173351287842,0.29924580454826355,0.4633263945579529,-0.365865558385849,-0.49583739042282104
339,72303,72301,-0.0010985186090692878,-0.03577325865626335,1.0097750425338745,-2.298414707183838,-3.591378688812256,-2.687875509262085,2.0615413188934326,4.003719329833984,0.2969292402267456,0.3358738124370575,-0.3528735935688019,-0.5145864486694336
340,72313,72311,0.025104178115725517,-0.03290669992566109,1.0071663856506348,-1.830374002456665,-8.426097869873047,-5.553918361663818,2.0624241828918457,4.003759860992432,0.2964009642601013,0.4691012501716614,-0.3807562589645386,-0.5502192974090576
341,72323,72321,-0.05016027018427849,0.11145129799842834,1.0317500829696655,2.9741051197052,-10.513653755187988,-5.7371368408203125,2.062101125717163,4.00388765335083,0.2960958778858185,0.5819558501243591,-0.3817847669124603,-0.5889122486114502
342,72333,72331,0.009650757536292076,-0.023860560730099678,0.9670332074165344,9.057904243469238,-6.566296100616455,-5.867776393890381,2.0632247924804688,4.003239154815674,0.2971542179584503,0.529673159122467,-0.29431161284446716,-0.6746463179588318
343,72343,72341,0.005242769606411457,-0.028265370056033134,1.0033900737762451,11.26834487915039,2.3246240615844727,-6.544939041137695,2.0646393299102783,4.001755237579346,0.29663583636283875,0.7185778021812439,-0.13396938145160675,-0.8141352534294128
344,72353,72351,0.021999401971697807,-0.06847886741161346,1.0100152492523193,10.046422004699707,12.351058959960938,-6.400900363922119,2.0641965866088867,4.000077724456787,0.29639026522636414,0.6732954382896423,-0.03365226835012436,-0.8740629553794861
345,72363,72361,0.040824539959430695,-0.10332697629928589,0.9916300177574158,5.944935321807861,16.863027572631836,-6.880067348480225,2.064724922180176,3.9984591007232666,0.2945966124534607,0.5751669406890869,0.03328598663210869,-0.9770936369895935
346,72373,72371,0.009868545457720757,-0.019240152090787888,1.0141538381576538,-1.8408292531967163,13.828681945800781,-8.788206100463867,2.0659596920013428,3.9999682903289795,0.2941678762435913,0.4287129044532776,0.015110461972653866,-1.0308722257614136
347,72383,72381,-0.008658843114972115,0.009217788465321064,1.0507111549377441,-6.100566864013672,1.1254245042800903,-10.391757011413574,2.0665910243988037,4.001008987426758,0.29367390275001526,0.36367279291152954,0.06286422908306122,-1.0792303085327148
348,72393,72391,-0.02803618088364601,-0.09352024644613266,1.035617709159851,-4.8822479248046875,-1.6663497686386108,-12.229362487792969,2.066758394241333,4.000367641448975,0.29332825541496277,0.25320953130722046,-0.023495478555560112,-1.180253267288208
349,72403,72401,-0.04708557575941086,-0.09252656996250153,1.0259333848953247,3.9923698902130127,-7.301372528076172,-12.884563446044922,2.0679562091827393,4.000985622406006,0.29278039932250977,0.3330288827419281,-0.0563390851020813,-1.2759605646133423
350,72413,72411,-0.04394048824906349,0.11675917357206345,0.976109504699707,12.314059257507324,-14.341787338256836,-11.674988746643066,2.0670979022979736,4.000272274017334,0.29245972633361816,0.5128494501113892,0.0373576357960701,-1.44795560836792
351,72423,72421,0.020186731591820717,0.12241766601800919,0.9804020524024963,16.01460075378418,-14.271740913391113,-8.982843399047852,2.0670385360717773,3.9995524883270264,0.29216310381889343,0.4387146532535553,0.24985279142856598,-1.5715291500091553
352,72433,72431,0.06288909167051315,0.015739545226097107,0.9613356590270996,17.327260971069336,-6.753567218780518,-6.307421684265137,2.06925106048584,3.99790620803833,0.2920980453491211,0.5812376141548157,0.27581703662872314,-1.6782901287078857
353,72443,72441,0.10801924020051956,-0.03164822980761528,0.9040601849555969,15.70989990234375,1.5328257083892822,-3.747652769088745,2.069567918777466,3.998772382736206,0.29175758361816406,0.7536290287971497,0.4725804030895233,-1.7763594388961792
354,72453,72451,-0.03581821918487549,-0.07448633760213852,1.036097764968872,11.272274017333984,7.129650592803955,-0.953759491443634,2.0700478553771973,3.998518228530884,0.2913043200969696,0.6405149698257446,0.6284047961235046,-1.7536242008209229
355,72463,72461,-0.07818960398435593,-0.13471120595932007,1.055395245552063,4.25987434387207,13.7078275680542,0.355509489774704,2.0704689025878906,3.9987874031066895,0.2901891767978668,0.596493661403656,0.7799838781356812,-1.773159146308899
356,72473,72471,-0.035219788551330566,-0.001089663477614522,1.0968016386032104,-3.6046862602233887,14.69198226928711,1.2834117412567139,2.071009635925293,3.9988110065460205,0.28971487283706665,0.48467254638671875,0.8083916306495667,-1.7628965377807617
357,72483,72481,-0.003913133405148983,-0.0436767153441906,0.9919528961181641,-8.887566566467285,12.183775901794434,1.180411458015442,2.0714969635009766,3.998623847961426,0.2892950177192688,0.35863497853279114,0.7177384495735168,-1.742471694946289
358,72493,72491,0.02835937961935997,-0.00012212523142807186,0.9975467324256897,-10.845757484436035,6.777310848236084,0.8934168219566345,2.072185516357422,3.998896598815918,0.2889711260795593,0.27874910831451416,0.5590662360191345,-1.721640706062317
359,72503,72501,0.06601888686418533,0.05154240131378174,0.907582700252533,-8.429984092712402,-2.5562164783477783,1.2594307661056519,2.0724053382873535,3.9996213912963867,0.2900439500808716,0.21129879355430603,0.5502155423164368,-1.7041338682174683
360,72513,72511,-0.0242560226470232,0.09855338931083679,1.0763907432556152,-4.722211837768555,-10.076290130615234,2.405154228210449,2.072849988937378,3.99851655960083,0.2897289991378784,0.3668200671672821,0.6430762410163879,-1.7199910879135132
361,72523,72521,0.02588772028684616,-0.055305931717157364,1.0084973573684692,-0.8465813398361206,-13.166696548461914,3.0987675189971924,2.0720317363739014,3.997349977493286,0.28950822353363037,0.3865240216255188,0.5410400629043579,-1.683840036392212
362,72533,72531,-0.043731436133384705,-0.21316201984882355,1.0992728471755981,3.158193349838257,-12.026930809020996,4.420453071594238,2.0737946033477783,3.9965901374816895,0.29080283641815186,0.37853533029556274,0.5145911574363708,-1.6871318817138672
363,72543,72541,-0.06996472924947739,-0.24837422370910645,1.0794446468353271,2.0074658393859863,-2.53302001953125,6.5667619705200195,2.0739853382110596,3.995546579360962,0.2906006872653961,0.5364932417869568,0.6077066659927368,-1.7264388799667358
364,72553,72551,-0.0035531397443264723,-0.0673913061618805,1.0402755737304688,-2.421339511871338,4.524314880371094,7.4689154624938965,2.074810028076172,3.9941961765289307,0.2905620336532593,0.5612086653709412,0.5781096816062927,-1.658473253250122
365,72563,72561,-0.018419897183775902,0.07817177474498749,1.0407928228378296,-7.156209468841553,9.364680290222168,7.99926233291626,2.075350046157837,3.9931299686431885,0.28999778628349304,0.5465682744979858,0.47422081232070923,-1.6034934520721436
366,72573,72571,-0.005988496355712414,0.14652271568775177,1.0369547605514526,-10.852466583251953,8.086710929870605,8.596965789794922,2.075867176055908,3.994244337081909,0.29004907608032227,0.48550987243652344,0.3044826090335846,-1.4748767614364624
367,72583,72581,0.0016813899856060743,0.09201078116893768,1.0416897535324097,-11.13663101196289,0.6476819515228271,9.078474998474121,2.076247453689575,3.9948885440826416,0.2901179790496826,0.47599709033966064,0.17185676097869873,-1.3718611001968384
368,72593,72591,-0.005142908077687025,0.021464752033352852,1.0868912935256958,-5.21928596496582,-7.819700717926025,10.357789993286133,2.0763657093048096,3.994845151901245,0.29017406702041626,0.44492486119270325,0.16741307079792023,-1.3092682361602783
369,72603,72601,-0.0018272785237058997,0.0848187655210495,1.0639927387237549,-0.2063438594341278,-11.054826736450195,11.06607723236084,2.0767178535461426,3.994019031524658,0.2903634011745453,0.6755241751670837,0.1610608547925949,-1.1543235778808594
370,72613,72611,-0.01200371328741312,0.033179230988025665,1.059523105621338,3.388295888900757,-10.333174705505371,11.485808372497559,2.0758073329925537,3.993104934692383,0.2906798720359802,0.7580237984657288,0.226033017039299,-1.0640318393707275
371,72623,72621,-0.003703180467709899,-0.06705505400896072,1.0247617959976196,4.866869926452637,-6.937967777252197,11.368185997009277,2.0756587982177734,3.9928348064422607,0.29100173711776733,0.8066637516021729,0.33033648133277893,-0.9390310049057007
372,72633,72631,0.061151668429374695,0.00473849568516016,0.9855619072914124,4.774351119995117,4.987133502960205,10.0864896774292,2.075983762741089,3.99049973487854,0.28952163457870483,0.731745183467865,0.2830449044704437,-0.8726780414581299
373,72643,72641,0.07114018499851227,0.006436693947762251,0.9246777296066284,-1.7851824760437012,19.022693634033203,7.610939025878906,2.077244520187378,3.9911282062530518,0.2897832691669464,0.6979270577430725,0.432911217212677,-0.8332870006561279
374,72653,72651,0.05202034115791321,-0.03102756291627884,0.9321011304855347,-7.8133111000061035,26.659526824951172,5.179737567901611,2.0769078731536865,3.988434314727783,0.2898712158203125,0.5566043853759766,0.3101288080215454,-0.7429638504981995
375,72663,72661,0.07825017720460892,-0.139764666557312,0.9279915690422058,-14.411412239074707,30.55477523803711,2.9762191772460938,2.076663017272949,3.988889455795288,0.2911449372768402,0.295812726020813,0.16946618258953094,-0.6555634140968323
376,72673,72671,-0.025830591097474098,0.10697123408317566,1.0005396604537964,-18.341581344604492,28.44438362121582,1.4605474472045898,2.0762579441070557,3.9899356365203857,0.29131391644477844,-0.06688904762268066,0.10163594037294388,-0.6018299460411072
377,72683,72681,-0.013561819680035114,-0.05952714383602142,1.0146437883377075,-20.602840423583984,18.299829483032227,-0.16886602342128754,2.0769288539886475,3.989192008972168,0.2913283407688141,-0.16937918961048126,-0.032112039625644684,-0.5592674612998962
378,72693,72691,-0.011599501594901085,-0.06796912103891373,0.980129599571228,-22.73632049560547,1.3000242710113525,-1.2189339399337769,2.075486660003662,3.988565683364868,0.29076290130615234,-0.2999572455883026,-0.44262608885765076,-0.5808560848236084
379,72703,72701,0.02596016228199005,-0.05083637684583664,0.9652372598648071,-20.960445404052734,-16.115758895874023,0.25449901819229126,2.074439764022827,3.9892218112945557,0.2907942831516266,-0.2448202669620514,-0.4524560272693634,-0.5964748859405518
380,72713,72711,-0.015855615958571434,0.011070270091295242,1.0317962169647217,-12.13035774230957,-25.499963760375977,2.48201060295105,2.0733203887939453,3.985539674758911,0.29091817140579224,-0.019006984308362007,-0.6617643237113953,-0.6219041347503662
381,72723,72721,-0.0072486866265535355,0.008759330958127975,1.0331097841262817,-2.243739366531372,-24.63037872314453,4.393189907073975,2.072629690170288,3.9855916500091553,0.2909509539604187,0.28168636560440063,-0.8394824862480164,-0.5912399888038635
382,72733,72731,-0.02948639914393425,0.08592073619365692,1.0477800369262695,3.190574884414673,-14.783159255981445,5.4532670974731445,2.072611093521118,3.985612392425537,0.29135310649871826,0.4863249659538269,-0.7911796569824219,-0.5509231686592102
383,72743,72741,-0.022714801132678986,0.060541924089193344,1.048654556274414,9.96108627319336,0.882405698299408,5.480514049530029,2.073190689086914,3.9847395420074463,0.2914469242095947,0.5655884742736816,-0.7275180220603943,-0.49210524559020996
384,72753,72751,-0.03562325984239578,0.030120564624667168,1.0543744564056396,11.979029655456543,18.596389770507812,4.585824489593506,2.0737082958221436,3.9847607612609863,0.29153236746788025,0.4396829307079315,-0.5911195278167725,-0.40794238448143005
385,72763,72761,-0.03887682035565376,0.037780191749334335,1.0644230842590332,8.726835250854492,32.45399856567383,2.957477331161499,2.07464337348938,3.9842636585235596,0.2935986816883087,0.050983067601919174,-0.5404913425445557,-0.3802104592323303
386,72773,72771,-0.013115179724991322,0.030003508552908897,1.017088770866394,0.0881340280175209,38.287261962890625,1.9770861864089966,2.07627272605896,3.9835875034332275,0.2938891351222992,-0.17601877450942993,-0.5019032955169678,-0.3538356423377991
387,72783,72781,-0.014601430855691433,-0.008397605270147324,1.0291733741760254,-12.056375503540039,35.0713996887207,0.3348459303379059,2.074235677719116,3.982306718826294,0.29427218437194824,-0.4412175416946411,-0.5603544116020203,-0.40377187728881836
388,72793,72791,-0.04772522673010826,0.019271548837423325,0.9731183648109436,-17.56308364868164,20.966455459594727,-0.17840531468391418,2.073542594909668,3.9816412925720215,0.2955358624458313,-0.7169291973114014,-0.8414000272750854,-0.4405616819858551
389,72803,72801,-0.06895741075277328,0.06643420457839966,1.0159586668014526,-15.88392448425293,7.080219268798828,-0.5411220192909241,2.0725655555725098,3.982797384262085,0.29594165086746216,-0.9242649078369141,-1.060680866241455,-0.4424484372138977
390,72813,72811,-0.07027105242013931,0.10024206340312958,1.0114425420761108,-5.925163269042969,-3.0229954719543457,-0.38736405968666077,2.0727310180664062,3.9830870628356934,0.29632771015167236,-0.9232336282730103,-1.0185630321502686,-0.46288278698921204
391,72823,72821,-0.04210509732365608,0.09552893787622452,0.9915436506271362,7.758856773376465,-6.20350456237793,-0.10956837981939316,2.072767496109009,3.9813807010650635,0.2969377934932709,-0.8907554149627686,-1.0285056829452515,-0.44068679213523865
392,72833,72831,-0.10737371444702148,0.14898879826068878,1.037907600402832,19.193958282470703,-0.8206908106803894,-0.45410090684890747,2.0730741024017334,3.9809043407440186,0.2984423339366913,-0.8415762782096863,-0.8364672064781189,-0.43058523535728455
393,72843,72841,-0.007946719415485859,0.060498058795928955,0.9901954531669617,24.25284767150879,5.011794090270996,-1.2392288446426392,2.0735952854156494,3.979763984680176,0.29893141984939575,-0.8232674598693848,-0.7436785697937012,-0.4436427354812622
394,72853,72851,-0.028696836903691292,0.06178843602538109,0.974711000919342,24.488054275512695,16.609766006469727,-1.2667189836502075,2.0739409923553467,3.9803383350372314,0.299470990896225,-0.9650567770004272,-0.4291239380836487,-0.4392673671245575
395,72863,72861,-0.0018132858676835895,0.03473052382469177,0.95008784532547,18.29290008544922,22.435739517211914,-1.326366662979126,2.075195074081421,3.979590892791748,0.3011016249656677,-1.1543999910354614,-0.2447197139263153,-0.45576953887939453
396,72873,72871,-0.03359675034880638,0.0746464803814888,0.9766024351119995,8.449483871459961,22.580041885375977,-2.119093894958496,2.0754356384277344,3.980625629425049,0.30159640312194824,-1.2341547012329102,-0.10196526348590851,-0.4348335564136505
397,72883,72881,0.006248042918741703,0.018640680238604546,0.943962037563324,-1.1756433248519897,17.06535530090332,-2.309969902038574,2.0746490955352783,3.9808266162872314,0.3022520840167999,-1.5309065580368042,-0.05056735500693321,-0.44841527938842773
398,72893,72891,-0.03726871311664581,-0.008093162439763546,0.9932695031166077,-11.900495529174805,14.228779792785645,-3.2468786239624023,2.0753591060638428,3.9808645248413086,0.3034280836582184,-1.6625404357910156,-0.17416852712631226,-0.4859411418437958
399,72903,72901,0.008895229548215866,-0.04715266451239586,0.9037203192710876,-17.767847061157227,11.841801643371582,-3.2021048069000244,2.075629711151123,3.9811458587646484,0.30393585562705994,-1.824774980545044,-0.3468974828720093,-0.5470095872879028
400,72913,72911,-0.014382599852979183,-0.008203656412661076,0.9337915778160095,-15.505391120910645,6.311079502105713,-3.4183349609375,2.0761871337890625,3.9818098545074463,0.3043038547039032,-1.8423492908477783,-0.4777074158191681,-0.5936737060546875
401,72923,72921,-0.013154895044863224,0.01686476543545723,0.9499289989471436,-6.7802815437316895,-2.4813356399536133,-3.129486083984375,2.0759828090667725,3.9811856746673584,0.30176177620887756,-1.825443983078003,-0.6809853911399841,-0.6217957139015198
402,72933,72931,0.013913295231759548,0.03467166796326637,0.9313462972640991,8.573033332824707,-13.443416595458984,-1.6395118236541748,2.0754973888397217,3.980638265609741,0.3018796145915985,-1.7396074533462524,-0.5177003741264343,-0.6534711718559265
403,72943,72941,-0.012975325807929039,0.01101767923682928,0.9434772729873657,20.138084411621094,-19.514068603515625,1.0055735111236572,2.075451135635376,3.978675127029419,0.3020220100879669,-1.4182301759719849,-0.3789796829223633,-0.6838175058364868
404,72953,72951,-0.05911320820450783,0.01759529300034046,0.9791185855865479,23.26547622680664,-21.872934341430664,3.35030198097229,2.074232816696167,3.97749924659729,0.3021160364151001,-1.3532277345657349,-0.18606726825237274,-0.6924301981925964
405,72963,72961,-0.0016325440956279635,-0.04554184153676033,0.9283573031425476,18.79499626159668,-19.235979080200195,4.699560165405273,2.0751302242279053,3.977540969848633,0.30372118949890137,-1.11292564868927,0.076485276222229,-0.6413434147834778
406,72973,72971,0.04522164165973663,-0.09719575196504593,0.9475449919700623,7.251580238342285,-14.14912223815918,6.186933994293213,2.075171709060669,3.9775044918060303,0.30367717146873474,-1.0165561437606812,0.12452448159456253,-0.5937995910644531
407,72983,72981,0.029479749500751495,-0.08016863465309143,0.9401453733444214,-5.081359386444092,-9.887181282043457,6.393564701080322,2.0758042335510254,3.9775209426879883,0.303671270608902,-0.9086318612098694,0.14373642206192017,-0.5643864274024963
408,72993,72991,-0.05503874644637108,0.04318232834339142,0.8965991735458374,-13.771003723144531,-3.6371893882751465,6.719936370849609,2.076000452041626,3.978407859802246,0.30127814412117004,-0.891539990901947,0.0567970834672451,-0.48535090684890747
409,73003,73001,-0.010563060641288757,-0.06582631915807724,0.9676504135131836,-16.435415267944336,3.8593688011169434,7.168091297149658,2.0774219036102295,3.9783902168273926,0.30092254281044006,-0.8019924759864807,-0.19881482422351837,-0.45806649327278137
410,73013,73011,0.03200952708721161,-0.033664997667074203,0.9676541686058044,-15.017931938171387,12.50745677947998,8.886351585388184,2.0776302814483643,3.979792833328247,0.3005657494068146,-0.8760728240013123,-0.29778122901916504,-0.3514748215675354
411,73023,73021,0.028600648045539856,0.012089422903954983,0.9564484357833862,-11.92090129852295,16.603975296020508,9.562723159790039,2.0785040855407715,3.978771924972534,0.299736350774765,-1.0558865070343018,-0.5262361764907837,-0.2847646176815033
412,73033,73031,0.011278101243078709,0.05008189007639885,0.9989014267921448,-6.917774200439453,18.157136917114258,11.067317008972168,2.0796520709991455,3.9795260429382324,0.29918545484542847,-1.2746742963790894,-0.5952666997909546,-0.19999557733535767
413,73043,73041,-0.025736909359693527,0.08937186002731323,1.0540423393249512,-4.099207878112793,16.394166946411133,11.326187133789062,2.0810606479644775,3.979691505432129,0.2986394166946411,-1.3261051177978516,-0.6754032969474792,-0.08487459272146225
414,73053,73051,0.023890327662229538,0.051742203533649445,1.019526481628418,-3.1080286502838135,11.090962409973145,12.349971771240234,2.080864429473877,3.9797379970550537,0.2983231544494629,-1.48740816116333,-0.721634566783905,0.014961021952331066
415,73063,73061,-0.04367358982563019,0.053401391953229904,1.031806230545044,-2.4918482303619385,4.660337448120117,12.311322212219238,2.0812578201293945,3.9800145626068115,0.29911497235298157,-1.5510271787643433,-0.673798143863678,0.15676100552082062
416,73073,73071,-0.008094771765172482,0.006783545482903719,1.0212180614471436,-1.8016027212142944,-1.0976086854934692,11.664311408996582,2.0819458961486816,3.9799280166625977,0.29885613918304443,-1.599800944328308,-0.6963291168212891,0.3116738796234131
417,73083,73081,-0.025949470698833466,-0.012834371067583561,0.9821182489395142,-0.3678951859474182,-5.049121856689453,11.911693572998047,2.0822501182556152,3.979494333267212,0.29857295751571655,-1.4676578044891357,-0.7011095285415649,0.39728468656539917
418,73093,73091,0.012994456104934216,-0.007329232525080442,1.0557548999786377,0.14103496074676514,-7.714057445526123,12.93134880065918,2.081494092941284,3.9804019927978516,0.2977898120880127,-1.296825885772705,-0.687441885471344,0.5618526935577393
419,73103,73101,0.040756914764642715,-0.09791914373636246,1.0666255950927734,-0.7845757603645325,-6.140613079071045,13.218853950500488,2.0807347297668457,3.979564666748047,0.2975747585296631,-1.5903390645980835,-0.6051263809204102,0.7076875567436218
420,73113,73111,0.027452880516648293,-0.10801035165786743,1.0126243829727173,-1.30158531665802,-0.5039308667182922,13.200570106506348,2.084890127182007,3.9789512157440186,0.297184556722641,-1.5174753665924072,-0.694978654384613,0.8132617473602295
421,73123,73121,-0.023756587877869606,0.019844355061650276,1.0606272220611572,0.4364245533943176,5.6117024421691895,14.112201690673828,2.0854134559631348,3.9791512489318848,0.2972881495952606,-1.5426239967346191,-0.6860915422439575,0.9261235594749451
422,73133,73131,0.020128389820456505,0.040615689009428024,1.0548807382583618,2.729055404663086,7.489243030548096,14.857440948486328,2.0867035388946533,3.9787259101867676,0.2971252501010895,-1.6253037452697754,-0.7186623215675354,1.036383867263794
423,73143,73141,0.030790630728006363,0.09389132261276245,1.0704724788665771,3.970320463180542,6.473445892333984,13.397993087768555,2.0876047611236572,3.97983455657959,0.2969854176044464,-1.6364960670471191,-0.6393615007400513,1.21627676486969
424,73153,73151,0.01950339786708355,0.003766983048990369,1.0129640102386475,5.9960150718688965,2.8267769813537598,10.663677215576172,2.0872349739074707,3.980128765106201,0.2970329523086548,-1.834665298461914,-0.690018355846405,1.3876835107803345
425,73163,73161,-0.05358017981052399,0.07924236357212067,1.0001124143600464,7.333499431610107,-1.4573848247528076,8.364835739135742,2.0893964767456055,3.9818201065063477,0.2950219511985779,-1.7179110050201416,-0.623029351234436,1.490267038345337
426,73173,73171,-0.008057777769863605,0.035955559462308884,0.996941328048706,8.230146408081055,-7.576776027679443,6.432937145233154,2.0894832611083984,3.981506109237671,0.29513877630233765,-1.6877343654632568,-0.5359550714492798,1.5352338552474976
427,73183,73181,0.012760702520608902,-0.012094949372112751,1.0293463468551636,8.250838279724121,-12.46007251739502,4.3910722732543945,2.0891175270080566,3.980520009994507,0.2950063943862915,-1.854148507118225,-0.3723445236682892,1.5535756349563599
428,73193,73191,-0.0030323185492306948,0.03791430592536926,1.060744047164917,6.135058879852295,-12.643460273742676,2.681476354598999,2.0928313732147217,3.9804325103759766,0.2918802797794342,-1.6414650678634644,-0.46065011620521545,1.6051609516143799
429,73203,73201,-0.01282298844307661,0.0021169374231249094,1.0805188417434692,3.126957654953003,-14.004322052001953,1.3033438920974731,2.0916504859924316,3.9806411266326904,0.2917720079421997,-1.4283019304275513,-0.42547866702079773,1.5340358018875122
430,73213,73211,-0.01685185357928276,0.0008168428321368992,1.0467689037322998,3.1699774265289307,-11.658137321472168,1.4021714925765991,2.0916740894317627,3.9811959266662598,0.29181721806526184,-1.466135859489441,-0.48739778995513916,1.544938087463379
431,73223,73221,-0.0012383166467770934,-0.10285647213459015,1.1005476713180542,6.916994094848633,-8.892413139343262,0.7134451866149902,2.0937836170196533,3.9828743934631348,0.2915906012058258,-1.290278434753418,-0.42449307441711426,1.5867806673049927
432,73233,73231,0.0077758184634149075,-0.15025652945041656,1.0423250198364258,13.208085060119629,-4.303354263305664,-0.4671449363231659,2.0945382118225098,3.982937812805176,0.2917328476905823,-1.1850354671478271,-0.20227721333503723,1.5741207599639893
433,73243,73241,0.003745957976207137,0.007512690499424934,1.0312154293060303,16.04345703125,-4.879787921905518,-0.17130842804908752,2.0955116748809814,3.98239803314209,0.29193904995918274,-1.108563780784607,-0.07012747973203659,1.617524266242981
434,73253,73251,0.05969168618321419,0.007515488192439079,0.9834080934524536,15.030055046081543,-7.188620090484619,-0.5814878940582275,2.095306634902954,3.981585741043091,0.28967610001564026,-1.1682969331741333,-0.0033154678530991077,1.5442478656768799
435,73263,73261,0.01563449203968048,0.0604499951004982,0.9421652555465698,10.57170295715332,-12.7782621383667,-0.44174715876579285,2.097369909286499,3.9830095767974854,0.289537250995636,-1.0565650463104248,0.18165144324302673,1.532142996788025
436,73273,73271,0.008215180598199368,-0.22040855884552002,0.9990012645721436,5.143928527832031,-16.957820892333984,-0.9550277590751648,2.0977463722229004,3.9810824394226074,0.2894526422023773,-1.0230892896652222,0.12274477630853653,1.422046184539795
437,73283,73281,0.012986722402274609,-0.0237545408308506,1.0241280794143677,0.8472278714179993,-18.33579444885254,-1.2386349439620972,2.0991909503936768,3.9839370250701904,0.28930026292800903,-0.7000622153282166,0.22850030660629272,1.4922088384628296
438,73293,73291,-0.005271004978567362,0.007685457356274128,1.0301131010055542,0.6888023018836975,-18.447778701782227,-2.8437390327453613,2.0993149280548096,3.983909845352173,0.29177144169807434,-0.5363656878471375,0.2118174135684967,1.4659804105758667
439,73303,73301,-0.03801533579826355,-0.022123822942376137,1.0136977434158325,2.9774465560913086,-15.502243995666504,-3.828389883041382,2.1002328395843506,3.9833734035491943,0.29182663559913635,-0.46406084299087524,0.21901382505893707,1.3889018297195435
440,73313,73311,-0.019040437415242195,-0.028511587530374527,1.0121870040893555,5.606579780578613,-11.039216041564941,-5.136892318725586,2.1022238731384277,3.98437237739563,0.2918323278427124,-0.2219703495502472,0.2692650854587555,1.3585476875305176
441,73323,73321,-0.10400797426700592,0.06684640049934387,1.0108774900436401,6.84420919418335,-8.749307632446289,-6.423958778381348,2.102273941040039,3.983363389968872,0.29209575057029724,-0.11613210290670395,0.347260057926178,1.2303308248519897
442,73333,73331,-0.09848243743181229,0.08445288985967636,1.0101068019866943,9.180305480957031,-7.469161033630371,-6.511078834533691,2.1022520065307617,3.9827938079833984,0.2922327518463135,-0.1199321523308754,0.45389652252197266,1.1306402683258057
443,73343,73341,-0.04425457492470741,0.036218952387571335,1.0130572319030762,11.0058012008667,-9.302180290222168,-6.398443222045898,2.104672908782959,3.9823925495147705,0.2923039197921753,-0.029673190787434578,0.5907817482948303,1.0321881771087646
444,73353,73351,-0.03457292541861534,0.015772417187690735,1.0492974519729614,10.606287002563477,-10.75847339630127,-6.477638244628906,2.1052651405334473,3.9803237915039062,0.29052743315696716,0.16501973569393158,0.7349961400032043,0.8582470417022705
445,73363,73361,0.02444060891866684,-0.12162333726882935,1.0112359523773193,6.692907810211182,-11.683889389038086,-5.865649700164795,2.1062045097351074,3.980942964553833,0.29071640968322754,0.13862276077270508,0.6838656663894653,0.8155872821807861
446,73373,73371,0.03181307017803192,-0.13415361940860748,1.038367509841919,1.556312084197998,-9.62978744506836,-7.135024547576904,2.1088528633117676,3.982968330383301,0.2907506227493286,0.2679955065250397,0.795628547668457,0.8007609248161316
447,73383,73381,0.024049459025263786,-0.00022655457723885775,0.9722592830657959,-3.0511348247528076,-7.022714138031006,-8.555463790893555,2.1105525493621826,3.9833645820617676,0.2909277677536011,0.19705241918563843,0.8186652064323425,0.7084850072860718
448,73393,73391,0.006277520675212145,-0.01873333565890789,0.9951478838920593,-6.089016914367676,-9.184666633605957,-7.503501892089844,2.1137166023254395,3.983511209487915,0.29090267419815063,0.302697092294693,0.7768458127975464,0.6279467344284058
449,73403,73401,0.0021916646510362625,-0.08759933710098267,1.0129410028457642,-3.8511738777160645,-9.135359764099121,-7.180046081542969,2.1136908531188965,3.9820117950439453,0.29103708267211914,0.5571193099021912,0.7319343686103821,0.4917077422142029
450,73413,73411,-0.023053470999002457,-0.023180169984698296,1.0432647466659546,-0.2202741950750351,-13.950175285339355,-5.312493801116943,2.113637685775757,3.982978343963623,0.2914639711380005,0.4767589569091797,0.7354738116264343,0.4418959617614746
451,73423,73421,-0.021070459857583046,0.12237382680177689,0.9921097159385681,2.5011801719665527,-14.593135833740234,-4.293704986572266,2.1168212890625,3.9834179878234863,0.2909642457962036,0.6875008344650269,0.7119032144546509,0.4056112468242645
452,73433,73431,0.00736261997371912,-0.08372406661510468,1.0140411853790283,3.339629888534546,-15.283487319946289,-3.578406572341919,2.117790460586548,3.984259605407715,0.2911947965621948,0.9784339070320129,0.793023407459259,0.3942040801048279
453,73443,73441,-0.0015241458313539624,-0.04411223903298378,1.0202428102493286,1.5595500469207764,-11.693120002746582,-3.096604824066162,2.118274688720703,3.9833686351776123,0.29153770208358765,0.9824911952018738,0.858036994934082,0.26835155487060547
454,73453,73451,-0.034288547933101654,-0.053390007466077805,1.0174468755722046,1.1209475994110107,-6.551206111907959,-2.175339460372925,2.1202235221862793,3.981365919113159,0.2906881868839264,1.1560840606689453,0.8261723518371582,0.13582047820091248
455,73463,73461,-0.01426295842975378,-0.07228279858827591,1.0334739685058594,1.1502771377563477,0.2537752091884613,-0.7521783709526062,2.1210715770721436,3.981684684753418,0.2909049689769745,1.2132813930511475,0.865838348865509,0.13152265548706055
456,73473,73471,0.00984296202659607,-0.12495066225528717,0.9982548952102661,2.30324387550354,4.506807327270508,-0.9813464283943176,2.1215388774871826,3.979868173599243,0.2909909188747406,1.1815261840820312,0.9166107177734375,0.017311733216047287
457,73483,73481,0.011478734202682972,-0.042262639850378036,0.9947084784507751,2.9694981575012207,8.031689643859863,-0.9986009001731873,2.123323678970337,3.9796242713928223,0.291126012802124,1.0790281295776367,1.0526701211929321,-0.11443164944648743
458,73493,73491,-0.05094243958592415,0.10938771814107895,0.9964573383331299,3.7208971977233887,9.304999351501465,-0.2969638407230377,2.123792886734009,3.9763758182525635,0.29070845246315,1.0169050693511963,1.1056559085845947,-0.15934403240680695
459,73503,73501,-0.011126365512609482,0.13528843224048615,0.9462181329727173,4.300874710083008,7.030049800872803,0.48247408866882324,2.1239850521087646,3.9738852977752686,0.29075270891189575,0.8100946545600891,1.0911544561386108,-0.29561781883239746
460,73513,73511,-0.022250566631555557,0.15309318900108337,0.9685249924659729,3.121691942214966,3.527247428894043,2.8666622638702393,2.126739978790283,3.974276304244995,0.29066944122314453,0.8207111954689026,1.0732051134109497,-0.2669116258621216
461,73523,73521,-0.01174994558095932,0.1614847630262375,0.9634158611297607,-0.4159702658653259,-1.102359414100647,4.0857415199279785,2.126487970352173,3.972087860107422,0.2944090962409973,0.8878626823425293,1.0938856601715088,-0.36488837003707886
462,73533,73531,0.037775758653879166,0.13581080734729767,0.9551429152488708,-6.601361274719238,-7.241579532623291,5.186450481414795,2.1262454986572266,3.9720563888549805,0.29475799202919006,0.884583592414856,1.1771031618118286,-0.41273233294487
463,73543,73541,0.052385617047548294,0.02049512043595314,0.9534673094749451,-12.271434783935547,-12.409222602844238,5.3343729972839355,2.1270294189453125,3.9692184925079346,0.29480189085006714,1.0534744262695312,0.9927826523780823,-0.3520268499851227
464,73553,73551,0.08784987032413483,-0.05780326947569847,1.0029178857803345,-14.600123405456543,-14.349496841430664,6.057413578033447,2.125779867172241,3.9688162803649902,0.2964639365673065,1.111596703529358,0.9086183905601501,-0.40740928053855896
465,73563,73561,0.03654193505644798,-0.13104593753814697,0.9711822271347046,-14.851444244384766,-13.225061416625977,5.370510101318359,2.1279656887054443,3.9683523178100586,0.2966141700744629,1.1817047595977783,0.795628547668457,-0.33892571926116943
466,73573,73571,0.03552929311990738,-0.10064288973808289,0.953251838684082,-14.273764610290527,-10.993699073791504,3.7701711654663086,2.1299936771392822,3.967768669128418,0.2967119514942169,1.4541780948638916,0.5345268845558167,-0.2073197066783905
467,73583,73581,-0.032317787408828735,-0.05799667537212372,0.983723521232605,-12.448617935180664,-10.49097728729248,2.5325608253479004,2.1297781467437744,3.9691591262817383,0.2970788776874542,1.3832985162734985,0.45948898792266846,-0.22486785054206848
468,73593,73591,-0.011502421461045742,0.023731304332613945,0.9998409152030945,-9.19913101196289,-11.70016098022461,1.914771318435669,2.1326210498809814,3.968918800354004,0.2955581247806549,1.5688409805297852,0.34569287300109863,-0.15181080996990204
469,73603,73601,-0.0378749780356884,0.09943115711212158,1.0308988094329834,-5.913602352142334,-7.3252997398376465,1.6145222187042236,2.1332406997680664,3.968743085861206,0.29565805196762085,1.6902239322662354,0.2569954991340637,-0.17802096903324127
470,73613,73611,0.016366800293326378,-0.023350823670625687,0.9652532935142517,-4.595820426940918,1.821834683418274,0.8884785771369934,2.1331558227539062,3.968019962310791,0.29565849900245667,1.6578099727630615,0.32089129090309143,-0.1957397609949112
471,73623,73621,-0.020753677934408188,0.10804433375597,0.9695292115211487,-2.9211933612823486,9.486778259277344,1.1186914443969727,2.1351706981658936,3.9665820598602295,0.29679274559020996,1.5939759016036987,0.22778888046741486,-0.15516149997711182
472,73633,73631,-0.012459011748433113,-0.1189362108707428,1.0642061233520508,-3.319512367248535,13.095418930053711,1.1682769060134888,2.136162519454956,3.9673211574554443,0.29690420627593994,1.4649189710617065,0.1528986394405365,-0.1273893117904663
473,73643,73641,-0.005782388150691986,-0.08323545753955841,1.0165379047393799,-8.730744361877441,12.398399353027344,0.3724346160888672,2.136916399002075,3.96836256980896,0.29693225026130676,1.3861446380615234,0.01925124228000641,-0.014644076116383076
474,73653,73651,0.0005723378853872418,-0.11316237598657608,1.0365551710128784,-12.416637420654297,9.908184051513672,-1.5410605669021606,2.137791156768799,3.96909236907959,0.29939454793930054,1.255549430847168,-0.03537880256772041,-0.03373194858431816
475,73663,73661,-0.009164469316601753,-0.13608139753341675,1.067422866821289,-10.501381874084473,9.142361640930176,-2.432600259780884,2.1392266750335693,3.9686098098754883,0.2996940016746521,1.229655385017395,-0.09105188399553299,-0.053957417607307434
476,73673,73671,-0.0052003031596541405,-0.03288175165653229,1.0007922649383545,-5.6236982345581055,5.255716323852539,-3.6517539024353027,2.13988995552063,3.9678702354431152,0.30013734102249146,1.1571890115737915,-0.08533073961734772,-0.09082454442977905
477,73683,73681,0.008304102346301079,-0.03513352572917938,0.97276771068573,-3.105548143386841,1.407970905303955,-4.260883331298828,2.1405234336853027,3.967343807220459,0.30036818981170654,1.2251505851745605,-0.18156972527503967,-0.08570348471403122
478,73693,73691,-0.01186408568173647,0.07905063033103943,0.9738383293151855,-3.4335579872131348,-3.6378235816955566,-4.434746742248535,2.1392078399658203,3.9660592079162598,0.3007974326610565,1.228888750076294,-0.20892247557640076,-0.18471123278141022
479,73703,73701,-0.03314490243792534,0.11041732877492905,1.0237317085266113,-6.6752519607543945,-8.043726921081543,-3.1969363689422607,2.141836643218994,3.9652655124664307,0.3010694980621338,1.214223861694336,-0.1666850596666336,-0.2779853641986847
480,73713,73711,-0.025236574932932854,-0.05940145626664162,1.0486947298049927,-7.197328090667725,-9.465230941772461,-2.560180187225342,2.141923666000366,3.964512348175049,0.3015609383583069,1.4023046493530273,-0.2479744553565979,-0.30727678537368774
