,timestamp_start,timestamp_end,acc.x,acc.y,acc.z,gyro.x,gyro.y,gyro.z,stateEstimate.x,stateEstimate.y,stateEstimate.z,stabilizer.pitch,stabilizer.roll,stabilizer.yaw
0,18805,18804,0.022314628586173058,0.03165694698691368,0.9974666833877563,2.0038809776306152,-1.3086572885513306,-2.620296001434326,1.9736170768737793,3.966848134994507,0.16322971880435944,-0.5426812767982483,-0.16615867614746094,3.1281638145446777
1,18815,18814,0.0009077762369997799,-0.047836627811193466,0.9544010162353516,2.4723310470581055,1.6695605516433716,-2.336538553237915,1.974196195602417,3.9654195308685303,0.1631140410900116,-0.7394344210624695,-0.14138053357601166,3.1003224849700928
2,18825,18824,-0.02834162674844265,0.05291975662112236,1.0986043214797974,2.665447950363159,3.8383259773254395,-2.07824444770813,1.974802851676941,3.9653677940368652,0.16451334953308105,-0.8630620837211609,-0.11280833184719086,3.076303243637085
3,18835,18834,0.012088039889931679,-0.03546068072319031,1.0173166990280151,1.9885846376419067,4.259389400482178,-1.6403554677963257,1.9766387939453125,3.965625047683716,0.16594287753105164,-0.98548823595047,-0.1573144495487213,3.0482096672058105
4,18845,18844,0.03510440140962601,-0.038592949509620667,1.0027706623077393,0.8574481010437012,-1.7849551439285278,-1.0776021480560303,1.9768320322036743,3.966517925262451,0.16752494871616364,-1.0445096492767334,-0.2769397795200348,3.0149073600769043
5,18855,18854,-0.001514863921329379,0.03931558132171631,1.052186131477356,0.8221957683563232,-7.617822647094727,-1.0736358165740967,1.9746824502944946,3.965078353881836,0.16837678849697113,-0.989955484867096,-0.3129880726337433,2.9961633682250977
6,18865,18864,0.03514496237039566,-0.06610734015703201,1.0234493017196655,0.9873353838920593,-10.917433738708496,-0.7697491645812988,1.9759597778320312,3.96478009223938,0.17018422484397888,-0.8466826677322388,-0.2698203921318054,2.9915735721588135
7,18875,18874,-0.01902085542678833,0.007583225145936012,1.0981017351150513,2.5919907093048096,-13.785451889038086,-0.756874144077301,1.975066900253296,3.967625856399536,0.17192479968070984,-0.6299903392791748,-0.3756060004234314,2.9682114124298096
8,18885,18884,-0.026880864053964615,0.023637156933546066,1.0691834688186646,3.309746503829956,-9.935561180114746,-0.7482299208641052,1.9772052764892578,3.9686176776885986,0.17371121048927307,-0.3957159221172333,-0.3595910966396332,2.9619219303131104
9,18895,18894,0.01985473744571209,0.025249745696783066,1.0612647533416748,5.426604747772217,-11.334833145141602,-0.29908841848373413,1.9780340194702148,3.9686293601989746,0.1754566878080368,-0.36479735374450684,-0.4709939658641815,2.931328058242798
10,18905,18904,0.006404186133295298,-0.042930666357278824,1.022741675376892,6.388922691345215,-6.860700607299805,-0.18354104459285736,1.97267746925354,3.971165895462036,0.17670881748199463,0.6265321969985962,-0.6724036931991577,2.8896286487579346
11,18915,18914,0.03871573507785797,-0.01710100658237934,1.0752650499343872,9.250625610351562,-2.9853148460388184,-0.3954166769981384,1.9730294942855835,3.9716479778289795,0.1786302924156189,0.5989528894424438,-0.5158848762512207,2.9004344940185547
12,18925,18924,-0.016685180366039276,0.08301465958356857,1.099666714668274,10.076179504394531,9.795625686645508,-0.6323317289352417,1.9733226299285889,3.9709243774414062,0.18157461285591125,0.43947139382362366,-0.25080856680870056,2.9149789810180664
13,18935,18934,-0.024769729003310204,-0.03524197265505791,1.0496422052383423,11.180994033813477,18.45046043395996,-1.0822789669036865,1.9739145040512085,3.970435857772827,0.1842336356639862,0.1701340228319168,-0.006291546393185854,2.9212889671325684
14,18945,18944,0.04013955965638161,-0.04000673443078995,1.018502116203308,10.076252937316895,20.502765655517578,-1.2953509092330933,1.977192759513855,3.971898078918457,0.1867745816707611,-0.20392782986164093,0.15718767046928406,2.9164881706237793
15,18955,18954,0.04285639524459839,-0.10777119547128677,0.9906147718429565,7.648200035095215,19.669361114501953,-1.782264232635498,1.9785405397415161,3.9719200134277344,0.18673411011695862,-0.5890378952026367,0.2958528995513916,2.9057490825653076
16,18965,18964,-0.013534288853406906,0.03783070668578148,0.9690532088279724,2.666978359222412,8.234267234802246,-0.9728020429611206,1.979033350944519,3.972085952758789,0.1887490451335907,-0.8596524596214294,0.38046565651893616,2.888794183731079
17,18975,18974,-0.01270749606192112,-0.01835537515580654,1.0252193212509155,-0.3901005983352661,-3.041686534881592,-1.0983521938323975,1.9798320531845093,3.9726436138153076,0.19075769186019897,-0.9880286455154419,0.38314005732536316,2.8746213912963867
18,18985,18984,0.013371845707297325,-0.008866828866302967,1.1121388673782349,-1.652483344078064,-11.803319931030273,-1.4114819765090942,1.9804342985153198,3.9726674556732178,0.19281694293022156,-1.004399061203003,0.4108133912086487,2.86456561088562
19,18995,18994,-0.046001989394426346,-0.03656715154647827,1.052247405052185,-1.582990288734436,-19.651945114135742,-1.005942463874817,1.9853177070617676,3.9720985889434814,0.19430236518383026,-1.3481709957122803,0.34585171937942505,2.8201229572296143
20,19005,19004,0.04904130846261978,0.013224777765572071,1.0112167596817017,-2.245424270629883,-24.987810134887695,-1.1365262269973755,1.9846901893615723,3.9718282222747803,0.1980098932981491,-0.7716525197029114,0.3569495677947998,2.8359615802764893
21,19015,19014,-0.0003899133298546076,-0.1402941197156906,1.0001980066299438,-1.288256049156189,-29.878746032714844,-1.3166664838790894,1.9835090637207031,3.9718010425567627,0.19904710352420807,-0.31579694151878357,0.3540375828742981,2.838073968887329
22,19025,19024,0.012124832719564438,-0.005035883747041225,1.0329196453094482,-0.21108461916446686,-26.76758575439453,-1.7236638069152832,1.9859215021133423,3.9719510078430176,0.20129531621932983,-0.3239152431488037,0.3606751561164856,2.8026630878448486
23,19035,19034,0.018606847152113914,0.07653117924928665,0.9772170186042786,0.06404797732830048,-19.735118865966797,-1.8783565759658813,1.987074375152588,3.971510171890259,0.20339810848236084,-0.20424196124076843,0.39003849029541016,2.777331829071045
24,19045,19044,-0.02945762872695923,0.024231093004345894,1.0325509309768677,0.9627122282981873,-13.850444793701172,-2.1094610691070557,1.9866588115692139,3.971425771713257,0.20525416731834412,0.1175176277756691,0.4158703684806824,2.7704315185546875
25,19055,19054,-0.0062836348079144955,-0.008341957814991474,1.025739073753357,0.5857419967651367,-10.283222198486328,-2.714097499847412,1.9853118658065796,3.971372365951538,0.20754438638687134,0.32725071907043457,0.44295644760131836,2.7565228939056396
26,19065,19064,-0.051649417728185654,-0.05342770367860794,1.02254056930542,-0.6755271553993225,-2.6339359283447266,-2.8148436546325684,1.9900965690612793,3.970494270324707,0.2097632735967636,-0.16304823756217957,0.4636249542236328,2.677013397216797
27,19075,19074,-0.003378000110387802,0.007711776997894049,1.0070245265960693,-2.2410619258880615,-1.821588397026062,-2.059608221054077,1.9898062944412231,3.9690704345703125,0.21249395608901978,0.02116280235350132,0.46112897992134094,2.6642372608184814
28,19085,19084,0.005142257548868656,-0.03640127554535866,0.9678507447242737,-3.459864616394043,-3.653048515319824,-1.8904420137405396,1.9907454252243042,3.969221830368042,0.213954359292984,0.019116874784231186,0.4252466857433319,2.6406946182250977
29,19095,19094,0.056699853390455246,-0.07030073553323746,0.981077253818512,-3.897160530090332,-8.351606369018555,-1.9713449478149414,1.9910918474197388,3.9702248573303223,0.21621982753276825,0.05052410438656807,0.370214581489563,2.619523525238037
30,19105,19104,0.038965851068496704,-0.1515711396932602,0.9345732927322388,-2.527606964111328,-14.821319580078125,-1.8990412950515747,1.9911777973175049,3.9690747261047363,0.21848642826080322,0.1649455577135086,0.4620518088340759,2.6099839210510254
31,19115,19114,-0.010308216325938702,-0.03765295818448067,0.9637150168418884,-1.8936083316802979,-18.502696990966797,-2.139693260192871,1.9918092489242554,3.9687700271606445,0.2213529497385025,0.5249577760696411,0.4104308485984802,2.608757257461548
32,19125,19124,0.015954211354255676,-0.02801697514951229,0.96403968334198,-1.2748163938522339,-20.855497360229492,-1.7970094680786133,1.9895066022872925,3.967667579650879,0.223588228225708,0.6265155673027039,0.37379544973373413,2.5767276287078857
33,19135,19134,0.03812916949391365,-0.0027545245829969645,1.0186290740966797,-2.0897443294525146,-19.262847900390625,-1.6754547357559204,1.9907609224319458,3.967205286026001,0.2257174700498581,0.7701277136802673,0.4160040318965912,2.5525660514831543
34,19145,19144,-0.0004091713926754892,0.039828162640333176,1.0146775245666504,-3.9537529945373535,-17.228910446166992,-1.6077892780303955,1.9884053468704224,3.9669694900512695,0.22699186205863953,1.0285288095474243,0.3625483512878418,2.5409011840820312
35,19155,19154,0.010021492838859558,-0.06116907298564911,0.9473578333854675,-5.808995246887207,-13.012598037719727,-2.053736686706543,1.988892912864685,3.965977668762207,0.229160875082016,1.1682846546173096,0.35329073667526245,2.51938533782959
36,19165,19164,-0.015385109931230545,0.04117057844996452,1.0139542818069458,-7.513009548187256,-6.442739009857178,-2.4757578372955322,1.9914630651474,3.963824510574341,0.23125717043876648,1.4494587182998657,0.45251643657684326,2.5071287155151367
37,19175,19174,0.023333825170993805,0.044003188610076904,0.9197397828102112,-8.2872953414917,-1.7056434154510498,-2.3414266109466553,1.992974042892456,3.9643802642822266,0.2335052341222763,1.3852771520614624,0.2888980805873871,2.4746477603912354
38,19185,19184,0.015898650512099266,0.09847596287727356,1.0079017877578735,-8.615572929382324,2.894317388534546,-1.3479115962982178,1.994546890258789,3.9629135131835938,0.23607291281223297,1.4797542095184326,0.19774480164051056,2.462440013885498
39,19195,19194,0.008102759718894958,0.1036812961101532,1.036044955253601,-7.485964298248291,5.338577747344971,-1.6003249883651733,1.993303894996643,3.9626855850219727,0.23810957372188568,1.4919445514678955,0.10646390914916992,2.4536805152893066
40,19205,19204,0.007290083449333906,-0.017872489988803864,0.9650769829750061,-6.182774543762207,6.544060707092285,-1.5180027484893799,1.9937688112258911,3.963202953338623,0.24032114446163177,1.4548627138137817,-0.040565263479948044,2.448899030685425
41,19215,19214,-0.0049553243443369865,0.027442844584584236,0.9356059432029724,-3.815413475036621,4.897434711456299,-1.198380947113037,1.997258186340332,3.9637017250061035,0.2426896095275879,1.0391788482666016,-0.14871831238269806,2.410534381866455
42,19225,19224,-0.015798410400748253,0.038614992052316666,0.9977011680603027,-1.1952733993530273,3.281353712081909,-0.9439963102340698,1.9955153465270996,3.9671547412872314,0.24495545029640198,1.1830506324768066,-0.21789400279521942,2.417482852935791
43,19235,19234,-0.02263479493558407,0.08057611435651779,0.902228057384491,1.7726129293441772,-2.4124414920806885,-0.35289904475212097,1.9970651865005493,3.9673659801483154,0.24693308770656586,1.0621131658554077,-0.24033783376216888,2.4040257930755615
44,19245,19244,0.0011620575096458197,-0.005877875257283449,0.9597865343093872,3.3931450843811035,-4.464510917663574,-0.4543236196041107,1.9941967725753784,3.9655416011810303,0.24918371438980103,1.3797430992126465,0.06737866252660751,2.370025396347046
45,19255,19254,-0.07357750833034515,0.039271652698516846,1.0150444507598877,3.946437120437622,-6.009316444396973,-0.25152331590652466,1.991626501083374,3.9670166969299316,0.25131332874298096,1.502550721168518,-0.12354813516139984,2.4075984954833984
46,19265,19264,-0.06097631901502609,-0.012478714808821678,0.9864691495895386,1.2039085626602173,-4.020582675933838,-0.5891180038452148,1.9915781021118164,3.9668030738830566,0.253356009721756,1.49229097366333,-0.07484299689531326,2.400416135787964
47,19275,19274,-0.06753206253051758,0.02269371785223484,0.9976675510406494,-0.9983779788017273,1.526644229888916,-0.6009517312049866,1.9906353950500488,3.9670252799987793,0.2555086016654968,1.3741567134857178,-0.0671519786119461,2.390018939971924
48,19285,19284,0.07165703177452087,-0.14747890830039978,0.9446145296096802,-3.4341540336608887,4.963968276977539,0.028932688757777214,1.9907522201538086,3.9664466381073,0.25803041458129883,1.3764737844467163,-0.03171980008482933,2.3774142265319824
49,19295,19294,0.019356299191713333,-0.07780188322067261,0.9876777529716492,-5.328762054443359,6.709331035614014,-0.35579776763916016,1.9886225461959839,3.9682326316833496,0.2600882351398468,1.3392667770385742,-0.10774592310190201,2.386697292327881
50,19305,19304,-0.00534035125747323,-0.013206676580011845,0.9362571835517883,-5.85645866394043,7.8416876792907715,-0.5401137471199036,1.9888967275619507,3.9680752754211426,0.26206254959106445,1.314721941947937,-0.13826657831668854,2.379171371459961
51,19315,19314,0.019504625350236893,-0.027721725404262543,0.9110845327377319,-5.378625869750977,7.766535758972168,-0.7991865277290344,1.9922758340835571,3.964766263961792,0.2625961899757385,1.1237258911132812,-0.17878927290439606,2.3666415214538574
52,19325,19324,-0.00506639713421464,0.009092118591070175,0.9619097709655762,-4.13339376449585,6.630220413208008,-0.9144508838653564,1.9925830364227295,3.9644691944122314,0.26442503929138184,1.1565958261489868,-0.21340008080005646,2.355314254760742
53,19335,19334,0.024284735321998596,0.003524759551510215,0.9452927708625793,-3.856123924255371,5.228119850158691,-0.7871801853179932,1.994465708732605,3.9637789726257324,0.266153484582901,1.0541757345199585,-0.2328648567199707,2.3415422439575195
54,19345,19344,-0.0035410504788160324,0.03596001863479614,1.017800211906433,-3.2826497554779053,2.289132833480835,-0.6606538891792297,1.9949736595153809,3.9651334285736084,0.26506751775741577,1.002880573272705,-0.3165615200996399,2.3422157764434814
55,19355,19354,0.010391607880592346,0.036598090082407,0.9770854115486145,-1.6878972053527832,0.4212701916694641,-0.11880670487880707,1.9969431161880493,3.9628336429595947,0.26664769649505615,1.0708922147750854,-0.3099488615989685,2.3293254375457764
56,19365,19364,0.008876101113855839,0.11914659291505814,1.0072314739227295,-0.9636099934577942,0.7211079001426697,-0.5938082337379456,1.9987273216247559,3.9602530002593994,0.26818540692329407,1.0758156776428223,-0.3577437996864319,2.331230878829956
57,19375,19374,-0.00973496399819851,0.19972272217273712,0.9885112047195435,0.9177101850509644,2.6347603797912598,-0.46258750557899475,1.9990752935409546,3.959390878677368,0.26968109607696533,1.0547648668289185,-0.3870322108268738,2.3280906677246094
58,19385,19384,0.04611620679497719,0.11629108339548111,0.8415811061859131,1.5279289484024048,5.368278980255127,-0.4564918577671051,1.9987605810165405,3.9576923847198486,0.26835817098617554,0.9854693412780762,-0.3126474618911743,2.3118045330047607
59,19395,19394,0.08274915814399719,0.053465478122234344,0.834867537021637,1.7260063886642456,7.053709506988525,-0.3783567249774933,1.9982397556304932,3.9571502208709717,0.2695342004299164,0.9396466612815857,-0.30840814113616943,2.3074684143066406
60,19405,19404,0.0565093494951725,0.01034227479249239,0.9314093589782715,1.6464571952819824,3.7451000213623047,0.008646068163216114,1.998213768005371,3.957131862640381,0.27055642008781433,0.8646510243415833,-0.30509379506111145,2.304882526397705
61,19415,19414,0.024931885302066803,-0.03057253547012806,0.9213709235191345,0.8774047493934631,3.2951083183288574,-0.058004867285490036,1.997894287109375,3.953356981277466,0.2712705433368683,1.0744311809539795,-0.22401760518550873,2.28930401802063
62,19425,19424,0.0025499295443296432,-0.014882146380841732,0.9412528276443481,0.1755388081073761,4.2019782066345215,0.3089753985404968,1.9975347518920898,3.9536848068237305,0.2721453607082367,0.9753485321998596,-0.16119997203350067,2.2832815647125244
63,19435,19434,0.007829138077795506,-0.2580605149269104,0.9383758306503296,-1.49577796459198,5.803872108459473,0.8148276805877686,1.9955534934997559,3.9518182277679443,0.27275264263153076,1.1655876636505127,-0.11741665750741959,2.27424955368042
64,19445,19444,-0.010982606559991837,-0.07190926373004913,1.0161235332489014,-2.7453885078430176,11.392597198486328,0.6593906879425049,1.9952260255813599,3.9507694244384766,0.27510762214660645,1.068604588508606,-0.1783151924610138,2.2892158031463623
65,19455,19454,0.07502993196249008,0.12095404416322708,0.908043622970581,-5.146675109863281,12.43928337097168,0.08606354147195816,1.9947583675384521,3.950425624847412,0.27588263154029846,0.9633884429931641,-0.18523186445236206,2.291048526763916
66,19465,19464,0.003060035640373826,-0.009505574591457844,0.9612900018692017,-6.594079971313477,14.27916431427002,0.7905278205871582,1.9944140911102295,3.950627565383911,0.27665042877197266,0.8365731239318848,-0.30191120505332947,2.3013079166412354
67,19475,19474,-0.015612701885402203,-0.03130194544792175,0.9788550734519958,-7.6453166007995605,15.707084655761719,0.8534334301948547,1.993891954421997,3.95107364654541,0.2766128182411194,0.603840708732605,-0.28989991545677185,2.300441265106201
68,19485,19484,0.0258791483938694,-0.023633617907762527,0.9682425260543823,-7.355705738067627,15.385224342346191,1.27175772190094,1.9939748048782349,3.950533866882324,0.2772836983203888,0.36917832493782043,-0.44750288128852844,2.320167303085327
69,19495,19494,-0.012491650879383087,0.005444614216685295,0.9573825001716614,-5.32580041885376,11.297908782958984,1.6155608892440796,1.988898515701294,3.9513819217681885,0.277927428483963,0.4428468346595764,-0.5130834579467773,2.323899745941162
70,19505,19504,-0.0007953500607982278,0.08066289126873016,0.9809702038764954,-2.8182930946350098,9.386857986450195,1.7381302118301392,1.9901373386383057,3.9515461921691895,0.27855536341667175,0.26309800148010254,-0.61562180519104,2.3464818000793457
71,19515,19514,0.013827589340507984,-0.06252331286668777,0.9532203674316406,0.3590855002403259,9.654027938842773,1.575652837753296,1.9859994649887085,3.9516000747680664,0.2810344398021698,0.26305079460144043,-0.6747518181800842,2.3636438846588135
72,19525,19524,0.003933296538889408,0.0001667677133809775,0.9993813633918762,2.884321451187134,8.722606658935547,1.7404567003250122,1.985081434249878,3.9523587226867676,0.28175485134124756,0.0979142040014267,-0.5993514060974121,2.3753859996795654
73,19535,19534,-0.013751830905675888,0.0003498313599266112,1.018344759941101,3.566232204437256,7.906340599060059,1.719163417816162,1.984978199005127,3.95215106010437,0.2824042737483978,-0.040044669061899185,-0.5622889995574951,2.394134998321533
74,19545,19544,0.036731407046318054,-0.029566554352641106,0.9517869353294373,3.9659669399261475,7.63258171081543,1.4789903163909912,1.9828053712844849,3.9506494998931885,0.283727765083313,-0.09088427573442459,-0.5169154405593872,2.408299684524536
75,19555,19554,-0.030140843242406845,0.022240659222006798,1.031812071800232,3.5884523391723633,6.141329765319824,1.67238187789917,1.9823541641235352,3.9497270584106445,0.28447434306144714,-0.21659962832927704,-0.46503058075904846,2.424978494644165
76,19565,19564,0.01439196802675724,-0.013348347507417202,1.0301276445388794,2.997488021850586,5.868734836578369,1.5617612600326538,1.9784088134765625,3.951533079147339,0.2852220833301544,-0.2156088799238205,-0.4992980659008026,2.439253568649292
77,19575,19574,-0.0009677093476057053,0.012409639544785023,1.0120103359222412,1.9576908349990845,6.8244805335998535,1.349717140197754,1.9766756296157837,3.9540975093841553,0.283573716878891,-0.1620360016822815,-0.45607703924179077,2.4491539001464844
78,19585,19584,-0.026410114020109177,-0.033302854746580124,0.9462563991546631,0.8070812225341797,7.678422451019287,1.7324910163879395,1.9776893854141235,3.952883005142212,0.2842104732990265,-0.36492273211479187,-0.432405561208725,2.4696614742279053
79,19595,19594,-0.021351071074604988,0.0178549662232399,1.0140659809112549,-0.006216360721737146,6.613340377807617,2.1297879219055176,1.9776991605758667,3.9515645503997803,0.28476351499557495,-0.4876958727836609,-0.4290764331817627,2.4887542724609375
80,19605,19604,0.058921974152326584,-0.17181557416915894,0.9682565331459045,-0.32381904125213623,7.685397148132324,1.5891927480697632,1.9775395393371582,3.9510891437530518,0.2853130102157593,-0.5689578652381897,-0.43633124232292175,2.5100810527801514
81,19615,19614,-0.047054510563611984,0.005548772402107716,1.0550734996795654,-0.03880900517106056,6.022614002227783,1.654005527496338,1.976050853729248,3.9507250785827637,0.28468796610832214,-0.5279573798179626,-0.44578537344932556,2.5191256999969482
82,19625,19624,-0.006582156755030155,-0.0755251869559288,0.9517450928688049,-0.37788328528404236,6.586379051208496,1.7607698440551758,1.9765032529830933,3.950465202331543,0.28520920872688293,-0.7054317593574524,-0.4440571069717407,2.540834665298462
83,19635,19634,0.03988366201519966,-0.05750061199069023,0.9398233294487,-0.23966455459594727,3.416762590408325,2.064011812210083,1.975615382194519,3.9504647254943848,0.2856374979019165,-0.7346161603927612,-0.4509519636631012,2.5555331707000732
84,19645,19644,-0.040018316358327866,0.03493226692080498,0.9197551012039185,0.30029943585395813,0.4696177840232849,2.44537091255188,1.9753668308258057,3.9523098468780518,0.28509286046028137,-0.8370941281318665,-0.45572662353515625,2.5785610675811768
85,19655,19654,-0.023892903700470924,-0.02163579873740673,1.016167163848877,1.244454026222229,-1.0986778736114502,2.6739938259124756,1.9736697673797607,3.952087640762329,0.2853734493255615,-0.7240819334983826,-0.4509026110172272,2.600954294204712
86,19665,19664,0.00736562954261899,-0.0008107814937829971,0.9717044830322266,2.024744749069214,-1.2234841585159302,2.3467257022857666,1.9732831716537476,3.952820062637329,0.28566858172416687,-0.7824704051017761,-0.41776716709136963,2.6306445598602295
87,19675,19674,0.009354392066597939,-0.029424995183944702,0.9736254215240479,2.6508121490478516,-1.2500392198562622,2.011075735092163,1.9736921787261963,3.952120304107666,0.28465136885643005,-0.806416928768158,-0.38018766045570374,2.660003900527954
88,19685,19684,0.010311448015272617,0.025293290615081787,1.0581892728805542,2.8044655323028564,-1.0683597326278687,2.3240416049957275,1.972688913345337,3.9518396854400635,0.2848333418369293,-0.8330369591712952,-0.32816553115844727,2.686668634414673
89,19695,19694,0.03546365350484848,0.016555508598685265,1.0638357400894165,2.8165574073791504,-0.7823379039764404,2.4009387493133545,1.971244215965271,3.9512078762054443,0.2850305438041687,-0.7571091651916504,-0.36351290345191956,2.699936866760254
90,19705,19704,-0.03162030875682831,-0.002696729963645339,1.0409278869628906,2.159607410430908,0.4060620069503784,2.750439405441284,1.971737265586853,3.9515111446380615,0.28375041484832764,-0.7984890341758728,-0.390418142080307,2.7208404541015625
91,19715,19714,0.026436330750584602,-0.015590175054967403,1.0028302669525146,2.255408763885498,0.5655635595321655,2.131615400314331,1.9711681604385376,3.9519522190093994,0.2839818000793457,-0.8416114449501038,-0.3397766649723053,2.753366708755493
92,19725,19724,0.0007626737933605909,-0.0007001503836363554,1.0521118640899658,3.907278299331665,0.43608587980270386,1.9372800588607788,1.971203088760376,3.951714515686035,0.28423380851745605,-0.7891731262207031,-0.2900331914424896,2.7773523330688477
93,19735,19734,-0.009301932528614998,-0.0006980604957789183,1.0702558755874634,5.206531047821045,-2.0384938716888428,2.109905242919922,1.970259189605713,3.952869415283203,0.28454285860061646,-0.7894636988639832,-0.28430211544036865,2.793489694595337
94,19745,19744,-0.01760922744870186,-0.0010341873858124018,0.9468755125999451,4.873295307159424,-0.4109911322593689,2.1058952808380127,1.9689667224884033,3.9511337280273438,0.2864726483821869,-0.7019875645637512,-0.17236411571502686,2.8218278884887695
95,19755,19754,-0.03170191869139671,-0.02154533751308918,0.9649950265884399,3.374494791030884,-1.8186357021331787,2.9867169857025146,1.969063401222229,3.9516148567199707,0.2868594527244568,-0.7506195902824402,-0.17217440903186798,2.840836763381958
96,19765,19764,0.04628363251686096,-0.13059353828430176,1.0657585859298706,3.261446475982666,-2.227074384689331,2.4412386417388916,1.9680033922195435,3.951601266860962,0.28723856806755066,-0.727151095867157,-0.11018450558185577,2.8754777908325195
97,19775,19774,0.008393840864300728,-0.06550301611423492,1.0147770643234253,3.415064811706543,0.5169927477836609,2.2577157020568848,1.9678577184677124,3.952134847640991,0.28577709197998047,-0.7306950092315674,-0.1247674748301506,2.8908376693725586
98,19785,19784,-0.028034470975399017,-0.03376711905002594,0.9346659779548645,2.3544507026672363,8.055213928222656,2.625267267227173,1.968125581741333,3.9526312351226807,0.2860676944255829,-0.823726236820221,-0.12254177778959274,2.9090943336486816
99,19795,19794,0.048495206981897354,-0.0848667174577713,1.0025503635406494,2.1253414154052734,11.537250518798828,3.1396772861480713,1.968887209892273,3.954158306121826,0.28628110885620117,-1.0320290327072144,-0.22940939664840698,2.91637921333313
100,19805,19804,0.04675539582967758,-0.13256371021270752,1.0911318063735962,2.5002074241638184,15.021589279174805,2.695831298828125,1.9696629047393799,3.95401930809021,0.28773826360702515,-1.238312840461731,-0.1584307849407196,2.9573724269866943
101,19815,19814,0.037310972809791565,-0.08762119710445404,0.986900269985199,3.8935112953186035,18.6171875,1.9505523443222046,1.9695217609405518,3.9537956714630127,0.288157194852829,-1.3515925407409668,-0.06449852138757706,2.9900951385498047
102,19825,19824,0.021717943251132965,-0.045047130435705185,0.9181468486785889,4.183845520019531,16.395437240600586,2.0193982124328613,1.9720162153244019,3.9519691467285156,0.28843954205513,-1.691012978553772,0.027049381285905838,3.0198721885681152
103,19835,19834,0.037943895906209946,-0.08436781913042068,1.0515722036361694,4.017789363861084,11.957097053527832,2.01894474029541,1.9709994792938232,3.95320200920105,0.288920134305954,-1.7029573917388916,-0.05520608648657799,3.0164034366607666
104,19845,19844,0.036464445292949677,-0.023546740412712097,1.032510757446289,3.3458149433135986,6.666430473327637,2.4771173000335693,1.9712474346160889,3.9525980949401855,0.2921423614025116,-1.86403489112854,0.03841228783130646,3.0530829429626465
105,19855,19854,-0.006393249146640301,0.044956695288419724,0.9245779514312744,3.893961191177368,2.140063524246216,1.9173142910003662,1.9708412885665894,3.9523229598999023,0.2928371727466583,-1.7384068965911865,-0.020357729867100716,3.0468175411224365
106,19865,19864,0.02945314534008503,0.02304813638329506,0.9830359816551208,4.061723709106445,-1.8790723085403442,2.1674344539642334,1.9720101356506348,3.952113389968872,0.29326358437538147,-1.867323398590088,0.07705963402986526,3.079516649246216
107,19875,19874,0.01018078625202179,-0.013790165074169636,1.11224365234375,4.8623576164245605,-5.501313209533691,2.497781276702881,1.970290184020996,3.9518067836761475,0.29300931096076965,-1.6798663139343262,0.10016955435276031,3.1003811359405518
108,19885,19884,0.010858417488634586,0.029850946739315987,1.0134214162826538,5.3951921463012695,-4.83523416519165,2.4359824657440186,1.971510648727417,3.951514959335327,0.29348769783973694,-1.7384041547775269,0.21175113320350647,3.1402289867401123
109,19895,19894,-0.00918370857834816,0.08191323280334473,1.0430045127868652,3.278510808944702,-2.0479393005371094,2.634133815765381,1.9710888862609863,3.9516727924346924,0.29407572746276855,-1.6616238355636597,0.2318817675113678,3.163346529006958
110,19905,19904,0.002497771754860878,0.0026694471016526222,1.0686033964157104,1.9372694492340088,-0.0860573872923851,2.7076938152313232,1.969809889793396,3.952221393585205,0.2936173975467682,-1.6310906410217285,0.2058560997247696,3.1788089275360107
111,19915,19914,-0.014393768273293972,-0.057560909539461136,0.9869651198387146,1.3657660484313965,3.3326845169067383,2.279031753540039,1.9700548648834229,3.949719190597534,0.29419347643852234,-1.7195203304290771,0.2639089822769165,3.211961030960083
112,19925,19924,-0.04300233721733093,0.09612533450126648,0.9354119300842285,-0.4048297107219696,5.856015682220459,2.020747661590576,1.9701870679855347,3.9501523971557617,0.2947908937931061,-1.7674777507781982,0.2354964315891266,3.220658779144287
113,19935,19934,-0.007048077881336212,0.010436712764203548,0.968004584312439,-0.8230021595954895,5.671036720275879,1.7305326461791992,1.9708234071731567,3.9493720531463623,0.29525935649871826,-1.9206265211105347,0.2522718906402588,3.244784355163574
114,19945,19944,-0.04181015118956566,0.002137300558388233,1.0114729404449463,0.7216606140136719,2.667475938796997,1.7401390075683594,1.9717631340026855,3.9492316246032715,0.29158347845077515,-1.9618622064590454,0.27460283041000366,3.2676541805267334
115,19955,19954,-0.07820074260234833,0.09440945088863373,1.026246428489685,0.7289978265762329,4.222652912139893,1.2011516094207764,1.972090721130371,3.948671340942383,0.2918511927127838,-1.9879416227340698,0.243038609623909,3.268496036529541
116,19965,19964,-0.0016898458125069737,0.06117575615644455,1.0405433177947998,1.6529855728149414,2.062309741973877,1.4445728063583374,1.9714759588241577,3.948306083679199,0.29226619005203247,-1.91792893409729,0.21163129806518555,3.275350332260132
117,19975,19974,0.0370517373085022,-0.07025016099214554,0.9489182829856873,3.881852388381958,-1.0099239349365234,1.4979262351989746,1.9724303483963013,3.948204278945923,0.29452815651893616,-1.9694324731826782,0.28208687901496887,3.3010101318359375
118,19985,19984,0.039196763187646866,-0.03057781793177128,0.9041483402252197,6.040189266204834,-3.9038896560668945,1.4863337278366089,1.9729079008102417,3.948441982269287,0.2949100732803345,-1.9684209823608398,0.39062169194221497,3.332089900970459
119,19995,19994,0.025841837748885155,0.04635002091526985,1.003389835357666,4.3636393547058105,-5.3702802658081055,1.2996294498443604,1.9725755453109741,3.948488712310791,0.29534074664115906,-1.8340836763381958,0.49987900257110596,3.3685989379882812
120,20005,20004,0.061379361897706985,-0.19184760749340057,0.9908342361450195,2.7572078704833984,-6.541666030883789,0.8550325036048889,1.9753391742706299,3.9485247135162354,0.2950689494609833,-1.9245924949645996,0.4148934483528137,3.335520029067993
121,20015,20014,-0.009192228317260742,-0.004724505823105574,1.0565484762191772,0.8612198829650879,-7.37595272064209,0.5380455255508423,1.9768341779708862,3.947267532348633,0.2953164875507355,-1.8938698768615723,0.4767135679721832,3.351766586303711
122,20025,20024,-0.0011703643249347806,-0.02483658492565155,0.990771472454071,-0.6613072752952576,-7.402440071105957,0.37766867876052856,1.9759082794189453,3.946881055831909,0.295688271522522,-1.7669918537139893,0.49922606348991394,3.3649141788482666
123,20035,20034,0.05961070582270622,-0.1500243991613388,0.9514299631118774,-1.8048372268676758,-7.398967266082764,0.11077916622161865,1.9758949279785156,3.948594808578491,0.29555535316467285,-1.7550867795944214,0.3327158987522125,3.3175370693206787
124,20045,20044,-0.00385706196539104,-0.08217649161815643,0.9841712713241577,-1.6278244256973267,-8.443981170654297,0.3837229311466217,1.9759111404418945,3.948322057723999,0.29595741629600525,-1.5286097526550293,0.3321986198425293,3.3353147506713867
125,20055,20054,-0.050659824162721634,0.034480102360248566,1.0451818704605103,-0.36340099573135376,-7.94067907333374,0.37033575773239136,1.9778869152069092,3.9467978477478027,0.2962492108345032,-1.4672471284866333,0.33384737372398376,3.339107036590576
126,20065,20064,0.04428314045071602,-0.03722609207034111,1.018425703048706,0.9041750431060791,-6.355570316314697,0.8288205862045288,1.9802840948104858,3.9463326930999756,0.2964222729206085,-1.5648499727249146,0.36325234174728394,3.337512969970703
127,20075,20074,0.04582391306757927,-0.10486132651567459,0.9743128418922424,2.7548468112945557,-5.725275039672852,0.09697630256414413,1.9800567626953125,3.946237802505493,0.3019299805164337,-1.36441171169281,0.41219159960746765,3.359691619873047
128,20085,20084,0.027483878657221794,0.02194419875741005,1.000283122062683,3.737689733505249,-6.8746538162231445,0.2535040080547333,1.9812124967575073,3.9460997581481934,0.3024865984916687,-1.3308236598968506,0.48164838552474976,3.368661403656006
129,20095,20094,0.023172445595264435,-0.0009231676231138408,0.9926861524581909,3.5631561279296875,-6.937569618225098,0.09853338450193405,1.9830483198165894,3.945930004119873,0.30296003818511963,-1.349645733833313,0.5591893792152405,3.372131109237671
130,20105,20104,-0.022611036896705627,-0.0008035842911340296,1.0347046852111816,1.775829553604126,-6.826244831085205,-0.2976492941379547,1.9833145141601562,3.9456865787506104,0.303560733795166,-1.2049734592437744,0.6191956400871277,3.3839683532714844
131,20115,20114,0.02878303825855255,-0.06731883436441422,0.9595161080360413,-1.0840551853179932,-7.271600723266602,-0.5520086288452148,1.9858174324035645,3.947317600250244,0.30403608083724976,-1.2899084091186523,0.4836244285106659,3.333421230316162
132,20125,20124,0.02138412371277809,-0.006092261988669634,0.9819044470787048,-2.0945539474487305,-7.602665424346924,0.3778989017009735,1.987386703491211,3.9453415870666504,0.3047846555709839,-1.1112641096115112,0.4776591658592224,3.3395650386810303
133,20135,20134,0.0034384001046419144,-0.020277081057429314,1.00239098072052,-2.631131410598755,-8.836575508117676,-0.0655755028128624,1.9877698421478271,3.9469501972198486,0.3038361668586731,-1.1791459321975708,0.47942814230918884,3.335531234741211
134,20145,20144,0.04724767804145813,-0.0987686887383461,1.007106900215149,-3.6379165649414062,-8.253314018249512,0.09765002131462097,1.98870050907135,3.9470417499542236,0.3042689263820648,-1.1118470430374146,0.41582778096199036,3.325802803039551
135,20155,20154,0.0032621510326862335,-0.056289561092853546,0.9727148413658142,-2.3554012775421143,-8.24416446685791,-0.2689029574394226,1.9878290891647339,3.9463562965393066,0.3049898147583008,-0.9162116646766663,0.48131823539733887,3.3549015522003174
136,20165,20164,-0.024297159165143967,0.013988479040563107,0.9114762544631958,-0.6692059636116028,-10.80193042755127,-0.261011004447937,1.9897021055221558,3.945422887802124,0.3054329454898834,-0.8831491470336914,0.4445822834968567,3.3459062576293945
137,20175,20174,0.03013882227241993,-0.05773073062300682,1.0177618265151978,-1.5139836072921753,-8.549049377441406,0.21731655299663544,1.992437481880188,3.9439196586608887,0.30692121386528015,-0.8249430656433105,0.4210207164287567,3.3385674953460693
138,20185,20184,0.07211733609437943,-0.09181482344865799,0.9737522006034851,-1.5373362302780151,-6.216286659240723,0.6157720685005188,1.9937223196029663,3.944608688354492,0.30733823776245117,-0.7727447152137756,0.40289270877838135,3.3375868797302246
139,20195,20194,-0.02203318290412426,0.020237375050783157,1.0721797943115234,-1.7975298166275024,-9.38617992401123,0.595463752746582,1.9954618215560913,3.9431142807006836,0.307961642742157,-0.5918760895729065,0.38551899790763855,3.351341962814331
140,20205,20204,0.003883135272189975,-0.002179343719035387,1.006664514541626,-2.0543341636657715,-5.2367448806762695,0.29613611102104187,1.9982094764709473,3.9437055587768555,0.3098467290401459,-0.6317846179008484,0.36248651146888733,3.346320867538452
141,20215,20214,-0.00174909143242985,-0.02280060201883316,0.9635766744613647,-2.6122732162475586,-5.835926055908203,0.1416616588830948,1.9986522197723389,3.9438674449920654,0.3105078637599945,-0.4808332920074463,0.3346188962459564,3.353156328201294
142,20225,20224,0.03797445446252823,-0.03813459724187851,0.98149573802948,-2.5435593128204346,-6.019561290740967,0.3152225613594055,2.00022554397583,3.943995952606201,0.3111104369163513,-0.40360555052757263,0.3015269637107849,3.3566548824310303
143,20235,20234,0.07635162025690079,-0.01058151014149189,0.8847712874412537,-2.7009081840515137,-5.649959564208984,0.07043637335300446,2.003178596496582,3.9442734718322754,0.31457167863845825,-0.505392849445343,0.2728980779647827,3.3455681800842285
144,20245,20244,0.037741001695394516,0.003004767931997776,0.9609649777412415,-2.6261579990386963,-7.624558925628662,0.14090071618556976,2.005582809448242,3.9441757202148438,0.3152971565723419,-0.43212148547172546,0.24077869951725006,3.3451802730560303
145,20255,20254,0.009458471089601517,-0.032434817403554916,0.9379814863204956,-2.0081212520599365,-9.109947204589844,0.5043248534202576,2.0051581859588623,3.9443094730377197,0.31608015298843384,-0.1757841557264328,0.20457281172275543,3.3582961559295654
146,20265,20264,-0.025086188688874245,0.03835638239979744,1.047848105430603,-1.3011521100997925,-9.862890243530273,0.08120880275964737,2.0072104930877686,3.945202350616455,0.3165668845176697,-0.13418622314929962,0.10269573330879211,3.358964443206787
147,20275,20274,0.06898743659257889,-0.017184680327773094,0.8905781507492065,0.43217161297798157,-8.287973403930664,0.05357509106397629,2.0104410648345947,3.944668769836426,0.31521084904670715,-0.24555115401744843,0.1758912205696106,3.3505067825317383
148,20285,20284,-0.046624843031167984,0.11894601583480835,0.9106902480125427,1.8637374639511108,-7.861971378326416,0.33534544706344604,2.0089938640594482,3.9437003135681152,0.3158327639102936,0.02719247154891491,0.18933460116386414,3.3618719577789307
149,20295,20294,0.004661558195948601,-0.08042144775390625,1.0171111822128296,1.6098148822784424,-6.6550493240356445,0.3801990747451782,2.0123963356018066,3.942915916442871,0.31591346859931946,-0.15189899504184723,0.2197440266609192,3.3494620323181152
150,20305,20304,-0.011430568061769009,-0.0376194529235363,1.020490288734436,1.8966891765594482,-5.6811299324035645,-0.03570012003183365,2.012491464614868,3.9441919326782227,0.31432443857192993,0.11714828759431839,0.24724960327148438,3.3685061931610107
151,20315,20314,0.003546453546732664,-0.07936788350343704,0.8559305667877197,-0.663930356502533,-4.393733501434326,0.02100541442632675,2.0159690380096436,3.9438531398773193,0.3142651319503784,0.004660038277506828,0.22337263822555542,3.359551191329956
152,20325,20324,0.06114695966243744,-0.18474481999874115,0.9522373080253601,-1.9896339178085327,-4.6962409019470215,0.6898672580718994,2.016094923019409,3.9437928199768066,0.3145996034145355,0.18622921407222748,0.22233076393604279,3.368018865585327
153,20335,20334,0.004681183025240898,-0.1913892924785614,1.074776291847229,-2.032877206802368,-4.718824863433838,0.09838705509901047,2.0165674686431885,3.9436705112457275,0.31278109550476074,0.1847243458032608,0.27173250913619995,3.367349147796631
154,20345,20344,0.07202331721782684,-0.041695017367601395,0.9583225250244141,-2.071981191635132,-2.467475175857544,-0.00811850093305111,2.0178000926971436,3.9439034461975098,0.31265372037887573,0.2527289092540741,0.23375242948532104,3.374112606048584
155,20355,20354,0.04871972277760506,-0.048458900302648544,0.8503749966621399,-3.4533472061157227,-4.821602821350098,-0.027322925627231598,2.0168581008911133,3.9451687335968018,0.3127281665802002,0.4463348090648651,0.20471331477165222,3.385282278060913
156,20365,20364,0.01857808046042919,-0.12966006994247437,0.9341441988945007,-3.042797088623047,-5.193017959594727,0.49718955159187317,2.0175907611846924,3.945451021194458,0.3125799298286438,0.53023761510849,0.11954120546579361,3.3914012908935547
157,20375,20374,0.02084006741642952,0.043694354593753815,0.9557526111602783,-1.3259721994400024,-3.0830869674682617,-0.19638608396053314,2.018880844116211,3.9464898109436035,0.312116414308548,0.5153639316558838,0.029472822323441505,3.4003334045410156
158,20385,20384,-0.0364835187792778,0.04101371392607689,1.0312573909759521,0.6823203563690186,-2.796196699142456,0.005869550630450249,2.0209410190582275,3.9456512928009033,0.3117479383945465,0.4534130096435547,0.09017520397901535,3.3876895904541016
159,20395,20394,-0.008119432255625725,-0.06587443500757217,0.9715483784675598,1.1015616655349731,-1.866493821144104,0.4115958511829376,2.022273302078247,3.94568133354187,0.3113878667354584,0.48072993755340576,0.09899994730949402,3.385190486907959
160,20405,20404,-0.00831099133938551,-0.1388818621635437,1.037497878074646,1.8638992309570312,-1.5140758752822876,0.38339054584503174,2.022747278213501,3.945726156234741,0.3138386607170105,0.5679541826248169,0.04050169885158539,3.398284912109375
161,20415,20414,0.0196266807615757,-0.004968855995684862,0.9757235646247864,2.5031518936157227,-0.9911866188049316,0.27188822627067566,2.023280620574951,3.9461820125579834,0.3137204051017761,0.628681480884552,0.07792308181524277,3.4005773067474365
162,20425,20424,0.04991855472326279,-0.06468033045530319,0.9358783960342407,2.3787360191345215,-0.8349525928497314,0.8296937942504883,2.02471661567688,3.946834087371826,0.31354376673698425,0.589314341545105,0.05636250600218773,3.4108223915100098
163,20435,20434,0.01996210776269436,-0.1298891007900238,1.0158734321594238,1.0017940998077393,-0.80474454164505,0.7147736549377441,2.0260863304138184,3.9466845989227295,0.3139338493347168,0.6296058893203735,0.10296560078859329,3.416024923324585
164,20445,20444,-0.02065049670636654,-0.044936347752809525,1.0345373153686523,1.2729002237319946,-0.7845548987388611,0.7417761087417603,2.027461290359497,3.946493625640869,0.3137955665588379,0.6720675826072693,0.12835435569286346,3.420140504837036
165,20455,20454,0.09221974015235901,-0.018178565427660942,0.9734745025634766,0.46866360306739807,-0.38091909885406494,0.8125287294387817,2.0313472747802734,3.94636607170105,0.31351539492607117,0.4834268391132355,0.15868088603019714,3.422651529312134
166,20465,20464,0.024694111198186874,-0.018433498218655586,0.9906189441680908,-0.47863346338272095,-0.13210764527320862,1.3205187320709229,2.033987522125244,3.9461658000946045,0.31454402208328247,0.4582710862159729,0.17127491533756256,3.429957628250122
167,20475,20474,0.003929818514734507,-0.08188674598932266,1.0152409076690674,-1.3571641445159912,-1.1057565212249756,1.0504847764968872,2.035475254058838,3.9461209774017334,0.3144983947277069,0.5127249956130981,0.16828887164592743,3.442359209060669
168,20485,20484,0.0031460486352443695,-0.026111746206879616,1.0014469623565674,-2.103990077972412,-2.9960410594940186,1.1419084072113037,2.0369019508361816,3.946270704269409,0.31438329815864563,0.5067000985145569,0.07699130475521088,3.4676756858825684
169,20495,20494,-0.004335502162575722,-0.041837479919195175,1.0063014030456543,-2.498206615447998,-4.252014636993408,0.8412458896636963,2.033175230026245,3.9467148780822754,0.3143351972103119,0.6022730469703674,0.054965872317552567,3.4865167140960693
170,20505,20504,-0.019945938140153885,-0.04065989330410957,0.9842050671577454,-0.9187256693840027,-3.9933254718780518,1.1159015893936157,2.0333714485168457,3.9457483291625977,0.3163570165634155,0.7632080316543579,0.028408445417881012,3.4917349815368652
171,20515,20514,0.02420906163752079,0.03659091144800186,1.0448957681655884,-0.02663768269121647,-2.283891201019287,1.1646654605865479,2.036057472229004,3.9457521438598633,0.3163582384586334,0.6908148527145386,0.025675447657704353,3.49919056892395
172,20525,20524,0.01694248802959919,0.001112049212679267,1.0259782075881958,-0.22750607132911682,-0.0051659452728927135,1.3848503828048706,2.036700963973999,3.9458060264587402,0.3164421021938324,0.7624189257621765,0.03506947681307793,3.5104258060455322
173,20535,20534,0.007583266124129295,0.009240999817848206,1.0054192543029785,-0.9407872557640076,2.370772361755371,1.1569126844406128,2.0383095741271973,3.9459352493286133,0.31981411576271057,0.7206679582595825,0.04174736514687538,3.5210962295532227
174,20545,20544,0.032518647611141205,0.10497051477432251,1.0462453365325928,-2.334951639175415,4.347880840301514,1.3085029125213623,2.0393455028533936,3.9460811614990234,0.32009902596473694,0.7014663815498352,0.03343622386455536,3.533844470977783
175,20555,20554,0.017190037295222282,0.054392892867326736,1.0401440858840942,-2.907731056213379,4.299527645111084,1.028053641319275,2.0397825241088867,3.946314573287964,0.32045307755470276,0.7180795073509216,0.001901830080896616,3.548647403717041
176,20565,20564,-0.023736372590065002,0.087563157081604,1.0001486539840698,-2.356626272201538,3.4124574661254883,1.0299409627914429,2.0401623249053955,3.9465270042419434,0.3212307095527649,0.7281587719917297,-0.035293977707624435,3.5644326210021973
177,20575,20574,0.018399804830551147,0.14248451590538025,1.0149539709091187,-1.4933032989501953,2.7929563522338867,0.42447131872177124,2.042235851287842,3.947570323944092,0.3216158449649811,0.6062219738960266,-0.06451866030693054,3.5756969451904297
178,20585,20584,0.013117769733071327,0.07647976279258728,1.0130045413970947,-0.3992437720298767,3.3841917514801025,0.5705673694610596,2.043494939804077,3.94771146774292,0.32200339436531067,0.5669807195663452,-0.08110900968313217,3.5815188884735107
179,20595,20594,-0.066023088991642,0.06911373883485794,1.0325111150741577,1.7422374486923218,1.327136754989624,0.15159180760383606,2.04443359375,3.947442054748535,0.32241514325141907,0.5263949632644653,-0.07831762731075287,3.583139657974243
180,20605,20604,0.011424560099840164,-0.0036026984453201294,0.9759920835494995,3.467362403869629,0.0031062003690749407,0.03211308643221855,2.0454795360565186,3.9473302364349365,0.32371407747268677,0.4465515613555908,-0.044317930936813354,3.5857906341552734
181,20615,20614,-0.05300888046622276,0.11896286904811859,1.0344538688659668,4.727881908416748,-1.3135967254638672,-0.8042392730712891,2.0455453395843506,3.947009325027466,0.32429832220077515,0.5337252020835876,0.019689584150910378,3.580376386642456
182,20625,20624,-0.11544814705848694,0.09984206408262253,1.0198419094085693,6.351144313812256,-2.9341466426849365,-0.5899672508239746,2.0436675548553467,3.946749210357666,0.32494649291038513,0.6389305591583252,0.10550500452518463,3.571110963821411
183,20635,20634,-0.09436396509408951,0.07004325836896896,0.9632256031036377,3.441602945327759,0.3735300302505493,0.031576693058013916,2.0445778369903564,3.9514718055725098,0.3224966526031494,0.6774913668632507,0.057049091905355453,3.6107397079467773
184,20645,20644,0.0071077062748372555,0.0815710499882698,0.9439736008644104,1.388200044631958,2.6869688034057617,-0.5477159023284912,2.044494152069092,3.9512102603912354,0.32283732295036316,0.6712804436683655,0.13077516853809357,3.6031653881073
185,20655,20654,0.0009683645912446082,0.021305521950125694,0.9591858386993408,-0.760354220867157,3.6628270149230957,-0.9445018768310547,2.0439133644104004,3.949235439300537,0.32313597202301025,0.7014780640602112,0.08419087529182434,3.5979154109954834
186,20665,20664,0.0373169481754303,-0.01424288097769022,0.9522559642791748,-2.469505786895752,3.6492204666137695,-0.9032039642333984,2.045206308364868,3.9487240314483643,0.3208697736263275,0.6932454705238342,0.08319033682346344,3.598449945449829
187,20675,20674,0.01446365937590599,-0.017446767538785934,0.9787754416465759,-2.6786625385284424,4.108696937561035,-1.5380338430404663,2.0463662147521973,3.950700044631958,0.3208748400211334,0.5425916910171509,-0.01937014050781727,3.6026804447174072
188,20685,20684,0.06345627456903458,-0.05526164546608925,0.9280862808227539,-2.0093791484832764,6.431597709655762,-1.4258462190628052,2.0470235347747803,3.9527952671051025,0.320880264043808,0.46962741017341614,-0.03764902055263519,3.607395887374878
189,20695,20694,-0.017351210117340088,-0.004480471834540367,0.9912846684455872,-0.7619258165359497,8.306222915649414,-1.4075831174850464,2.0474352836608887,3.952470064163208,0.3208451569080353,0.42911607027053833,-0.05206255987286568,3.5928914546966553
190,20705,20704,-0.013401580974459648,-0.20184862613677979,0.9662672281265259,1.2024537324905396,4.9390950202941895,-0.7963083386421204,2.047135353088379,3.9521167278289795,0.32011473178863525,0.37408629059791565,-0.047512542456388474,3.585123300552368
191,20715,20714,0.0043730903416872025,-0.07571148872375488,0.9864796996116638,2.454286575317383,5.729244709014893,-1.785078525543213,2.047956705093384,3.9513742923736572,0.319989949464798,0.3392784297466278,-0.011540842242538929,3.56752347946167
192,20725,20724,0.05062560737133026,-0.02376236766576767,0.8961284160614014,2.2793021202087402,4.84462833404541,-1.8363933563232422,2.048332452774048,3.951173782348633,0.319827675819397,0.311868816614151,0.051497042179107666,3.5343616008758545
193,20735,20734,0.003617196576669812,-0.08788008242845535,0.9644970297813416,1.5707422494888306,2.970937728881836,-1.3915793895721436,2.0480148792266846,3.9506185054779053,0.31837713718414307,0.3674810528755188,0.026222631335258484,3.524061918258667
194,20745,20744,0.08762024343013763,-0.05754300579428673,0.8667359948158264,1.0612540245056152,1.1338152885437012,-1.4383546113967896,2.0486674308776855,3.950378179550171,0.31804347038269043,0.37180742621421814,0.07369669526815414,3.5054943561553955
195,20755,20754,0.005677906330674887,0.09833473712205887,0.9716193675994873,-0.6620068550109863,0.3939671218395233,-1.3031573295593262,2.0484368801116943,3.9509758949279785,0.31762412190437317,0.42240044474601746,0.044767025858163834,3.4984896183013916
196,20765,20764,0.005969917867332697,-0.012893829494714737,0.9240631461143494,-0.8738133907318115,2.425175666809082,-1.3470903635025024,2.0498828887939453,3.9504611492156982,0.31500673294067383,0.2968054413795471,0.05923683941364288,3.4860565662384033
197,20775,20774,-0.03173337131738663,-0.05875562131404877,1.1005971431732178,0.7205601930618286,5.987130641937256,-1.0310533046722412,2.049956798553467,3.9505598545074463,0.31432536244392395,0.32351768016815186,0.057433128356933594,3.4728856086730957
198,20785,20784,0.023865344002842903,-0.02396615780889988,1.0277740955352783,3.8445563316345215,10.955757141113281,-1.0981886386871338,2.050773859024048,3.950453042984009,0.3136434555053711,0.2764238119125366,0.08744319528341293,3.459984064102173
199,20795,20794,-0.04595419764518738,0.015176013112068176,0.9167924523353577,5.116983890533447,16.09807586669922,-0.2454369217157364,2.051708459854126,3.9502058029174805,0.31433340907096863,0.13181033730506897,0.16442511975765228,3.444905996322632
200,20805,20804,-0.0176322590559721,0.01258478406816721,1.0068084001541138,3.896651268005371,15.89946174621582,0.17867286503314972,2.052778959274292,3.9514365196228027,0.31374767422676086,-0.0865681916475296,0.10438016057014465,3.453306198120117
201,20815,20814,0.019273756071925163,-0.06994962692260742,1.0056424140930176,0.7629385590553284,11.085162162780762,0.49750903248786926,2.0512232780456543,3.951083183288574,0.31337422132492065,-0.01900888979434967,0.19739551842212677,3.475855588912964
202,20825,20824,-0.004053536802530289,0.09980473667383194,1.0539445877075195,-3.9952194690704346,5.517902851104736,0.9435288310050964,2.052107095718384,3.954462766647339,0.3128359913825989,-0.1649467945098877,0.14972713589668274,3.4859097003936768
203,20835,20834,0.026139743626117706,-0.07888282090425491,1.0947331190109253,-6.919567584991455,1.7740986347198486,1.9784971475601196,2.0528476238250732,3.953728199005127,0.31384482979774475,-0.21613343060016632,0.17306172847747803,3.485415458679199
204,20845,20844,0.030058691278100014,-0.08573447912931442,1.0464143753051758,-5.760610103607178,0.42759713530540466,2.272228956222534,2.052938938140869,3.95462965965271,0.31353095173835754,-0.18570169806480408,0.0026433973107486963,3.51238751411438
205,20855,20854,0.005248083733022213,-0.08500168472528458,0.9640749096870422,-3.7496445178985596,3.1847736835479736,2.6477463245391846,2.05391788482666,3.954674005508423,0.31319281458854675,-0.2591646909713745,-0.0647427886724472,3.534480333328247
206,20865,20864,-0.01544330082833767,0.006354382261633873,1.0289177894592285,-0.6084750294685364,4.924929141998291,3.1967740058898926,2.0523970127105713,3.9538888931274414,0.31483447551727295,-0.20277102291584015,-0.0213859174400568,3.5542383193969727
207,20875,20874,-0.029233936220407486,0.026564642786979675,1.06094229221344,3.1067492961883545,10.510480880737305,4.107703685760498,2.0534873008728027,3.9546759128570557,0.31462255120277405,-0.3336292505264282,-0.08995631337165833,3.585833787918091
208,20885,20884,-0.02205163612961769,0.007671901024878025,1.0186330080032349,5.157370090484619,14.139822006225586,4.911266326904297,2.054650068283081,3.9544384479522705,0.31448227167129517,-0.46430519223213196,-0.017413247376680374,3.6240649223327637
209,20895,20894,0.01059865951538086,-0.05498698353767395,0.9520915746688843,4.183652400970459,14.75558090209961,6.272354602813721,2.0553336143493652,3.9550769329071045,0.31326884031295776,-0.5687420964241028,0.011827632784843445,3.6741857528686523
210,20905,20904,-0.032281361520290375,0.07283630967140198,0.9286442399024963,-0.9194245338439941,10.198628425598145,5.208768844604492,2.0555431842803955,3.9559948444366455,0.31313684582710266,-0.7041866779327393,0.10965961962938309,3.7429404258728027
211,20915,20914,-0.0318249836564064,0.003926035016775131,0.9953444004058838,-7.0364556312561035,4.29095983505249,3.5633883476257324,2.0568010807037354,3.9557743072509766,0.3129225969314575,-0.8327383995056152,0.11586521565914154,3.796405076980591
212,20925,20924,-0.035109613090753555,0.10788974910974503,1.09874427318573,-11.38110065460205,-0.0542222261428833,2.628319501876831,2.0562021732330322,3.956357717514038,0.31279122829437256,-0.7631919384002686,0.026014864444732666,3.833976984024048
213,20935,20934,-0.0869729220867157,0.10428070276975632,1.0090397596359253,-13.560592651367188,-3.81366229057312,1.931161642074585,2.0580780506134033,3.9565622806549072,0.3151421844959259,-0.8006846904754639,-0.13507282733917236,3.853217601776123
214,20945,20944,0.007208895403891802,0.032069843262434006,1.0837650299072266,-10.169657707214355,-7.074148654937744,0.33768051862716675,2.0590782165527344,3.9575717449188232,0.3150637149810791,-0.8479605317115784,-0.34108710289001465,3.872252941131592
215,20955,20954,0.010258647613227367,-0.028103208169341087,1.0051101446151733,-3.617032051086426,-8.715163230895996,-1.5958316326141357,2.0580832958221436,3.9581356048583984,0.31523600220680237,-0.59635990858078,-0.48788413405418396,3.879685163497925
216,20965,20964,-0.0035456756595522165,-0.027736542746424675,1.0010210275650024,5.041830539703369,-7.657453536987305,-3.356255531311035,2.058204412460327,3.958329200744629,0.3159424364566803,-0.4916018843650818,-0.5262684226036072,3.8726377487182617
217,20975,20974,0.0539884977042675,0.019864792004227638,0.976356029510498,13.209749221801758,-5.1511359214782715,-5.118763446807861,2.059326171875,3.9604244232177734,0.31611448526382446,-0.4857417941093445,-0.49763742089271545,3.8667593002319336
218,20985,20984,0.013749216683208942,-0.05713155120611191,1.0605884790420532,12.332582473754883,1.3249831199645996,-6.865540504455566,2.059985637664795,3.959740161895752,0.31632259488105774,-0.4547272324562073,-0.2660146653652191,3.8327672481536865
219,20995,20994,0.0032630956266075373,-0.04760446026921272,1.007652759552002,7.192390441894531,4.840230464935303,-8.252365112304688,2.0609381198883057,3.9593029022216797,0.3152882754802704,-0.5120157599449158,-0.1971316933631897,3.7547922134399414
220,21005,21004,0.020937100052833557,-0.04683607444167137,0.8877830505371094,0.03939080238342285,7.944683074951172,-8.450902938842773,2.061471700668335,3.960374593734741,0.3153877258300781,-0.5669029951095581,-0.19230040907859802,3.6688244342803955
221,21015,21014,0.0730760395526886,-0.13188990950584412,0.9974886178970337,-3.7108592987060547,10.091906547546387,-8.263579368591309,2.062147378921509,3.9606306552886963,0.31546130776405334,-0.6782306432723999,-0.14929334819316864,3.585603713989258
222,21025,21024,0.006131662521511316,0.019289612770080566,0.9434174299240112,-2.4515011310577393,12.69491195678711,-8.851814270019531,2.0620923042297363,3.9615824222564697,0.3155006766319275,-0.7210721969604492,-0.25438302755355835,3.4974474906921387
223,21035,21034,-0.052863918244838715,0.018547233194112778,0.9154964089393616,1.7661066055297852,9.656495094299316,-8.754700660705566,2.0626161098480225,3.9611997604370117,0.3139137923717499,-0.9004515409469604,-0.24967549741268158,3.4329910278320312
224,21045,21044,-0.006826241035014391,0.005109705030918121,1.0120497941970825,7.539205551147461,5.4225664138793945,-9.178976058959961,2.0630435943603516,3.963515520095825,0.3137899339199066,-1.0188753604888916,-0.25642096996307373,3.3429253101348877
225,21055,21054,0.004658043384552002,0.1016579195857048,1.048412561416626,13.748590469360352,2.545038938522339,-10.028136253356934,2.063321352005005,3.9643194675445557,0.3136059641838074,-1.056457757949829,-0.2405402511358261,3.2474780082702637
226,21065,21064,-0.03312686085700989,0.05756024643778801,1.066139817237854,18.681493759155273,1.4048125743865967,-12.444345474243164,2.0628318786621094,3.9647297859191895,0.31259965896606445,-1.0381686687469482,-0.11941973119974136,3.1473467350006104
227,21075,21074,-0.04702603071928024,-0.0611768402159214,1.0513945817947388,22.228443145751953,-3.029478073120117,-12.4789400100708,2.063086986541748,3.9637296199798584,0.31247198581695557,-1.0245366096496582,0.17263580858707428,3.043854236602783
228,21085,21084,-0.01698444038629532,-0.012915682047605515,1.025441288948059,21.176836013793945,-3.530634880065918,-12.1937255859375,2.0634593963623047,3.9643912315368652,0.31242695450782776,-0.9086585640907288,0.3410848081111908,2.910970449447632
229,21095,21094,0.01411114726215601,0.0195965226739645,1.0316410064697266,15.020337104797363,-3.5488944053649902,-11.44041633605957,2.066753625869751,3.964611053466797,0.31482988595962524,-1.1257418394088745,0.574458658695221,2.7928452491760254
230,21105,21104,0.00043336855014786124,-0.036083415150642395,0.984688937664032,6.97358512878418,-4.158915996551514,-11.401065826416016,2.066885471343994,3.9652514457702637,0.3150387704372406,-0.9867528676986694,0.7032850384712219,2.6666812896728516
231,21115,21114,-0.03874887153506279,0.1731555312871933,1.0517171621322632,0.45786184072494507,-4.973564147949219,-12.018523216247559,2.067633628845215,3.9651315212249756,0.3152793347835541,-0.8652548789978027,0.7168010473251343,2.5095131397247314
232,21125,21124,0.05404191091656685,0.03712281957268715,0.9283028841018677,-3.4665894508361816,-3.0601656436920166,-11.784418106079102,2.067554473876953,3.964902400970459,0.3126700520515442,-0.810772716999054,0.7731920480728149,2.4030799865722656
233,21135,21134,0.020679380744695663,0.00391022302210331,0.9766845703125,-5.086111068725586,-1.727117896080017,-11.387170791625977,2.067669630050659,3.9643921852111816,0.31265661120414734,-0.7772719264030457,0.7541567087173462,2.2876110076904297
234,21145,21144,-0.014370053075253963,-0.0045969667844474316,1.0407776832580566,-4.698095798492432,-1.280756950378418,-11.79880428314209,2.0686440467834473,3.9654171466827393,0.3125562071800232,-0.8385280966758728,0.70734041929245,2.1607918739318848
235,21155,21154,-0.0036256720777601004,0.04487025365233421,0.9751846194267273,-2.8143341541290283,-0.12034498155117035,-11.11620044708252,2.069920301437378,3.965155601501465,0.312539666891098,-0.8220529556274414,0.5870018601417542,2.047813653945923
236,21165,21164,0.012572170235216618,-0.030500337481498718,0.9908943176269531,-1.7668722867965698,-0.5371888279914856,-11.405309677124023,2.070842981338501,3.9656808376312256,0.311286062002182,-0.8277028203010559,0.5815951824188232,1.93943190574646
237,21175,21174,-0.024662237614393234,0.009905443526804447,1.0264593362808228,0.2985815405845642,-1.8375688791275024,-11.256505012512207,2.071016550064087,3.9653031826019287,0.31122297048568726,-0.7428244948387146,0.5921057462692261,1.8354523181915283
238,21185,21184,0.020906109362840652,-0.009171253070235252,1.0153239965438843,2.860625982284546,-1.9179956912994385,-10.857189178466797,2.071474313735962,3.9648189544677734,0.3111157715320587,-0.7218589186668396,0.6353504061698914,1.7291597127914429
239,21195,21194,-0.03922736644744873,-0.00020429999858606607,1.0433313846588135,3.8225886821746826,-1.1617069244384766,-10.679546356201172,2.071967601776123,3.9663641452789307,0.3127119541168213,-0.7039218544960022,0.5568967461585999,1.6125043630599976
240,21205,21204,0.042125701904296875,-0.05876622721552849,1.0333704948425293,2.192416191101074,-2.3157362937927246,-9.383413314819336,2.073512077331543,3.9664533138275146,0.3127323091030121,-0.7815120816230774,0.6593124866485596,1.5262105464935303
241,21215,21214,-0.026232367381453514,0.059467535465955734,1.1220471858978271,1.2153329849243164,1.3496613502502441,-10.578227043151855,2.074018716812134,3.967848300933838,0.3128131628036499,-0.7684581279754639,0.6501038670539856,1.4240132570266724
242,21225,21224,-0.029866117984056473,0.1309911161661148,1.0442875623703003,1.0287752151489258,7.214787006378174,-10.616897583007812,2.076141357421875,3.967313528060913,0.31646910309791565,-0.9734298586845398,0.7083266973495483,1.321685791015625
243,21235,21234,-0.0010161559330299497,0.1018795445561409,0.9887762069702148,0.7758721709251404,1.6934833526611328,-9.772236824035645,2.0764873027801514,3.967313289642334,0.31694743037223816,-0.9549846053123474,0.7530694007873535,1.228050708770752
244,21245,21244,-0.036304980516433716,-0.09060708433389664,1.0159977674484253,0.5422609448432922,-0.8068293929100037,-10.473669052124023,2.076883554458618,3.967423677444458,0.3174636960029602,-0.8906152844429016,0.7872304320335388,1.1402881145477295
245,21255,21254,0.0030325460247695446,-0.07786693423986435,0.9756360054016113,1.0432301759719849,-6.854532241821289,-10.691225051879883,2.0765585899353027,3.967799425125122,0.3180171251296997,-0.7757570743560791,0.7416359782218933,1.040135145187378
246,21265,21264,-0.004132980480790138,0.013802438974380493,1.0285264253616333,1.4889191389083862,-11.046260833740234,-11.35180950164795,2.0774033069610596,3.968961477279663,0.323198139667511,-0.7413590550422668,0.7059588432312012,0.9351058602333069
247,21275,21274,-0.027902139350771904,-0.03518291562795639,0.9810053706169128,1.5183123350143433,-12.424684524536133,-11.753443717956543,2.0784382820129395,3.9691202640533447,0.3238798975944519,-0.7251401543617249,0.6802315711975098,0.8122114539146423
248,21285,21284,0.004965386353433132,-0.002452465705573559,1.006203532218933,0.7467500567436218,-11.035991668701172,-11.551946640014648,2.079340696334839,3.9697673320770264,0.32459312677383423,-0.5897954702377319,0.6547350883483887,0.6913188695907593
249,21295,21294,0.03047262690961361,0.0988353043794632,0.960422933101654,1.0698676109313965,-7.440042495727539,-12.012444496154785,2.078554153442383,3.968961238861084,0.3269882798194885,-0.31713464856147766,0.6997318267822266,0.5870340466499329
250,21305,21304,-0.02086479216814041,0.050063613802194595,1.052769660949707,2.0315542221069336,-3.253551721572876,-12.046310424804688,2.0804803371429443,3.9675228595733643,0.3277861773967743,-0.35190072655677795,0.8246681094169617,0.4683246612548828
251,21315,21314,-0.01029859110713005,0.07481228560209274,0.9891818761825562,1.173534870147705,1.825937271118164,-12.368860244750977,2.0808348655700684,3.9670512676239014,0.3285880386829376,-0.3066580891609192,0.8690757155418396,0.3504613935947418
252,21325,21324,-0.012801569886505604,-0.03850669413805008,0.9588928818702698,-0.6083013415336609,5.524998188018799,-11.520115852355957,2.0819387435913086,3.9672558307647705,0.3295475244522095,-0.4102998673915863,0.8962103128433228,0.2363896369934082
253,21335,21334,-0.018545527011156082,-0.11869979649782181,0.9898751378059387,-2.884948253631592,7.4191389083862305,-10.702779769897461,2.082303524017334,3.9679014682769775,0.33038365840911865,-0.3960162401199341,0.8141156435012817,0.12212452292442322
254,21345,21344,-0.008808577433228493,-0.17902258038520813,0.9799865484237671,-4.3774824142456055,7.349318504333496,-9.699634552001953,2.0836126804351807,3.9690377712249756,0.3311184048652649,-0.5518643260002136,0.7815933227539062,0.026064733043313026
255,21355,21354,0.011127164587378502,-0.2040737271308899,0.9599389433860779,-3.8147926330566406,4.261598587036133,-8.732290267944336,2.0844814777374268,3.9692623615264893,0.33196303248405457,-0.5478094220161438,0.7273960113525391,-0.06368356198072433
256,21365,21364,0.003962492570281029,-0.1973629593849182,0.9915919899940491,-1.2532410621643066,0.043722134083509445,-8.072010040283203,2.084522008895874,3.9685094356536865,0.33278852701187134,-0.5113786458969116,0.6853103637695312,-0.1503332257270813
257,21375,21374,-0.025831686332821846,0.008623825386166573,1.0178165435791016,2.2374818325042725,-4.683542728424072,-6.731490135192871,2.0856692790985107,3.968463182449341,0.33355697989463806,-0.4976063072681427,0.685950517654419,-0.22768080234527588
258,21385,21384,-0.01992238126695156,0.041213665157556534,1.0309396982192993,5.5235748291015625,-7.815424919128418,-6.140477657318115,2.087939500808716,3.967726469039917,0.33431458473205566,-0.48874449729919434,0.6671740412712097,-0.32330775260925293
259,21395,21394,-0.05331137403845787,0.14430271089076996,0.9788724780082703,6.045834541320801,-7.814661502838135,-4.942968368530273,2.0875658988952637,3.967646360397339,0.330239474773407,-0.35486888885498047,0.7694913744926453,-0.36844438314437866
260,21405,21404,-0.025047386065125465,0.11975999921560287,0.9988090991973877,4.03657341003418,-6.092680931091309,-4.712867259979248,2.0889084339141846,3.9668402671813965,0.3306638300418854,-0.30551305413246155,0.8743033409118652,-0.4245280921459198
261,21415,21414,0.008870692923665047,0.011980393901467323,0.9336963891983032,-0.4079168140888214,-1.959283709526062,-4.839170455932617,2.091094493865967,3.9661335945129395,0.33109691739082336,-0.28504785895347595,0.8582184314727783,-0.5060258507728577
262,21425,21424,0.010382949374616146,0.05306760221719742,0.9476466178894043,-5.386551380157471,2.9128212928771973,-4.408938407897949,2.0922818183898926,3.9665415287017822,0.3296150863170624,-0.33434006571769714,0.8462109565734863,-0.5514683127403259
263,21435,21434,0.004749612882733345,0.0030663690995424986,0.9332547187805176,-8.554012298583984,5.074312686920166,-4.707030773162842,2.0946743488311768,3.9652717113494873,0.3297848105430603,-0.4421992003917694,0.8320451378822327,-0.6317075490951538
264,21445,21444,-0.001069270190782845,-0.01592206209897995,0.929107129573822,-9.402355194091797,5.642075538635254,-4.9745965003967285,2.0957188606262207,3.9655344486236572,0.3300402760505676,-0.41998490691185,0.6885196566581726,-0.6734817028045654
265,21455,21454,-0.008043421432375908,-0.02065782994031906,0.9315177202224731,-8.861534118652344,3.7289369106292725,-5.126009464263916,2.0968003273010254,3.965404510498047,0.3317086398601532,-0.4817245304584503,0.6158145070075989,-0.7227340340614319
266,21465,21464,-0.0035786556545645,-0.013998053036630154,0.9348503947257996,-7.15809440612793,0.1805415004491806,-4.693751335144043,2.097722291946411,3.965198040008545,0.33186596632003784,-0.5075028538703918,0.5510010123252869,-0.771560549736023
267,21475,21474,-0.00020463537657633424,-0.0026938882656395435,0.9477343559265137,-4.197439670562744,-3.4651522636413574,-4.38962459564209,2.0973880290985107,3.9652199745178223,0.33206987380981445,-0.40000471472740173,0.4353252947330475,-0.8134288191795349
268,21485,21484,-0.07130943238735199,-0.06920402497053146,1.0022131204605103,-0.8061755895614624,-6.3197784423828125,-4.172626972198486,2.0985074043273926,3.965374231338501,0.33209455013275146,-0.38804173469543457,0.37316641211509705,-0.8599386811256409
269,21495,21494,-0.10225589573383331,-0.11168532073497772,1.0600619316101074,3.9960315227508545,-5.952234745025635,-3.0647759437561035,2.1001105308532715,3.964421510696411,0.3313602805137634,-0.39958664774894714,0.45153406262397766,-0.8922016024589539
270,21505,21504,-0.02540605328977108,-0.010774388909339905,0.9633024334907532,5.6599836349487305,-4.708976745605469,-2.2107419967651367,2.1004021167755127,3.9640421867370605,0.33145347237586975,-0.1987941861152649,0.5069969296455383,-0.9152132868766785
271,21515,21514,-0.020613864064216614,-0.14303191006183624,0.9660401344299316,4.543073654174805,-3.781949281692505,-2.298250436782837,2.1014301776885986,3.9633517265319824,0.331413596868515,-0.16710180044174194,0.5851188898086548,-0.9397134780883789
272,21525,21524,-0.014827379025518894,-0.13206058740615845,0.984490156173706,2.487480878829956,-4.850221157073975,-1.264418601989746,2.1027159690856934,3.963155746459961,0.3263798654079437,-0.16625988483428955,0.6429812908172607,-0.9631526470184326
273,21535,21534,0.007615521550178528,-0.19768722355365753,0.9787291288375854,-1.1778473854064941,0.4239621162414551,-2.1951169967651367,2.1029911041259766,3.963853120803833,0.3260875642299652,-0.09708916395902634,0.5838937163352966,-0.9729373455047607
274,21545,21544,0.024392953142523766,0.08733926713466644,0.9169985055923462,-4.598903179168701,5.753143787384033,-2.593930959701538,2.1050407886505127,3.9647908210754395,0.32564717531204224,-0.25363782048225403,0.5496456027030945,-0.9781184792518616
275,21555,21554,0.03598713502287865,0.1447950005531311,0.888272762298584,-6.99911642074585,3.579761266708374,-2.2089955806732178,2.1051886081695557,3.96409010887146,0.3222145438194275,-0.23803618550300598,0.5410385727882385,-0.9983999729156494
276,21565,21564,-0.003551853122189641,0.007219360675662756,0.9632249474525452,-7.031519412994385,2.2004685401916504,-1.9273511171340942,2.1056740283966064,3.9637820720672607,0.3215318024158478,-0.27884212136268616,0.4153056740760803,-1.0288872718811035
277,21575,21574,0.025382310152053833,0.08563010394573212,0.9342344403266907,-6.26324462890625,1.6176538467407227,-1.1861854791641235,2.106855869293213,3.9634082317352295,0.3207712769508362,-0.3150356411933899,0.29608669877052307,-1.0634938478469849
278,21585,21584,-0.00577875692397356,0.08515973389148712,0.9963046908378601,-4.52672004699707,-0.9660633206367493,-0.3100816309452057,2.108616352081299,3.9629411697387695,0.3199084401130676,-0.3903256058692932,0.2714262902736664,-1.0798882246017456
279,21595,21594,-0.0130479596555233,0.03170673921704292,1.0328587293624878,-2.3880553245544434,-2.945774793624878,0.6202330589294434,2.1084249019622803,3.96273136138916,0.3174281418323517,-0.33844849467277527,0.27558067440986633,-1.0697743892669678
280,21605,21604,0.028104761615395546,-0.12693005800247192,1.0479168891906738,-1.222286581993103,-2.0581307411193848,0.7912471294403076,2.108114719390869,3.962869644165039,0.31662020087242126,-0.16869547963142395,0.22834298014640808,-1.0587260723114014
281,21615,21614,-0.04628363624215126,0.03621672838926315,1.0675108432769775,0.40287014842033386,-2.3743085861206055,1.1487326622009277,2.1100425720214844,3.9625747203826904,0.3156377971172333,-0.261829137802124,0.2834503948688507,-1.04268479347229
282,21625,21624,0.016792209818959236,0.014354457147419453,1.0109657049179077,1.7495107650756836,-0.5810469388961792,1.2511606216430664,2.110142230987549,3.9606616497039795,0.3156641125679016,-0.1312723010778427,0.3552216589450836,-1.050511121749878
283,21635,21634,-0.03703448921442032,0.006894951220601797,1.039168119430542,2.1551313400268555,0.1710534393787384,1.483108639717102,2.1116576194763184,3.9605746269226074,0.3148996829986572,-0.18288464844226837,0.36135801672935486,-1.0394545793533325
284,21645,21644,0.001642127986997366,0.01751146838068962,1.0582690238952637,1.648325800895691,0.707992434501648,1.6774710416793823,2.111891746520996,3.961681842803955,0.3142249882221222,-0.1629623919725418,0.3770832121372223,-0.9944072961807251
285,21655,21654,0.00890426803380251,-0.036631882190704346,1.0437159538269043,-0.21864235401153564,0.842399001121521,2.197103500366211,2.114083766937256,3.961500406265259,0.31501954793930054,-0.20472019910812378,0.37333765625953674,-0.9761692881584167
286,21665,21664,-0.02788107469677925,0.03819139674305916,1.0909098386764526,-1.7610819339752197,0.8287428617477417,1.9807652235031128,2.1146981716156006,3.962294101715088,0.31446027755737305,-0.1851239949464798,0.34391313791275024,-0.9286118745803833
287,21675,21674,0.007289944216609001,0.04126591235399246,1.0263680219650269,-4.159468173980713,-0.7945120930671692,2.4936139583587646,2.1159613132476807,3.9616525173187256,0.31395792961120605,-0.2426833063364029,0.28801536560058594,-0.9201242923736572
288,21685,21684,-0.008770041167736053,-0.016634896397590637,1.0064291954040527,-6.21002197265625,-1.8064905405044556,3.00882887840271,2.116118907928467,3.961629629135132,0.314118355512619,-0.12310006469488144,0.19483664631843567,-0.8931567072868347
289,21695,21694,-0.004889644682407379,0.13216426968574524,1.0959203243255615,-4.81227970123291,-4.0157694816589355,3.7234742641448975,2.1188015937805176,3.9604992866516113,0.3136454224586487,-0.28926414251327515,0.16563911736011505,-0.8766896724700928
290,21705,21704,0.0068361712619662285,0.0522661954164505,1.058497667312622,-4.47864294052124,-2.107313871383667,4.075351715087891,2.1189329624176025,3.9601151943206787,0.3134806752204895,-0.12204638868570328,0.07517644762992859,-0.8469289541244507
291,21715,21714,-0.016371915116906166,-0.04880028963088989,1.0020372867584229,-2.133570432662964,-3.5986719131469727,4.836557388305664,2.118910551071167,3.9592549800872803,0.31331226229667664,-0.050509024411439896,0.07118344306945801,-0.8086254596710205
292,21725,21724,-0.021041389554739,-0.14041443169116974,1.005685567855835,0.1228601336479187,-3.2056360244750977,5.208259582519531,2.1206204891204834,3.958796501159668,0.31433993577957153,-0.12591737508773804,0.025887751951813698,-0.7598928809165955
293,21735,21734,-0.008844569325447083,-0.04454691335558891,1.0099462270736694,2.1236181259155273,-3.037384271621704,6.09074068069458,2.1212518215179443,3.958745002746582,0.3142680525779724,-0.04175812378525734,0.024227336049079895,-0.7091135382652283
294,21745,21744,0.010094832628965378,-0.019223064184188843,1.0122164487838745,3.002481460571289,-3.792957067489624,6.556534290313721,2.121152400970459,3.957852840423584,0.31426912546157837,0.10607897490262985,0.12707819044589996,-0.6539334654808044
295,21755,21754,0.034778811037540436,-0.007553956471383572,0.9581559896469116,2.673264265060425,0.19354479014873505,6.516615867614746,2.123044729232788,3.9576470851898193,0.31300652027130127,0.03599555790424347,0.15609818696975708,-0.5864713191986084
296,21765,21764,-0.050465524196624756,0.07207626104354858,1.0978866815567017,1.2119680643081665,-2.342050552368164,6.7442731857299805,2.122067928314209,3.955167293548584,0.31285932660102844,0.10107062757015228,0.17161354422569275,-0.553443968296051
297,21775,21774,-0.09817606955766678,0.02345241978764534,1.064864993095398,-0.4268605709075928,-5.3895955085754395,6.5061845779418945,2.1213855743408203,3.9546072483062744,0.3128369450569153,0.2778771221637726,0.1700982004404068,-0.4965333938598633
298,21785,21784,-0.07984083890914917,0.02522284723818302,1.0567653179168701,-4.059065341949463,0.6835199594497681,6.598128318786621,2.123215913772583,3.954716920852661,0.31213948130607605,0.10787148773670197,0.12170538306236267,-0.41504740715026855
299,21795,21794,0.023676155135035515,-0.03731519728899002,0.9435189366340637,-5.22471809387207,2.8053953647613525,7.282002925872803,2.12245512008667,3.9545235633850098,0.31224003434181213,0.24876052141189575,0.027782216668128967,-0.3562919795513153
300,21805,21804,-0.003953391220420599,-0.11605647206306458,1.068124532699585,-4.867638111114502,3.3815295696258545,7.07558012008667,2.124884605407715,3.9548847675323486,0.31211552023887634,0.05712695047259331,-0.07995215058326721,-0.27539098262786865
301,21815,21814,0.04410802572965622,-0.2289590835571289,0.9946079850196838,-2.8199398517608643,3.1717443466186523,7.15500545501709,2.125305414199829,3.9544644355773926,0.31211623549461365,0.04687057062983513,-0.16416333615779877,-0.21072137355804443
302,21825,21824,0.0011354607995599508,0.09372962266206741,0.9930375218391418,0.26741787791252136,2.6829984188079834,6.759882926940918,2.1262998580932617,3.95438551902771,0.30859375,0.0693783313035965,-0.19880199432373047,-0.14066308736801147
303,21835,21834,0.017639214172959328,0.10651596635580063,0.9378158450126648,3.475114583969116,0.35872045159339905,6.759914398193359,2.1288905143737793,3.954294204711914,0.3082091212272644,-0.14547617733478546,-0.17642426490783691,-0.0677134171128273
304,21845,21844,0.03318110480904579,0.010430426336824894,0.9693371057510376,4.991153717041016,-2.5174717903137207,6.856961250305176,2.128852605819702,3.9539854526519775,0.308135062456131,-0.032022785395383835,-0.1103968694806099,-0.009813714772462845
305,21855,21854,-0.008535784669220448,-0.013639799319207668,1.047732949256897,5.412719249725342,-5.080587863922119,7.307097434997559,2.1288135051727295,3.9506499767303467,0.3086538016796112,0.06739488244056702,0.04527677968144417,0.007550881244242191
306,21865,21864,-0.07392261922359467,0.14187559485435486,1.0486998558044434,3.8000519275665283,-4.755651950836182,7.56889009475708,2.128786087036133,3.9503581523895264,0.30849549174308777,0.19152258336544037,0.11855494976043701,0.07510748505592346
307,21875,21874,-0.06543442606925964,0.2023756355047226,0.9810779094696045,1.3175904750823975,-2.616482734680176,7.165780544281006,2.128838539123535,3.951340675354004,0.3082301914691925,0.18563447892665863,0.08381512761116028,0.1866423636674881
308,21885,21884,-0.03764874488115311,0.05745237320661545,1.0165919065475464,-1.398199439048767,0.053002048283815384,6.088787078857422,2.1301205158233643,3.9520812034606934,0.30906665325164795,0.15498587489128113,-0.004521536640822887,0.2638857960700989
309,21895,21894,-0.020678333938121796,0.01690005138516426,1.042291283607483,-2.5702786445617676,2.9334073066711426,5.588346481323242,2.1320714950561523,3.9522645473480225,0.3089020550251007,0.013662928715348244,0.03752335533499718,0.35203981399536133
310,21905,21904,0.020024850964546204,-0.005051293410360813,1.006730556488037,-2.645824909210205,3.9322330951690674,5.460033416748047,2.1322736740112305,3.9519786834716797,0.30892413854599,0.07354146242141724,0.06591367721557617,0.3994496166706085
311,21915,21914,0.004537304397672415,0.0021053084637969732,1.0021079778671265,-1.0649440288543701,2.277942419052124,5.109249591827393,2.133646011352539,3.9517507553100586,0.30879077315330505,-0.03789485618472099,0.013995567336678505,0.45545485615730286
312,21925,21924,0.03127342090010643,-0.04692171886563301,1.0250706672668457,-1.3900809288024902,1.8081663846969604,4.59404993057251,2.1346235275268555,3.950068473815918,0.3081433176994324,-0.029375243932008743,-0.0228121317923069,0.47172027826309204
313,21935,21934,-0.009390177205204964,-0.04979647696018219,1.1129894256591797,0.5993707776069641,0.5421692728996277,4.663703441619873,2.1344544887542725,3.9511170387268066,0.3082199692726135,0.09546453505754471,-0.04329529404640198,0.5387631058692932
314,21945,21944,-0.012395874597132206,-0.10746829956769943,0.948986291885376,2.381415605545044,-0.6136713027954102,3.7875559329986572,2.137022018432617,3.9508447647094727,0.3081645965576172,-0.0219130776822567,-0.027217503637075424,0.5880997180938721
315,21955,21954,0.04600533843040466,-0.011517551727592945,1.0132803916931152,4.0365986824035645,-0.7768674492835999,3.7497477531433105,2.136533498764038,3.9497733116149902,0.3036493957042694,0.1082397997379303,-0.06533299386501312,0.5902659893035889
316,21965,21964,0.1044299378991127,-0.10381827503442764,1.0199759006500244,4.35251522064209,0.15568360686302185,3.5542149543762207,2.1375982761383057,3.9493441581726074,0.3033345341682434,0.05601724609732628,-0.006602780893445015,0.6415489912033081
317,21975,21974,0.07934953272342682,-0.10256920754909515,1.032291293144226,4.583301544189453,2.5733590126037598,3.6533260345458984,2.138993978500366,3.9489781856536865,0.30308428406715393,0.07465638220310211,0.06507738679647446,0.6715904474258423
318,21985,21984,0.031624626368284225,-0.06737645715475082,0.9817521572113037,3.6847801208496094,4.631931781768799,3.050320863723755,2.1407973766326904,3.9502880573272705,0.3042709529399872,-0.053077712655067444,0.061165161430835724,0.7368450164794922
319,21995,21994,0.00761911878362298,-0.0921466201543808,0.9241117238998413,2.0257256031036377,5.354661464691162,2.749817371368408,2.1403770446777344,3.94998836517334,0.3042501211166382,-0.02455475926399231,0.11298114061355591,0.7605634331703186
320,22005,22004,0.059885431081056595,-0.02037937566637993,1.069894552230835,-0.6801655292510986,2.8237006664276123,2.2211337089538574,2.1404802799224854,3.950373649597168,0.3041793704032898,0.004846053197979927,0.12061452865600586,0.7955528497695923
321,22015,22014,0.06212332099676132,-0.03989792615175247,1.0098998546600342,-1.3577736616134644,-0.4456014037132263,2.4203343391418457,2.140821933746338,3.9513461589813232,0.30721279978752136,0.0736590325832367,0.10290519148111343,0.835993230342865
322,22025,22024,0.019193153828382492,-0.0029911864548921585,0.9977061748504639,-2.4414734840393066,-1.3377958536148071,2.0471103191375732,2.140516519546509,3.9517745971679688,0.30727413296699524,0.08724603801965714,0.0702890083193779,0.8740605711936951
323,22035,22034,-0.028812717646360397,-0.035031579434871674,0.9983395338058472,-2.1957411766052246,0.6434991955757141,1.5528383255004883,2.1424314975738525,3.9514853954315186,0.30729925632476807,-0.05990803241729736,0.030057983472943306,0.8949381113052368
324,22045,22044,0.012349586933851242,-0.016294479370117188,1.0204638242721558,-0.9579327702522278,1.9908421039581299,2.092277765274048,2.141294002532959,3.951637029647827,0.30745452642440796,0.032777026295661926,0.0001999360101763159,0.9215665459632874
325,22055,22054,-0.03923194482922554,0.07539709657430649,1.0161813497543335,1.2875334024429321,3.417198657989502,1.910896897315979,2.1426098346710205,3.9507718086242676,0.3049010932445526,0.011634079739451408,0.012701635248959064,0.9182586073875427
326,22065,22064,-0.07582590728998184,0.047567401081323624,0.9500949382781982,2.1881344318389893,5.088503360748291,1.9046337604522705,2.144214153289795,3.9495325088500977,0.30482304096221924,-0.12699821591377258,0.12578296661376953,0.9255151152610779
327,22075,22074,0.023691225796937943,-0.10145720094442368,0.9813013672828674,2.3972055912017822,3.052346706390381,1.6619045734405518,2.1445999145507812,3.949368476867676,0.30483102798461914,-0.10551506280899048,0.1565902680158615,0.9418228268623352
328,22085,22084,0.004937584977596998,-0.0783088430762291,1.0550330877304077,1.5052011013031006,1.9834413528442383,0.1223273053765297,2.1449034214019775,3.949241876602173,0.3066389262676239,-0.05536745488643646,0.18262015283107758,0.951184868812561
329,22095,22094,-0.042289987206459045,-0.14213944971561432,0.8974002599716187,0.8384730815887451,0.17215295135974884,0.047918520867824554,2.1472702026367188,3.949889659881592,0.30659598112106323,-0.22559654712677002,0.11122363060712814,0.9578689932823181
330,22105,22104,0.006213728338479996,-0.008940864354372025,0.9722272753715515,-0.04200860857963562,-1.1417073011398315,0.2249137908220291,2.1463751792907715,3.9501028060913086,0.3066830039024353,-0.1141984611749649,0.11684634536504745,0.968056857585907
331,22115,22114,0.05837464705109596,-0.04962147772312164,1.0248396396636963,-2.3617427349090576,-4.066941738128662,-0.2815423011779785,2.1466786861419678,3.9509754180908203,0.3029010593891144,-0.04711148887872696,0.0957992672920227,0.9881849884986877
332,22125,22124,-0.018594523891806602,0.09790030866861343,0.9737499356269836,-4.703125476837158,-4.965539455413818,-0.6665277481079102,2.1484241485595703,3.9515140056610107,0.3024574816226959,-0.22214458882808685,0.04033774882555008,1.003310203552246
333,22135,22134,-0.04443107917904854,0.10291610658168793,1.0664523839950562,-6.296314716339111,-11.192051887512207,-0.2967016398906708,2.1476974487304688,3.9516420364379883,0.30239418148994446,-0.005603107623755932,0.03179757297039032,1.0055148601531982
334,22145,22144,-0.006661881692707539,-0.02998746559023857,1.0053430795669556,-5.117221832275391,-9.938677787780762,-2.4615752696990967,2.1491827964782715,3.9510538578033447,0.30212709307670593,0.02169867791235447,-0.06984254717826843,0.9750129580497742
335,22155,22154,0.04891536384820938,0.06887894868850708,1.0270518064498901,-3.373072385787964,-8.343973159790039,-3.0724475383758545,2.1501755714416504,3.951509714126587,0.29961514472961426,0.04608521983027458,-0.1461154818534851,0.9628440141677856
336,22165,22164,0.002244645031169057,-0.007643111050128937,0.9969201683998108,-2.313107490539551,-5.467624664306641,-3.950378656387329,2.1505417823791504,3.952181100845337,0.29936015605926514,0.20108826458454132,-0.19273488223552704,0.9433102011680603
337,22175,22174,-0.0624263696372509,0.024674957618117332,1.0669059753417969,-1.2473580837249756,-2.882857084274292,-4.821522235870361,2.1519458293914795,3.9525046348571777,0.2989155650138855,0.10967051237821579,-0.2202671617269516,0.9131596088409424
338,22185,22184,-0.09020799398422241,0.042420536279678345,1.059664011001587,-2.4372427463531494,2.1189420223236084,-5.528730392456055,2.152085781097412,3.953317880630493,0.3005344271659851,0.24269026517868042,-0.23366977274417877,0.8760417103767395
339,22195,22194,-0.029894668608903885,0.12771248817443848,0.9794292449951172,-4.912506103515625,1.3092235326766968,-6.163564682006836,2.152609348297119,3.9518043994903564,0.30047404766082764,0.16245801746845245,-0.11776687204837799,0.8187474012374878
340,22205,22204,-0.030085649341344833,0.01851903460919857,1.0027116537094116,-2.448087215423584,1.933250069618225,-7.221241474151611,2.152804136276245,3.951996088027954,0.3004702925682068,0.2476835399866104,-0.1931481957435608,0.7501993775367737
341,22215,22214,0.05172402039170265,-0.163126602768898,1.0640085935592651,1.0666933059692383,2.4890389442443848,-8.286612510681152,2.153324842453003,3.951918840408325,0.30136269330978394,0.33091065287590027,-0.21677030622959137,0.6989153027534485
342,22225,22224,0.022025583311915398,-0.03582166135311127,1.0141912698745728,4.066689968109131,2.2214503288269043,-9.91726303100586,2.1545052528381348,3.9527499675750732,0.3012923002243042,0.13650861382484436,-0.1741284430027008,0.6287586688995361
343,22235,22234,-0.04761684313416481,0.03832930326461792,1.125354528427124,9.361109733581543,-3.4147167205810547,-9.958905220031738,2.155134677886963,3.9527230262756348,0.30136922001838684,0.13392983376979828,-0.13860604166984558,0.5185851454734802
344,22245,22244,0.031139187514781952,-0.050138361752033234,1.0412191152572632,17.76004409790039,-2.0939133167266846,-11.348504066467285,2.1565351486206055,3.951855421066284,0.30144429206848145,0.11137201637029648,0.08987729996442795,0.40774452686309814
345,22255,22254,-0.04057719558477402,-0.0888962596654892,0.995432436466217,24.08746337890625,-2.4762816429138184,-11.599068641662598,2.1564457416534424,3.9517109394073486,0.29793134331703186,0.16006508469581604,0.2788197100162506,0.2905780076980591
346,22265,22264,0.007804263848811388,-0.009222184307873249,1.0397462844848633,25.759674072265625,-5.569678783416748,-9.553377151489258,2.1577470302581787,3.951477527618408,0.29790306091308594,0.18354301154613495,0.5473441481590271,0.1813504844903946
347,22275,22274,-0.014393363147974014,-0.03458831459283829,1.013399362564087,20.47852325439453,-5.579669952392578,-8.676041603088379,2.157463550567627,3.9507319927215576,0.2979971766471863,0.3842243254184723,0.8614793419837952,0.0789540708065033
348,22285,22284,-0.018709246069192886,0.033948659896850586,1.0773195028305054,11.622075080871582,-3.1878468990325928,-8.131434440612793,2.1572329998016357,3.95129132270813,0.2929179072380066,0.3963089883327484,0.9632391333580017,0.007423817180097103
349,22295,22294,-0.03805956989526749,0.03207975625991821,1.0835546255111694,3.031619071960449,-1.852126955986023,-7.794225215911865,2.1585357189178467,3.9516677856445312,0.29274266958236694,0.3757247030735016,0.9973291158676147,-0.06844522058963776
350,22305,22304,0.01715325191617012,-0.06846528500318527,0.9864883422851562,-5.4818291664123535,-0.6281866431236267,-7.913271903991699,2.160275459289551,3.9523584842681885,0.29255881905555725,0.25470808148384094,0.9701389074325562,-0.12705954909324646
351,22315,22314,-0.02167581394314766,0.06342697888612747,1.0183905363082886,-13.359221458435059,-3.0234737396240234,-8.923327445983887,2.1602978706359863,3.953021764755249,0.2913508713245392,0.37148332595825195,0.8061395287513733,-0.202896848320961
352,22325,22324,0.015574298799037933,-0.020250849425792694,1.0006495714187622,-18.875835418701172,-10.206661224365234,-7.942633152008057,2.161858558654785,3.9534199237823486,0.29114779829978943,0.3536825478076935,0.601893961429596,-0.28909891843795776
353,22335,22334,-0.03558318316936493,0.005294253583997488,1.0936665534973145,-17.630922317504883,-18.62566566467285,-7.912083625793457,2.1609158515930176,3.9532361030578613,0.2911965250968933,0.7021964192390442,0.4371379613876343,-0.363838791847229
354,22345,22344,0.003362390911206603,-0.0627823919057846,1.0025677680969238,-8.201924324035645,-23.1101016998291,-7.486172676086426,2.1621885299682617,3.9525554180145264,0.2869493067264557,0.8327116966247559,0.3700920343399048,-0.45477089285850525
355,22355,22354,-0.01727335900068283,0.026742571964859962,1.10203218460083,-1.3490688800811768,-16.21739959716797,-7.181746482849121,2.162125587463379,3.95259690284729,0.28668686747550964,1.1366335153579712,0.363789439201355,-0.5225998759269714
356,22365,22364,0.019793320447206497,-0.015047315508127213,1.0722404718399048,4.858280181884766,0.07149878889322281,-6.988875865936279,2.1630563735961914,3.9518380165100098,0.28649064898490906,1.174817442893982,0.3962986469268799,-0.6101272702217102
357,22375,22374,-0.006972052622586489,-0.002279498614370823,1.053867220878601,2.8446922302246094,14.584031105041504,-7.357126712799072,2.1652207374572754,3.951573371887207,0.28631916642189026,0.9476175308227539,0.45551490783691406,-0.6913283467292786
358,22385,22384,0.04113984853029251,0.004254893399775028,1.0034217834472656,2.00014066696167,27.244550704956055,-7.620401859283447,2.1662042140960693,3.9518673419952393,0.29137128591537476,0.7283828258514404,0.47117316722869873,-0.7439801692962646
359,22395,22394,-0.03192001208662987,-0.0062128473073244095,1.0743980407714844,2.725289821624756,27.6608943939209,-7.181448459625244,2.1664881706237793,3.9509880542755127,0.2916429042816162,0.5450356006622314,0.570919394493103,-0.8215722441673279
360,22405,22404,-0.09047970175743103,0.11271776258945465,1.1158125400543213,5.025792121887207,22.38883399963379,-6.5244526863098145,2.166201591491699,3.950984477996826,0.29205790162086487,0.382630854845047,0.616762101650238,-0.87391597032547
361,22415,22414,-0.07304039597511292,-0.021940380334854126,1.0638422966003418,8.146566390991211,9.715256690979004,-5.989774227142334,2.167027711868286,3.9502787590026855,0.29104164242744446,0.15305255353450775,0.6906222701072693,-0.9234983921051025
362,22425,22424,-0.01959095522761345,0.1222415417432785,1.0235611200332642,4.010806560516357,-2.1795082092285156,-3.5669655799865723,2.166609048843384,3.950737714767456,0.2915506660938263,0.24147763848304749,0.7592730522155762,-0.9664309620857239
363,22435,22434,0.04151841625571251,-0.08888209611177444,1.006775140762329,-0.9153905510902405,-12.170790672302246,-0.6633824706077576,2.166226863861084,3.9504294395446777,0.2920691668987274,0.41427838802337646,0.7404835224151611,-0.9843459725379944
364,22445,22444,-0.008286534808576107,-0.20857426524162292,1.055322289466858,-4.981140613555908,-12.67629623413086,1.5954663753509521,2.1674861907958984,3.9500844478607178,0.2897930443286896,0.4651244282722473,0.6533179879188538,-0.9939770102500916
365,22455,22454,0.02416140027344227,-0.1216018795967102,0.9604995846748352,-8.979646682739258,-2.317636251449585,3.5149593353271484,2.167037010192871,3.949028491973877,0.2901274859905243,0.57732754945755,0.6578179597854614,-0.975480854511261
366,22465,22464,-0.012351281940937042,-0.05161407217383385,1.0629699230194092,-11.13715934753418,12.151836395263672,3.9436604976654053,2.1672754287719727,3.949528694152832,0.2905578911304474,0.495409220457077,0.44198983907699585,-0.9258484244346619
367,22475,22474,0.0365758091211319,-0.0528055764734745,0.9250274896621704,-11.351981163024902,27.433679580688477,4.378444194793701,2.167909622192383,3.9486289024353027,0.290874719619751,0.2958560883998871,0.3944791257381439,-0.8921364545822144
368,22485,22484,0.027798378840088844,0.0367191918194294,1.0290532112121582,-11.341785430908203,36.731990814208984,6.2134904861450195,2.1691884994506836,3.9495890140533447,0.2915586531162262,-0.12590406835079193,0.1696545034646988,-0.8249709010124207
369,22495,22494,-0.003674672916531563,-0.06026582047343254,1.0002901554107666,-10.086155891418457,38.75531005859375,8.265873908996582,2.1688339710235596,3.948194742202759,0.29201027750968933,-0.39887186884880066,0.19343961775302887,-0.7571299076080322
370,22505,22504,-0.019458217546343803,0.016169745475053787,1.029733419418335,-7.757966041564941,32.44779968261719,9.457988739013672,2.169482946395874,3.9493346214294434,0.29235121607780457,-0.7979381680488586,0.08693397045135498,-0.629568874835968
371,22515,22514,0.0032694318797439337,-0.12098022550344467,1.0173383951187134,-7.801434516906738,22.17211151123047,10.091513633728027,2.169614315032959,3.948453426361084,0.2943640351295471,-1.027974247932434,0.0860118567943573,-0.5288056135177612
372,22525,22524,0.006432672031223774,0.1306029111146927,0.9822384119033813,-7.511923313140869,11.136457443237305,10.07993221282959,2.1697592735290527,3.948744535446167,0.2948528826236725,-1.2489171028137207,-0.07316868007183075,-0.4232407510280609
373,22535,22534,0.02322792261838913,0.23950718343257904,1.002004623413086,-7.856496334075928,-3.0748398303985596,10.220595359802246,2.169313430786133,3.948343515396118,0.2954379916191101,-1.254949927330017,-0.1542101502418518,-0.3206685781478882
374,22545,22544,0.01085070800036192,0.111347995698452,1.0460336208343506,-8.481498718261719,-11.626314163208008,9.638337135314941,2.1688568592071533,3.947519063949585,0.2948683798313141,-1.0724321603775024,-0.17344830930233002,-0.2178589552640915
375,22555,22554,-0.022330833598971367,0.01820242591202259,1.0366559028625488,-6.958940029144287,-14.143413543701172,10.404430389404297,2.1690316200256348,3.946948528289795,0.2954050600528717,-0.8700354099273682,-0.2642490267753601,-0.12464627623558044
376,22565,22564,0.0002181200252380222,-0.0716996043920517,0.9607062339782715,-4.0682759284973145,-10.81611442565918,10.108074188232422,2.170159339904785,3.9457550048828125,0.295916348695755,-0.7598262429237366,-0.31516432762145996,-0.04148048162460327
377,22575,22574,-0.04275825619697571,0.12192129343748093,1.0406804084777832,-3.3939225673675537,-7.145236015319824,8.634391784667969,2.169904947280884,3.9455623626708984,0.296334445476532,-0.6980741620063782,-0.33685463666915894,0.07118025422096252
378,22585,22584,-0.016370797529816628,0.17247921228408813,1.044858694076538,-2.52559232711792,-1.661923885345459,7.074674606323242,2.170546770095825,3.9443233013153076,0.29818493127822876,-0.6400121450424194,-0.2706768214702606,0.15872511267662048
379,22595,22594,0.005220070481300354,0.0018688709242269397,0.9804308414459229,-5.930588245391846,5.369243621826172,5.516959190368652,2.1704046726226807,3.9449009895324707,0.2987528443336487,-0.7115071415901184,-0.3902151882648468,0.23195406794548035
380,22605,22604,0.022406401112675667,0.03269457817077637,0.9944893717765808,-10.863136291503906,10.5060453414917,4.8227033615112305,2.1719510555267334,3.944749593734741,0.29931238293647766,-0.8739879131317139,-0.49570366740226746,0.2839949429035187
381,22615,22614,-0.020910490304231644,0.11954304575920105,1.0184751749038696,-16.454578399658203,12.49470329284668,4.397928237915039,2.1727969646453857,3.9456443786621094,0.30187922716140747,-1.0048178434371948,-0.766364574432373,0.31406497955322266
382,22625,22624,0.04897547513246536,0.12098618596792221,0.8811812400817871,-19.27388572692871,11.671302795410156,4.539328575134277,2.1708505153656006,3.9438443183898926,0.3027432858943939,-1.094895839691162,-0.7955812811851501,0.37089717388153076
383,22635,22634,0.04249287024140358,0.10342885553836823,0.916284441947937,-19.135229110717773,10.13268756866455,4.411336421966553,2.171520948410034,3.94425892829895,0.3034037947654724,-1.1940110921859741,-1.0790436267852783,0.3982696235179901
384,22645,22644,0.029754459857940674,-0.001116085215471685,1.0471290349960327,-21.17702293395996,6.98776912689209,4.892378807067871,2.1732187271118164,3.943180561065674,0.30511611700057983,-1.3727200031280518,-1.2329949140548706,0.4449138045310974
385,22655,22654,0.016174249351024628,-0.03160659596323967,0.9430384635925293,-18.858991622924805,2.6890366077423096,6.459971904754639,2.1747958660125732,3.9422965049743652,0.3056318163871765,-1.5267189741134644,-1.3655966520309448,0.5168749094009399
386,22665,22664,-0.06489738821983337,0.11019477993249893,0.9574431777000427,-14.631556510925293,-4.0489606857299805,7.324754238128662,2.174795627593994,3.9425222873687744,0.3063031733036041,-1.439640998840332,-1.5936105251312256,0.5610077381134033
387,22675,22674,-0.02746623381972313,0.08060429245233536,0.8573208451271057,-7.868394374847412,-7.826324462890625,7.735908508300781,2.173279285430908,3.9419281482696533,0.3093349039554596,-1.2715331315994263,-1.7306294441223145,0.607700526714325
388,22685,22684,-0.042629607021808624,0.17299814522266388,0.946357250213623,1.6228381395339966,-9.327146530151367,9.279069900512695,2.175257682800293,3.9415483474731445,0.30980467796325684,-1.3311816453933716,-1.7292139530181885,0.7348844408988953
389,22695,22694,0.01497446559369564,0.20903588831424713,0.9685691595077515,10.565549850463867,-6.58558464050293,9.662798881530762,2.176136016845703,3.9402875900268555,0.310285747051239,-1.25591242313385,-1.6347776651382446,0.8221837878227234
390,22705,22704,0.00597709184512496,0.03468633070588112,0.899829626083374,15.329310417175293,-4.1339802742004395,9.78923511505127,2.175236225128174,3.939788341522217,0.3109445571899414,-1.090524435043335,-1.429455280303955,0.9316847920417786
391,22715,22714,0.012531056068837643,-0.06889330595731735,1.0078668594360352,18.008575439453125,-0.2326003462076187,9.735522270202637,2.1789402961730957,3.939711093902588,0.31010881066322327,-1.2473422288894653,-1.3921570777893066,1.0100871324539185
392,22725,22724,-0.03841738775372505,0.01380644366145134,1.0114710330963135,16.123811721801758,2.2096498012542725,10.327680587768555,2.178910970687866,3.9384851455688477,0.3105170428752899,-1.168424367904663,-1.1874817609786987,1.071300983428955
393,22735,22734,-0.14623379707336426,0.11686081439256668,0.926080048084259,11.003549575805664,1.3810843229293823,10.790377616882324,2.1799774169921875,3.937701940536499,0.31075865030288696,-1.1828471422195435,-0.967448353767395,1.1882431507110596
394,22745,22744,-0.03640378266572952,0.0460687056183815,0.954489529132843,3.928752899169922,-5.885389804840088,10.680801391601562,2.181894540786743,3.937983989715576,0.3085154592990875,-1.2977999448776245,-0.9381232261657715,1.3018344640731812
395,22755,22754,-0.015228863805532455,0.06170719489455223,1.0034277439117432,-3.858574151992798,-4.361788749694824,9.504542350769043,2.182013511657715,3.938591957092285,0.3087376058101654,-1.1265305280685425,-1.0353885889053345,1.3490657806396484
396,22765,22764,0.007120995782315731,0.0010454929433763027,0.9565555453300476,-6.28810453414917,-6.208004474639893,9.221179008483887,2.182832956314087,3.938328504562378,0.3088437020778656,-1.014822006225586,-1.1259996891021729,1.402499794960022
397,22775,22774,-0.008152199909090996,0.007806955836713314,0.9780471920967102,-4.136316299438477,-4.882876396179199,8.41339111328125,2.1853463649749756,3.9386489391326904,0.30635038018226624,-1.128257155418396,-1.209632396697998,1.5245087146759033
398,22785,22784,-0.02054857648909092,0.14452412724494934,0.9866040349006653,1.4700992107391357,-2.8452768325805664,7.799346446990967,2.184354305267334,3.938885450363159,0.30629897117614746,-0.95015949010849,-1.2248042821884155,1.5914806127548218
399,22795,22794,0.08285073190927505,0.0927334651350975,0.9068712592124939,9.200601577758789,-2.630976676940918,6.8470234870910645,2.1869957447052,3.9390015602111816,0.3059436082839966,-1.109972596168518,-1.1097275018692017,1.7321770191192627
400,22805,22804,-0.0551924854516983,0.021502049639821053,1.0416648387908936,15.387003898620605,-3.0425398349761963,6.076592445373535,2.185779571533203,3.9397990703582764,0.3060465157032013,-0.8616955280303955,-1.0407029390335083,1.7490442991256714
401,22815,22814,-0.009379162453114986,-0.12572352588176727,1.0484435558319092,18.53605842590332,-3.3537447452545166,6.028607368469238,2.1888537406921387,3.9396042823791504,0.3045390248298645,-1.017501711845398,-0.8245987892150879,1.8624573945999146
402,22825,22824,-0.0015037392731755972,-0.012538652867078781,0.9980258941650391,19.993295669555664,-4.0518999099731445,4.922689914703369,2.1894938945770264,3.940584182739258,0.3042888641357422,-0.9678364992141724,-0.7027595639228821,1.911421775817871
403,22835,22834,-0.008788454346358776,-0.0199631005525589,0.9774402379989624,17.40962791442871,-1.9769116640090942,3.4250779151916504,2.191124200820923,3.939596176147461,0.3040221929550171,-0.9446365833282471,-0.43177932500839233,1.9528180360794067
404,22845,22844,-0.017429804429411888,-0.0542718730866909,0.9559816122055054,9.850981712341309,-2.914445161819458,1.999586820602417,2.1901495456695557,3.940126657485962,0.3005158603191376,-0.8509529829025269,-0.27677544951438904,1.996405005455017
405,22855,22854,0.026891086250543594,-0.06872815638780594,1.0252549648284912,1.485194444656372,-3.785208225250244,0.4135998785495758,2.191060781478882,3.940573215484619,0.30006951093673706,-0.8024367094039917,-0.3213160037994385,1.9688700437545776
406,22865,22864,0.05952512100338936,-0.045862793922424316,0.9624124765396118,-2.206979990005493,-4.124736785888672,-0.4864243268966675,2.1935386657714844,3.93988037109375,0.29951250553131104,-0.8372606635093689,-0.31300047039985657,1.9516119956970215
407,22875,22874,-0.022173428907990456,-0.023621782660484314,0.9754726886749268,-0.9232036471366882,-2.177022695541382,0.062124479562044144,2.1933138370513916,3.9401190280914307,0.30140379071235657,-0.663871169090271,-0.3920537829399109,1.9000996351242065
408,22885,22884,0.0066054523922502995,0.04776124656200409,0.9783423542976379,3.7543792724609375,-0.619140088558197,0.5595069527626038,2.195250988006592,3.9404261112213135,0.30080723762512207,-0.8191003799438477,-0.32972678542137146,1.9513905048370361
409,22895,22894,0.05330323427915573,-0.008296002633869648,0.860375165939331,8.649351119995117,-0.5605900287628174,-0.4178147614002228,2.197887897491455,3.9400875568389893,0.30023908615112305,-0.9105622172355652,-0.25862520933151245,1.9405092000961304
410,22905,22904,0.03822854161262512,-0.09380590915679932,0.978590190410614,13.62458610534668,-4.975937366485596,-0.16651664674282074,2.1986758708953857,3.940091133117676,0.2998862862586975,-0.8242300152778625,-0.12101050466299057,1.9363751411437988
411,22915,22914,0.009518899023532867,0.0014889899175614119,1.0609967708587646,14.152213096618652,-10.216327667236328,-0.02600717730820179,2.2002780437469482,3.9406821727752686,0.299343466758728,-0.7744377255439758,-0.010029152035713196,1.9349021911621094
412,22925,22924,-0.0015365688595920801,0.08295030891895294,0.932532548904419,12.103960037231445,-12.118993759155273,-0.6813521981239319,2.200904130935669,3.9413983821868896,0.2988525629043579,-0.6792007684707642,0.10323318094015121,1.9356398582458496
413,22935,22934,0.00886430311948061,0.04571840167045593,0.9734878540039062,5.792025089263916,-12.157690048217773,-1.772993803024292,2.201155662536621,3.941756010055542,0.298463374376297,-0.4493720531463623,0.20742167532444,1.9154545068740845
414,22945,22944,-0.008607528172433376,0.05197526142001152,1.097497582435608,-1.6606651544570923,-14.176949501037598,-2.441599130630493,2.204678773880005,3.9413983821868896,0.2981875240802765,-0.5952559113502502,0.12026325613260269,1.842141032218933
415,22955,22954,-0.03953037038445473,0.15941745042800903,1.0319195985794067,-12.971912384033203,-15.8579683303833,-1.8124479055404663,2.2044167518615723,3.9419519901275635,0.2980153262615204,-0.24797587096691132,0.03607022389769554,1.8059059381484985
416,22965,22964,-0.040895361453294754,0.07487424463033676,0.9987517595291138,-18.515798568725586,-16.82707405090332,-2.246173620223999,2.2068474292755127,3.940800905227661,0.2974337935447693,-0.23135951161384583,-0.1300605684518814,1.7336305379867554
417,22975,22974,-0.011273903772234917,0.04018852487206459,1.0686668157577515,-17.023656845092773,-15.895153999328613,-1.311123251914978,2.2078261375427246,3.9392008781433105,0.2970505356788635,-0.16907770931720734,-0.39220163226127625,1.6264691352844238
418,22985,22984,-0.03282313793897629,0.006770802196115255,1.0134464502334595,-8.318791389465332,-10.517553329467773,-0.691461443901062,2.2082085609436035,3.9396276473999023,0.2968361973762512,0.0915185883641243,-0.5478787422180176,1.6033588647842407
419,22995,22994,0.019016070291399956,0.0092383474111557,1.016417145729065,2.6984848976135254,-5.85308837890625,-0.6424268484115601,2.210224151611328,3.937845230102539,0.29633283615112305,0.012992339208722115,-0.5444959402084351,1.5470017194747925
420,23005,23004,0.08403126895427704,-0.01985226944088936,1.037432074546814,11.643917083740234,-2.8327457904815674,-0.6451655030250549,2.211494207382202,3.9372618198394775,0.29623040556907654,0.10510613024234772,-0.36374083161354065,1.5473848581314087
421,23015,23014,0.022252369672060013,-0.014683740213513374,1.0432765483856201,18.12567901611328,-4.2276105880737305,-1.4665755033493042,2.211942672729492,3.936915874481201,0.29569223523139954,0.2655629515647888,-0.14240553975105286,1.5356272459030151
422,23025,23024,0.006640084087848663,0.05770136043429375,1.0789746046066284,23.8005428314209,-4.778631210327148,-1.3095171451568604,2.2136759757995605,3.9368033409118652,0.2953983545303345,0.2224559783935547,0.0982898473739624,1.523511528968811
423,23035,23034,-0.037597302347421646,0.11753389239311218,1.0061572790145874,25.323692321777344,-6.266817092895508,-0.7710682153701782,2.2151834964752197,3.937648057937622,0.29499945044517517,0.18187695741653442,0.32755517959594727,1.5324522256851196
424,23045,23044,-0.004765301011502743,0.01326781790703535,1.066604733467102,21.99173355102539,-8.236710548400879,-0.7215961217880249,2.214073896408081,3.9378769397735596,0.29653412103652954,0.4718756377696991,0.5918983221054077,1.5354617834091187
425,23055,23054,0.003988487645983696,-0.06816531717777252,0.9960574507713318,15.094047546386719,-10.58012580871582,-0.587026834487915,2.2162396907806396,3.9404537677764893,0.2965124547481537,0.4892750680446625,0.5568773150444031,1.5366570949554443
426,23065,23064,0.0192656759172678,0.0037958447355777025,0.9034588932991028,8.797080993652344,-12.583911895751953,-0.5548534989356995,2.2183780670166016,3.9397671222686768,0.2964266836643219,0.547386884689331,0.8155619502067566,1.5214323997497559
427,23075,23074,0.019636696204543114,-0.09143789112567902,0.9622441530227661,3.336003065109253,-11.235544204711914,-0.8322333693504333,2.219303846359253,3.9410510063171387,0.29485902190208435,0.7300770282745361,0.790570855140686,1.5227172374725342
428,23085,23084,0.05920516699552536,-0.15277737379074097,1.078035593032837,1.6309196949005127,-10.81679630279541,-0.07184691727161407,2.2227942943573,3.9424171447753906,0.29445788264274597,0.6437892317771912,0.7279975414276123,1.515166997909546
429,23095,23094,0.03930170089006424,-0.04091133549809456,0.9229958653450012,0.7868749499320984,-9.490166664123535,0.4824387729167938,2.2226245403289795,3.9426543712615967,0.294543594121933,0.8950186371803284,0.809748649597168,1.5322656631469727
430,23105,23104,0.01062949001789093,0.04653732106089592,1.016208529472351,-0.17367234826087952,-12.296042442321777,0.9691394567489624,2.224597215652466,3.9441332817077637,0.2923787534236908,0.9358986020088196,0.7112450003623962,1.6492369174957275
431,23115,23114,0.02391849458217621,-0.028705717995762825,0.9925390481948853,-2.4939613342285156,-16.70204734802246,1.085161805152893,2.226686954498291,3.9457015991210938,0.2919829785823822,0.9676200151443481,0.7476686835289001,1.5959914922714233
432,23125,23124,-0.04278639331459999,0.14107343554496765,1.0279310941696167,-4.561120986938477,-21.715967178344727,1.7707794904708862,2.2259161472320557,3.944228410720825,0.29186609387397766,1.3201496601104736,0.7507743239402771,1.4985393285751343
433,23135,23134,-0.017865628004074097,0.08001424372196198,1.0605084896087646,-5.625584602355957,-24.7221622467041,2.809630870819092,2.2283201217651367,3.9427943229675293,0.291446715593338,1.4256454706192017,0.7044053673744202,1.4971097707748413
434,23145,23144,0.0540635883808136,0.051658425480127335,1.0649811029434204,-4.693838119506836,-21.90846824645996,2.9097986221313477,2.228562831878662,3.9428813457489014,0.2917717695236206,1.6930969953536987,0.665066659450531,1.534993290901184
435,23155,23154,-0.07471898198127747,0.00561249814927578,1.0964300632476807,-5.246735572814941,-14.88638973236084,1.436850905418396,2.2300734519958496,3.943183422088623,0.29167142510414124,1.9235222339630127,0.6225807070732117,1.5595065355300903
436,23165,23164,0.0023882859386503696,0.0028240890242159367,1.045533299446106,-6.735262870788574,-6.204771518707275,1.3630129098892212,2.2313907146453857,3.941671371459961,0.29157209396362305,1.9469739198684692,0.5616713166236877,1.494565486907959
437,23175,23174,-7.233072392409667e-05,-0.0451677031815052,1.0025742053985596,-6.018857479095459,2.458606243133545,1.3585498332977295,2.231315851211548,3.9420552253723145,0.29306745529174805,1.9914699792861938,0.4879054129123688,1.5389957427978516
438,23185,23184,0.018053382635116577,0.09556730091571808,1.0860761404037476,-4.227051734924316,9.02734661102295,0.9985185265541077,2.230959892272949,3.942385196685791,0.29320254921913147,1.9861582517623901,0.4245031476020813,1.5605276823043823
439,23195,23194,-0.008381661958992481,-0.003572263289242983,1.0124095678329468,0.006769048050045967,11.08965015411377,0.7764987945556641,2.2321436405181885,3.942963123321533,0.29332834482192993,1.8914698362350464,0.35681667923927307,1.57694411277771
440,23205,23204,-0.008936921134591103,0.006939721293747425,1.0139317512512207,5.400179862976074,11.40083122253418,0.3997304439544678,2.2328238487243652,3.94250226020813,0.2947862446308136,1.840769648551941,0.4497446119785309,1.6084638833999634
441,23215,23214,0.0017826015828177333,0.041307318955659866,1.0492544174194336,9.930891036987305,9.438508987426758,-0.05937018245458603,2.235372543334961,3.944213628768921,0.2949724793434143,1.5785833597183228,0.5458623170852661,1.6055487394332886
442,23225,23224,0.006863554008305073,-0.08072739094495773,0.9407651424407959,11.517579078674316,7.092646598815918,0.7434583902359009,2.2350897789001465,3.9452712535858154,0.29541343450546265,1.5834115743637085,0.6072613596916199,1.655544638633728
443,23235,23234,0.1778811514377594,-0.17074207961559296,1.0006639957427979,10.593463897705078,2.248872995376587,0.16778795421123505,2.235274076461792,3.945302963256836,0.2958153784275055,1.6505844593048096,0.7516699433326721,1.6443995237350464
444,23245,23244,0.060735978186130524,-0.09267093241214752,0.9848915338516235,4.294582366943359,-0.526654064655304,-0.8967844247817993,2.2362637519836426,3.945219039916992,0.29908227920532227,1.6158205270767212,0.8321816921234131,1.6542176008224487
445,23255,23254,0.013962535187602043,-0.041719045490026474,1.0268112421035767,-7.497772693634033,-3.7720375061035156,-1.781604528427124,2.238344430923462,3.9470326900482178,0.2994564175605774,1.5468597412109375,0.6643813252449036,1.6891183853149414
446,23265,23264,0.09696821123361588,-0.02076641656458378,0.8896857500076294,-19.26799964904785,-5.522289752960205,-2.474128484725952,2.239428997039795,3.9474151134490967,0.2998889684677124,1.602729082107544,0.5449692606925964,1.6677870750427246
447,23275,23274,0.021437019109725952,-0.0014086788287386298,0.9490428566932678,-24.025745391845703,-7.459280014038086,-2.5651276111602783,2.239368438720703,3.947314739227295,0.2966185212135315,1.6951725482940674,0.20630669593811035,1.6277494430541992
448,23285,23284,-0.010975164361298084,0.0805458202958107,1.0070347785949707,-22.290851593017578,-4.2659592628479,-2.0243585109710693,2.2404263019561768,3.9464988708496094,0.2968333065509796,1.7765966653823853,0.10831276327371597,1.5578910112380981
449,23295,23294,-0.023951608687639236,-0.07131140679121017,0.9548405408859253,-14.832167625427246,1.9318267107009888,-1.3884601593017578,2.2411949634552,3.948133707046509,0.29690441489219666,1.8099539279937744,-0.1623995453119278,1.5867127180099487
450,23305,23304,0.009167524054646492,-0.038761768490076065,1.025438904762268,-2.8505280017852783,5.428079128265381,-1.3545806407928467,2.2420272827148438,3.946509838104248,0.29850777983665466,1.7729392051696777,-0.09414759278297424,1.5045561790466309
451,23315,23314,-0.04370840638875961,0.015882734209299088,1.039206862449646,8.583556175231934,9.198736190795898,-0.5474793314933777,2.2432544231414795,3.94657564163208,0.2986809015274048,1.6718134880065918,-0.07176132500171661,1.481619119644165
452,23325,23324,0.0023720834869891405,-0.014867165125906467,0.9783503413200378,17.75726890563965,11.883490562438965,0.31768733263015747,2.2438063621520996,3.945010185241699,0.29899072647094727,1.5922527313232422,0.20284870266914368,1.4178866147994995
453,23335,23334,-0.009362122975289822,0.1758427619934082,0.9793182611465454,22.927000045776367,14.123573303222656,0.7351903319358826,2.244349718093872,3.945068120956421,0.2991856336593628,1.4752923250198364,0.2704342007637024,1.4131056070327759
454,23345,23344,-0.0017906187567859888,0.010780492797493935,1.0510934591293335,24.79471778869629,14.17076301574707,1.3204647302627563,2.2448859214782715,3.9429192543029785,0.3003746569156647,1.3463256359100342,0.5520853400230408,1.3320088386535645
455,23355,23354,0.01951003447175026,-0.06986571848392487,0.9965797662734985,23.268861770629883,18.06831169128418,1.8440465927124023,2.2469539642333984,3.9427781105041504,0.3005695343017578,1.0655369758605957,0.829632580280304,1.3251352310180664
456,23365,23364,0.005642322823405266,0.0030972950626164675,0.9825953245162964,18.40665626525879,20.090150833129883,2.432952404022217,2.2466647624969482,3.9440512657165527,0.30102890729904175,0.9876787066459656,0.9627042412757874,1.3448753356933594
457,23375,23374,0.011587570421397686,-0.04259435459971428,0.9509042501449585,13.003273963928223,18.261098861694336,2.4547719955444336,2.2479593753814697,3.942594528198242,0.30162662267684937,0.7444444298744202,1.1677912473678589,1.353136658668518
458,23385,23384,0.007091026287525892,-0.12244810909032822,0.9745854139328003,7.420928955078125,15.145567893981934,2.58780574798584,2.2485461235046387,3.9431629180908203,0.30203476548194885,0.6346237659454346,1.2000741958618164,1.389386534690857
459,23395,23394,0.014648794196546078,-0.03241093456745148,0.977415919303894,3.1175472736358643,9.923986434936523,3.0454888343811035,2.248389720916748,3.9434874057769775,0.30240485072135925,0.5869652628898621,1.2286039590835571,1.4261384010314941
460,23405,23404,-0.0056114052422344685,0.013945323415100574,0.9913373589515686,-1.5635852813720703,4.405399799346924,2.8393828868865967,2.249800205230713,3.9428305625915527,0.30354923009872437,0.5460092425346375,1.1849445104599,1.4013524055480957
461,23415,23414,-0.02771691605448723,0.11129589378833771,1.024347186088562,-5.01073694229126,0.5624212622642517,3.720855474472046,2.249678134918213,3.9435441493988037,0.3038475811481476,0.49350014328956604,1.1455254554748535,1.4570082426071167
462,23425,23424,-0.01683623716235161,-0.0012761295074597,0.978756844997406,-4.002640247344971,-3.190119743347168,3.5390429496765137,2.2502870559692383,3.9428462982177734,0.3039884865283966,0.4396686553955078,1.0934146642684937,1.4535071849822998
463,23435,23434,0.0030369285959750414,0.022040799260139465,0.9912589192390442,-2.622075319290161,-3.260761022567749,3.54055118560791,2.2513599395751953,3.942310094833374,0.30429306626319885,0.47837206721305847,1.0572315454483032,1.4541393518447876
464,23445,23444,-0.021210018545389175,0.01821744069457054,1.0102845430374146,-1.2151085138320923,-0.069841168820858,4.663700103759766,2.2513058185577393,3.942512273788452,0.3043144643306732,0.5034136772155762,1.0535075664520264,1.5116242170333862
465,23455,23454,0.07823527604341507,-0.1562655121088028,0.9539585709571838,2.2566123008728027,3.454479694366455,4.12913179397583,2.250793695449829,3.9423000812530518,0.30465683341026306,0.5589475631713867,1.0882540941238403,1.519656777381897
466,23465,23464,-0.005637084599584341,0.08318686485290527,0.9605216383934021,4.633068084716797,7.031360149383545,3.5910181999206543,2.2517025470733643,3.9415552616119385,0.3049110472202301,0.4738287627696991,1.141845464706421,1.5383965969085693
467,23475,23474,-0.023238420486450195,-0.015266107395291328,0.9597983956336975,4.522888660430908,8.717580795288086,4.483730316162109,2.2531991004943848,3.9419124126434326,0.30434826016426086,0.328561007976532,1.1404426097869873,1.562471866607666
468,23485,23484,0.014297198504209518,-0.024835458025336266,0.9614116549491882,1.7170485258102417,11.689281463623047,5.847173690795898,2.2537879943847656,3.9420413970947266,0.3043898642063141,0.17334914207458496,1.213078498840332,1.6116795539855957
469,23495,23494,-0.014413454569876194,-0.006124245934188366,0.9692884087562561,-0.3634836971759796,10.13410758972168,7.074373245239258,2.254776954650879,3.9421586990356445,0.30451279878616333,0.08227704465389252,1.2475473880767822,1.6693150997161865
470,23505,23504,0.10211239755153656,-0.09597527980804443,0.9528801441192627,-2.386014461517334,5.911445617675781,7.409770488739014,2.2555437088012695,3.9418303966522217,0.30706503987312317,0.002976642455905676,1.2417196035385132,1.7207485437393188
471,23515,23514,0.003731813747435808,0.04361718147993088,1.057266354560852,-1.6906415224075317,2.5380098819732666,6.847033977508545,2.2555465698242188,3.942067861557007,0.30732935667037964,-0.001380937173962593,1.2159467935562134,1.8155288696289062
472,23525,23524,-0.12794485688209534,0.1071222648024559,0.9471550583839417,-2.9450843334198,2.5856008529663086,5.383127212524414,2.2564475536346436,3.942209005355835,0.3074929714202881,-0.04390841722488403,1.1830803155899048,1.8932796716690063
473,23535,23534,-0.06805263459682465,0.07268258184194565,0.9979890584945679,-6.516114234924316,5.024468898773193,4.630558490753174,2.2564752101898193,3.942448616027832,0.3058227598667145,-0.0963933914899826,1.1185733079910278,1.9426231384277344
474,23545,23544,0.0458003431558609,0.14188982546329498,1.0579949617385864,-6.8153605461120605,4.861729621887207,2.6290812492370605,2.255960702896118,3.9434070587158203,0.3059748411178589,-0.05792231485247612,1.020618200302124,2.0979104042053223
475,23555,23554,-0.012543397024273872,0.028087250888347626,0.9858890175819397,-4.3430633544921875,6.176518440246582,2.0693323612213135,2.256422519683838,3.943082094192505,0.3060387969017029,-0.03931184485554695,1.0570803880691528,2.1011269092559814
476,23565,23564,0.001410975120961666,-0.060776036232709885,0.9273867607116699,0.22423145174980164,4.591756343841553,2.257634401321411,2.2578365802764893,3.943070411682129,0.306054949760437,-0.23211409151554108,1.0610744953155518,2.132462501525879
477,23575,23574,-0.003253203583881259,0.0027212437707930803,0.9874504208564758,0.3853570818901062,8.292439460754395,0.7494387626647949,2.2574830055236816,3.942695140838623,0.30535808205604553,-0.26140281558036804,1.0348105430603027,2.184187412261963
478,23585,23584,0.10677304118871689,-0.031720250844955444,0.9464250206947327,0.021475916728377342,9.64224624633789,0.42614561319351196,2.257744550704956,3.9433963298797607,0.30522170662879944,-0.3967965245246887,1.0997862815856934,2.2311768531799316
479,23595,23594,0.028486551716923714,0.016940034925937653,1.011149287223816,-3.8787381649017334,11.44853401184082,-0.9740926027297974,2.2587928771972656,3.9429991245269775,0.30518025159835815,-0.4877459704875946,1.05370032787323,2.208122730255127
480,23605,23604,0.014626771211624146,-0.02011774480342865,0.9599736928939819,-10.023920059204102,13.45752239227295,-1.2737094163894653,2.2595715522766113,3.942162275314331,0.30402570962905884,-0.6063870191574097,1.0280492305755615,2.1744558811187744
