,timestamp_start,timestamp_end,acc.x,acc.y,acc.z,gyro.x,gyro.y,gyro.z,stateEstimate.x,stateEstimate.y,stateEstimate.z,stabilizer.pitch,stabilizer.roll,stabilizer.yaw
0,78644,78641,-0.004379151854664087,-0.020281199365854263,0.9556745290756226,0.4955311417579651,6.844185829162598,-2.2170310020446777,1.9965717792510986,4.015073299407959,0.1717778593301773,0.3842109143733978,-0.6378958225250244,2.8109309673309326
1,78654,78651,-0.016948243603110313,0.13276687264442444,0.9689159393310547,0.4006119668483734,6.1167449951171875,-1.66762113571167,1.9940565824508667,4.014776229858398,0.1729716658592224,0.37806829810142517,-0.6731891632080078,2.7791099548339844
2,78664,78661,0.03637353330850601,-0.04051603749394417,0.9575281739234924,-0.4841679036617279,4.0097737312316895,-1.2845131158828735,1.9947038888931274,4.013533592224121,0.1743212193250656,0.18194828927516937,-0.5596138834953308,2.7743117809295654
3,78674,78671,0.03506501764059067,-0.07139652222394943,1.0968014001846313,-2.646615982055664,2.6013476848602295,-1.2494274377822876,1.99437415599823,4.01361083984375,0.1759469211101532,0.18796901404857635,-0.6983405947685242,2.758697271347046
4,78684,78681,0.027345050126314163,-0.006948518566787243,1.056363582611084,-7.731516361236572,4.962238311767578,-0.7000770568847656,1.994866967201233,4.010555267333984,0.1760057657957077,0.0374872088432312,-0.7234633564949036,2.7616467475891113
5,78694,78691,0.01961454004049301,-0.08583544939756393,1.0519541501998901,-8.12138843536377,4.618858814239502,-1.363979458808899,1.9949572086334229,4.010420799255371,0.17745354771614075,0.023220853880047798,-0.8088714480400085,2.7477877140045166
6,78704,78701,-0.03378238156437874,-0.016889790073037148,1.0146617889404297,-7.0860419273376465,0.6854549646377563,-0.5964126586914062,1.995972752571106,4.009723663330078,0.17894139885902405,-0.05236561968922615,-0.9510062336921692,2.73372745513916
7,78714,78711,0.03742218390107155,-0.03253612294793129,1.0055800676345825,-4.9152045249938965,-1.8885679244995117,-0.7479773163795471,1.9918004274368286,4.011701583862305,0.18055228888988495,-0.060035526752471924,-1.1393349170684814,2.717736005783081
8,78724,78721,0.07971949130296707,-0.030339734628796577,1.113473892211914,-0.5443563461303711,-4.961414813995361,-0.25837621092796326,1.9893189668655396,4.012575626373291,0.18213355541229248,-0.07325813174247742,-1.1798737049102783,2.7194631099700928
9,78734,78731,0.011625467799603939,-0.015491237863898277,1.088972568511963,5.130610942840576,-5.8144049644470215,-0.4496751129627228,1.9918065071105957,4.010500431060791,0.1837986707687378,0.08072278648614883,-1.206006646156311,2.7006540298461914
10,78744,78741,-0.014698627404868603,-0.006786494515836239,0.9355431199073792,9.100068092346191,-3.9305062294006348,-0.015115011483430862,1.9896470308303833,4.011775016784668,0.18565967679023743,-0.07771343737840652,-1.1389423608779907,2.7263472080230713
11,78754,78751,0.03167574852705002,-0.014712669886648655,1.0004875659942627,11.2029390335083,-4.267726421356201,-0.3128887414932251,1.99106764793396,4.00761604309082,0.18508650362491608,0.23058773577213287,-1.0131001472473145,2.688086986541748
12,78764,78761,0.01626507379114628,-0.007827566005289555,1.1400861740112305,12.637179374694824,-4.571498870849609,0.20960061252117157,1.987228512763977,4.009222030639648,0.18678933382034302,0.21825143694877625,-0.8609785437583923,2.6993815898895264
13,78774,78771,-0.009686228819191456,0.04048188030719757,1.0681216716766357,9.412446975708008,1.4461134672164917,-0.23323096334934235,1.9861959218978882,4.013587951660156,0.18848204612731934,0.25259605050086975,-0.709516167640686,2.7057716846466064
14,78784,78781,0.034730464220047,-0.022375209257006645,1.0081268548965454,5.375583648681641,4.1589674949646,-0.963337242603302,1.9854217767715454,4.013710021972656,0.19254186749458313,0.3362866938114166,-0.6979911923408508,2.683544158935547
15,78794,78791,0.021862158551812172,-0.001562075107358396,1.0545867681503296,2.1084983348846436,4.111750602722168,-0.7634819746017456,1.9882018566131592,4.01466703414917,0.19484159350395203,-0.11768920719623566,-0.6575092673301697,2.7303595542907715
16,78804,78801,-0.0033228390384465456,-0.039865147322416306,0.988469123840332,-0.4766881465911865,3.2092456817626953,-1.596676230430603,1.9910298585891724,4.014526844024658,0.1966082602739334,-0.29747095704078674,-0.7350151538848877,2.7308640480041504
17,78814,78811,0.018039880320429802,0.02398470602929592,1.0279725790023804,-1.939812421798706,-0.8472403287887573,-1.8643912076950073,1.9841712713241577,4.015126705169678,0.1999972015619278,0.73678058385849,-1.0581233501434326,2.5640642642974854
18,78824,78821,0.023999186232686043,0.07976969331502914,1.1109330654144287,1.0191638469696045,-6.029653549194336,-0.052838217467069626,1.9819289445877075,4.0169501304626465,0.20172595977783203,0.857827365398407,-1.1017189025878906,2.537539482116699
19,78834,78831,0.020676469430327415,-0.032679785043001175,1.0023006200790405,4.903482437133789,-4.114922523498535,0.09349039942026138,1.9816216230392456,4.01704216003418,0.2041759490966797,0.8337484002113342,-1.0909243822097778,2.5475010871887207
20,78844,78841,0.016979161649942398,-0.06591463834047318,1.0151761770248413,10.530596733093262,2.527918815612793,0.028983287513256073,1.9820057153701782,4.013369560241699,0.20375385880470276,0.7359508275985718,-1.0037730932235718,2.563786268234253
21,78854,78851,0.038067322224378586,-0.1761692613363266,1.0627299547195435,15.071076393127441,9.726051330566406,-0.13256685435771942,1.984096884727478,4.012160778045654,0.20624001324176788,0.5529296398162842,-0.7569202184677124,2.585773229598999
22,78864,78861,0.05272452160716057,-0.11870609223842621,1.0410622358322144,18.14322853088379,15.41588020324707,-0.3324744701385498,1.9866214990615845,4.011932849884033,0.20854711532592773,0.2779091000556946,-0.5928810834884644,2.6068248748779297
23,78874,78871,-0.005959090776741505,0.04452682286500931,0.9113467931747437,18.010257720947266,18.852886199951172,-1.0628539323806763,1.988040566444397,4.012206554412842,0.21068431437015533,0.06999968737363815,-0.4717511534690857,2.5995843410491943
24,78884,78881,-0.005606686696410179,0.05849906802177429,1.0147130489349365,15.710369110107422,17.22955894470215,-1.012284755706787,1.9897146224975586,4.011497497558594,0.2140021026134491,-0.19625966250896454,-0.22421590983867645,2.5988211631774902
25,78894,78891,0.0265424195677042,-0.03719225898385048,0.9961878061294556,11.699692726135254,11.914688110351562,-1.4498716592788696,1.9906895160675049,4.009151458740234,0.21615341305732727,-0.40430769324302673,0.035874344408512115,2.5942094326019287
26,78904,78901,-0.04184127599000931,0.006928677670657635,1.082390308380127,6.971487522125244,4.288306713104248,-1.4824976921081543,1.9933578968048096,4.005127906799316,0.21822264790534973,-0.6132235527038574,0.21058601140975952,2.5930709838867188
27,78914,78911,-0.07215872406959534,0.051561251282691956,1.009767770767212,0.7490962743759155,-4.163418769836426,-1.392008900642395,1.9959356784820557,4.004441261291504,0.22125330567359924,-0.7592858672142029,0.2997625172138214,2.590470314025879
28,78924,78921,0.014974408783018589,-0.05340711399912834,0.9298529028892517,-3.3856256008148193,-10.067877769470215,-1.1663309335708618,1.9985318183898926,4.004916667938232,0.22340784966945648,-0.7960383296012878,0.29297077655792236,2.579256772994995
29,78934,78931,-0.006267748773097992,-0.010242997668683529,0.984734058380127,-5.795167446136475,-14.740190505981445,-0.7190713882446289,1.9995595216751099,4.003977298736572,0.2255208045244217,-0.8000786304473877,0.15059512853622437,2.5584170818328857
30,78944,78941,0.015389244072139263,-0.09860910475254059,0.9754391312599182,-6.203798770904541,-16.59172248840332,-0.7246883511543274,1.9992585182189941,4.003071308135986,0.22865904867649078,-0.5628291964530945,0.06513146311044693,2.5466036796569824
31,78954,78951,0.03650568053126335,-0.021157117560505867,0.951471745967865,-4.132683753967285,-16.56588363647461,-0.6829333305358887,1.9980976581573486,3.9983010292053223,0.23116779327392578,-0.17917972803115845,0.6474123597145081,2.618086338043213
32,78964,78961,0.026737235486507416,-0.00973853562027216,0.9677702784538269,-1.3475306034088135,-14.66706657409668,-1.099626064300537,2.0025217533111572,3.9961354732513428,0.23338672518730164,-0.6279946565628052,0.6131473779678345,2.5989015102386475
33,78974,78971,-0.001181921106763184,-0.04081479087471962,0.9459491968154907,-1.6691076755523682,-10.866142272949219,-0.3607359230518341,2.003615617752075,3.9962353706359863,0.2355780005455017,-0.5379642844200134,0.5287920236587524,2.577491521835327
34,78984,78981,-0.00633645337074995,-0.03114313632249832,0.9555439949035645,-4.064829349517822,-9.380791664123535,-0.34953320026397705,2.0030019283294678,3.997678756713867,0.2386619746685028,-0.27853313088417053,0.362099289894104,2.5597283840179443
35,78994,78991,0.033809613436460495,-0.12890145182609558,0.9350529313087463,-7.238171100616455,-9.825525283813477,-0.4669835567474365,2.0021474361419678,3.995177984237671,0.24080868065357208,-0.19630679488182068,0.31066393852233887,2.5544958114624023
36,79004,79001,0.018182843923568726,-0.08264918625354767,0.9186756610870361,-8.536398887634277,-12.302258491516113,-0.27244260907173157,2.0037477016448975,3.9940686225891113,0.24292902648448944,-0.02334626019001007,0.2898394763469696,2.560809850692749
37,79014,79011,-0.003230354283004999,0.01475287415087223,0.9598313570022583,-8.87894344329834,-11.463099479675293,-0.5827867984771729,2.004873752593994,3.9945905208587646,0.24567584693431854,0.021294159814715385,0.10069947689771652,2.5394506454467773
38,79024,79021,0.053396280854940414,-0.06830566376447678,0.9560118913650513,-9.147980690002441,-11.495138168334961,-0.7310628890991211,2.0041534900665283,3.9937381744384766,0.24769790470600128,0.0655868798494339,0.06104427948594093,2.535921096801758
39,79034,79031,0.006324423477053642,-0.012538799084722996,0.9621409773826599,-7.5608415603637695,-10.788104057312012,-0.6486058235168457,2.0042014122009277,3.9929757118225098,0.24975290894508362,0.2612932026386261,0.023653818294405937,2.5383899211883545
40,79044,79041,0.009146549738943577,-0.009837009012699127,0.9326426386833191,-6.365946292877197,-8.944143295288086,-1.5525352954864502,2.004453420639038,3.9927053451538086,0.25020429491996765,0.5116956233978271,-0.13919445872306824,2.531501531600952
41,79054,79051,0.0023206144105643034,0.0865471288561821,0.9133152961730957,-4.810688495635986,-10.215006828308105,-0.8414000272750854,2.004531145095825,3.992994785308838,0.2519964277744293,0.6526541709899902,-0.26747196912765503,2.51739764213562
42,79064,79061,0.02578163892030716,0.05702143907546997,0.8916095495223999,-2.798327922821045,-7.879134178161621,-1.1902419328689575,2.0051703453063965,3.9917123317718506,0.2537279725074768,0.6824077367782593,-0.28271859884262085,2.505185127258301
43,79074,79071,0.0811300203204155,0.02220134250819683,0.819959819316864,-0.17799054086208344,-4.362740516662598,-1.1607125997543335,2.006486654281616,3.99135160446167,0.25531840324401855,0.8167119026184082,-0.3363911211490631,2.4922451972961426
44,79084,79081,0.027037646621465683,-0.008081709034740925,0.9223204851150513,0.7012318968772888,-1.9875837564468384,-1.0116673707962036,2.0068747997283936,3.992018699645996,0.25526872277259827,0.7768318057060242,-0.2835889458656311,2.4792933464050293
45,79094,79091,0.0006713513284921646,-0.008777374401688576,0.9427213072776794,2.0018727779388428,-2.5575711727142334,-1.008861780166626,2.0064525604248047,3.994030714035034,0.25661584734916687,0.7819496989250183,-0.2926042973995209,2.4696435928344727
46,79104,79101,-0.013676824979484081,-0.050635211169719696,0.9567464590072632,1.5751129388809204,0.713320791721344,-0.6466349959373474,2.006526231765747,3.992661476135254,0.2578665614128113,0.8394341468811035,-0.145210400223732,2.459419012069702
47,79114,79111,0.024118227884173393,-0.1386202871799469,0.9511043429374695,0.740636944770813,-0.06495466828346252,-0.30280229449272156,2.0063536167144775,3.990668296813965,0.25914978981018066,0.8662887215614319,-0.16414083540439606,2.4530036449432373
48,79124,79121,0.007032076362520456,-0.04641531780362129,0.9443848729133606,-1.4040154218673706,-0.5770652294158936,-0.004616531543433666,2.0074923038482666,3.9910261631011963,0.2603394687175751,0.8345101475715637,-0.20041368901729584,2.4514687061309814
49,79134,79131,0.006747798528522253,-0.03653312474489212,0.9254416227340698,-3.4463984966278076,-3.0107083320617676,0.1937132477760315,2.006221294403076,3.991750955581665,0.2614917755126953,0.9651569128036499,-0.2683902382850647,2.4549827575683594
50,79144,79141,-0.0114156948402524,0.016561413183808327,0.991503894329071,-4.503370761871338,-2.665602684020996,0.1459190547466278,2.0055770874023438,3.9921703338623047,0.2606990337371826,1.0339223146438599,-0.2894318103790283,2.4550602436065674
51,79154,79151,0.03635675832629204,-0.006933597382158041,1.0012061595916748,-4.77092170715332,-3.145859479904175,-0.04091137647628784,2.0064730644226074,3.9900548458099365,0.26166316866874695,1.098063588142395,-0.3208697438240051,2.456822633743286
52,79164,79161,0.013989903964102268,0.006818592548370361,0.9911171197891235,-3.6924960613250732,-1.9843168258666992,0.1757434606552124,2.006361722946167,3.992023468017578,0.26260632276535034,1.1554276943206787,-0.42290326952934265,2.4616496562957764
53,79174,79171,0.02589062787592411,-0.032650869339704514,0.9455609321594238,-1.5893146991729736,0.7724938988685608,0.39802518486976624,2.00966215133667,3.990978956222534,0.26403239369392395,1.1828200817108154,-0.4935709536075592,2.4670846462249756
54,79184,79181,-0.019037606194615364,0.01678684540092945,0.9936563372612,-0.35781005024909973,3.964871883392334,-0.017081161960959435,2.011808156967163,3.9889588356018066,0.2649967074394226,1.1555677652359009,-0.45653167366981506,2.4676756858825684
55,79194,79191,0.037286534905433655,-0.0265151709318161,0.9494078159332275,1.5803331136703491,6.447364807128906,0.28950098156929016,2.0120773315429688,3.989534616470337,0.26592594385147095,1.0834076404571533,-0.469088077545166,2.471651315689087
56,79204,79201,0.0024868471082299948,-0.0020526808220893145,0.9830002784729004,3.4499218463897705,8.3008451461792,0.28016749024391174,2.0154266357421875,3.9887402057647705,0.26682591438293457,0.9756295084953308,-0.4452788233757019,2.475144147872925
57,79214,79211,0.007538673002272844,-0.033140234649181366,0.9678990840911865,4.5251545906066895,8.271978378295898,0.16630637645721436,2.0157225131988525,3.9885404109954834,0.2670360207557678,0.7836735844612122,-0.3947846591472626,2.4781405925750732
58,79224,79221,-0.04593667387962341,-0.019467245787382126,1.035284399986267,4.310525417327881,6.164209365844727,0.7413374185562134,2.0141119956970215,3.9882376194000244,0.26789531111717224,0.9220948815345764,-0.3367469310760498,2.4774885177612305
59,79234,79231,0.028437510132789612,0.0035071626771241426,0.9727497696876526,3.167051076889038,4.187160015106201,0.7364922761917114,2.015655040740967,3.9880876541137695,0.2687309682369232,0.7335346937179565,-0.29340556263923645,2.4872357845306396
60,79244,79241,0.024719126522541046,0.10146571695804596,0.932826817035675,1.2756725549697876,1.6951713562011719,0.6526793837547302,2.016258955001831,3.9889755249023438,0.27063682675361633,0.9789709448814392,-0.2727149724960327,2.4915144443511963
61,79254,79251,0.00681217759847641,-0.0012778034433722496,0.9712615013122559,-0.05081350728869438,-0.21932773292064667,0.6284741163253784,2.0143935680389404,3.9889206886291504,0.2714710831642151,1.0090763568878174,-0.3527093529701233,2.5051827430725098
62,79264,79261,0.015466294251382351,-0.10553577542304993,0.9724631309509277,-0.9708017110824585,-0.43563392758369446,0.8718616366386414,2.0146286487579346,3.9890260696411133,0.2722660005092621,0.9890215992927551,-0.3729418218135834,2.5142853260040283
63,79274,79271,-0.015253451652824879,-0.0973314493894577,0.9557652473449707,-1.1408438682556152,2.0281803607940674,0.8378546833992004,2.01387882232666,3.987933874130249,0.2715205252170563,1.09292733669281,-0.3952834904193878,2.521193504333496
64,79284,79281,-0.001266329549252987,-0.08203832060098648,0.966023325920105,-0.017659978941082954,5.93559455871582,1.2318342924118042,2.0130457878112793,3.9896202087402344,0.2722441256046295,0.9850135445594788,-0.41255518794059753,2.5345993041992188
65,79294,79291,0.04964952915906906,-0.061247196048498154,0.9351070523262024,0.8487400412559509,8.774837493896484,0.8380287885665894,2.0120537281036377,3.9893805980682373,0.2729499936103821,0.8247748017311096,-0.40549781918525696,2.546264171600342
66,79304,79301,0.022832393646240234,-0.08037534356117249,1.0427889823913574,2.481684684753418,11.745499610900879,0.9474749565124512,2.011484146118164,3.989260196685791,0.27357250452041626,0.6269435882568359,-0.3778870701789856,2.557924509048462
67,79314,79311,0.046134062111377716,-0.07758987694978714,0.9631184935569763,4.002950191497803,13.337481498718262,0.679934561252594,2.0132522583007812,3.9889354705810547,0.27464744448661804,0.3962976336479187,-0.32715532183647156,2.56588077545166
68,79324,79321,0.0038148672319948673,-0.05513062700629234,1.0409066677093506,4.876364707946777,10.089356422424316,0.7876259088516235,2.0145583152770996,3.9874885082244873,0.2752639949321747,0.29058462381362915,-0.1869325190782547,2.567093849182129
69,79334,79331,0.031297411769628525,-0.02521602250635624,0.9841837882995605,5.082772254943848,7.588191986083984,0.7091389298439026,2.0155489444732666,3.9871177673339844,0.27582356333732605,0.10738607496023178,-0.1210857480764389,2.5739753246307373
70,79344,79341,0.04121873155236244,-0.028247354552149773,1.0714900493621826,2.7443695068359375,2.132359266281128,0.7868373394012451,2.016261577606201,3.986105442047119,0.2764590084552765,0.027879999950528145,-0.002704023849219084,2.578084707260132
71,79354,79351,-0.029866419732570648,-0.0022374503314495087,1.0605816841125488,0.8080000877380371,-2.1469945907592773,0.9817358255386353,2.0148658752441406,3.983344078063965,0.27730676531791687,0.3327730596065521,0.011031996458768845,2.58284068107605
72,79364,79361,-0.025982769206166267,0.1403793841600418,0.9845989942550659,-2.0802266597747803,-4.599143981933594,0.9181355834007263,2.0132064819335938,3.9815821647644043,0.27795684337615967,0.6464176774024963,-0.082149438560009,2.594212055206299
73,79374,79371,-0.0007370865205302835,0.02531336061656475,0.998254120349884,-5.129552841186523,-4.2906036376953125,0.8157950639724731,2.0132808685302734,3.9823989868164062,0.27805158495903015,0.6588009595870972,-0.2181130349636078,2.6060242652893066
74,79384,79381,0.01157437078654766,-0.015163510106503963,1.0020437240600586,-5.35910701751709,0.17353187501430511,0.7554401755332947,2.0125131607055664,3.9820058345794678,0.27870631217956543,0.7122453451156616,-0.23140956461429596,2.6128129959106445
75,79394,79391,-0.03732922300696373,-0.010944073088467121,0.9958996176719666,-3.859053611755371,6.436607360839844,0.7175878882408142,2.013949155807495,3.9812705516815186,0.2795199751853943,0.61224365234375,-0.3134568929672241,2.6218814849853516
76,79404,79401,-0.061225395649671555,0.03143123537302017,1.0186293125152588,-0.7692521214485168,13.654958724975586,0.8909993767738342,2.0133044719696045,3.9803872108459473,0.27915769815444946,0.48567429184913635,-0.2843669056892395,2.627932071685791
77,79414,79411,0.038902223110198975,-0.036702461540699005,0.9613108038902283,1.0034725666046143,17.65959358215332,0.4695483148097992,2.0113236904144287,3.9779839515686035,0.2797132432460785,0.4657182991504669,-0.29166826605796814,2.6316099166870117
78,79424,79421,0.001675523235462606,-0.03982485085725784,1.0293769836425781,3.9967992305755615,18.71392250061035,0.6184398531913757,2.0137391090393066,3.977447748184204,0.28049013018608093,0.10808888077735901,-0.25881901383399963,2.637967586517334
79,79434,79431,0.002193242311477661,-0.09563757479190826,0.9639586806297302,5.244211196899414,16.820571899414062,0.39907053112983704,2.012765645980835,3.976897954940796,0.2811109125614166,-0.023653442040085793,-0.18619345128536224,2.640183448791504
80,79444,79441,0.02279888652265072,-0.07665441185235977,0.9094114899635315,5.167607307434082,11.954955101013184,0.13924838602542877,2.0118894577026367,3.9760701656341553,0.2795232832431793,-0.12207671254873276,-0.1114361584186554,2.6405508518218994
81,79454,79451,0.008577242493629456,-0.04450845345854759,0.9650596380233765,3.6756935119628906,7.504263401031494,0.1797664910554886,2.0123937129974365,3.9769489765167236,0.2799871563911438,-0.347902774810791,-0.04487331584095955,2.6421704292297363
82,79464,79461,0.02163715288043022,-0.010205157101154327,0.9833760857582092,1.7912880182266235,3.300302028656006,0.20496441423892975,2.0099704265594482,3.977635622024536,0.2804524898529053,-0.4108647406101227,-0.009820985607802868,2.643928050994873
83,79474,79471,-0.020692212507128716,0.035762637853622437,1.0514580011367798,-0.06479818373918533,4.977419376373291,0.04096351936459541,2.0094213485717773,3.9771389961242676,0.28067147731781006,-0.31225869059562683,-0.003238699398934841,2.6448497772216797
84,79484,79481,0.043088801205158234,0.057354554533958435,0.9007424712181091,-1.555845022201538,9.985149383544922,-0.09867704659700394,2.0089271068573,3.977285385131836,0.2810206115245819,-0.3696078658103943,-0.02253972738981247,2.642317533493042
85,79494,79491,0.003308776766061783,0.05612008646130562,1.018845558166504,-3.3924403190612793,16.481225967407227,-0.3224027752876282,2.0103156566619873,3.974910020828247,0.2814366817474365,-0.6420044898986816,-0.07252237945795059,2.6371467113494873
86,79504,79501,0.04253732040524483,-0.028334014117717743,0.9671809673309326,-4.196579456329346,23.38606071472168,-0.8929097056388855,2.008488893508911,3.9760119915008545,0.2801181375980377,-0.7228936553001404,-0.06913406401872635,2.636255979537964
87,79514,79511,-0.01857413537800312,0.015010815113782883,1.0035187005996704,-4.4058427810668945,24.682632446289062,-0.6708561778068542,2.0086605548858643,3.9752962589263916,0.2803370952606201,-1.1506097316741943,-0.07313694804906845,2.6270804405212402
88,79524,79521,0.019996285438537598,0.05054015666246414,1.027015209197998,-2.4329659938812256,24.897411346435547,-0.352901816368103,2.008589744567871,3.973506450653076,0.28055280447006226,-1.3993264436721802,-0.1543339341878891,2.616830348968506
89,79534,79531,0.005372801795601845,0.057838764041662216,1.0715770721435547,-1.8982741832733154,21.25777816772461,-0.4227231442928314,2.00675892829895,3.9759175777435303,0.28095462918281555,-1.5170880556106567,-0.2787097096443176,2.6022002696990967
90,79544,79541,0.03596752509474754,0.030844151973724365,1.0363882780075073,0.7668412923812866,14.62016487121582,-0.5574991703033447,2.005676507949829,3.975440263748169,0.2805843651294708,-1.733338475227356,-0.29109472036361694,2.596714496612549
91,79554,79551,0.004233019892126322,-0.007747832685709,1.0063323974609375,2.804810047149658,8.849273681640625,-0.736095130443573,2.0066258907318115,3.972850799560547,0.28063422441482544,-1.8364918231964111,-0.2594987452030182,2.589529037475586
92,79564,79561,0.022454265505075455,-0.1481129676103592,0.9938850998878479,4.303694725036621,4.982096195220947,-0.883301854133606,2.006842851638794,3.9736266136169434,0.2809393107891083,-1.9873319864273071,-0.20775023102760315,2.5859594345092773
93,79574,79571,0.047355037182569504,-0.11363337188959122,1.0832908153533936,5.855778217315674,1.5225147008895874,-0.6595144271850586,2.007833957672119,3.9724323749542236,0.28075072169303894,-2.0502378940582275,-0.05196763575077057,2.604871988296509
94,79584,79581,0.007638456765562296,-0.025324251502752304,1.0180734395980835,5.842019557952881,0.5538133382797241,-0.8668344616889954,2.0061254501342773,3.9725852012634277,0.28108763694763184,-2.0175819396972656,0.029223419725894928,2.6050403118133545
95,79594,79591,-0.013420183211565018,0.03289198875427246,1.0783168077468872,4.450427532196045,1.9512946605682373,-0.7832233309745789,2.0070242881774902,3.9707906246185303,0.2814728319644928,-2.053327798843384,0.02421891689300537,2.580193519592285
96,79604,79601,0.015356741845607758,-0.03713684901595116,1.0295674800872803,0.25771835446357727,3.230346918106079,-1.4836734533309937,2.006695032119751,3.970454216003418,0.28184351325035095,-2.1084468364715576,0.04610097408294678,2.5680201053619385
97,79614,79611,-0.009061969816684723,-0.004818612709641457,1.0884249210357666,-3.4860284328460693,3.396178722381592,-2.1027519702911377,2.0064315795898438,3.9700708389282227,0.2822795808315277,-2.132485866546631,0.0004769834049511701,2.5421347618103027
98,79624,79621,-0.023935802280902863,-0.020926039665937424,1.0362414121627808,-4.301788806915283,3.5795505046844482,-1.7780122756958008,2.0065579414367676,3.9697089195251465,0.2827495336532593,-2.2010395526885986,-0.07889466732740402,2.5091490745544434
99,79634,79631,0.006117579527199268,-0.015075555071234703,1.04052734375,-5.197104454040527,2.9542348384857178,-1.4277105331420898,2.0056569576263428,3.9693033695220947,0.283307820558548,-2.258227586746216,-0.0930340588092804,2.5030441284179688
100,79644,79641,0.03983142226934433,-0.1341562271118164,0.9705877304077148,-3.5990614891052246,1.0542908906936646,-1.6685805320739746,2.00573992729187,3.969486951828003,0.2835187315940857,-2.2887508869171143,-0.1755220592021942,2.474750518798828
101,79654,79651,0.007283760234713554,-0.05021611973643303,0.9845268726348877,-0.9778613448143005,-1.100607991218567,-1.4921905994415283,2.0036046504974365,3.9696688652038574,0.2841867506504059,-2.2713708877563477,-0.2181224226951599,2.453315496444702
102,79664,79661,0.026135239750146866,-0.017539143562316895,1.047664761543274,1.882068157196045,-3.3179378509521484,-1.2753796577453613,2.003800630569458,3.9696619510650635,0.284833163022995,-2.229365110397339,-0.06553319096565247,2.4964492321014404
103,79674,79671,0.03012005425989628,-0.021596234291791916,0.9850011467933655,3.511634349822998,-5.335385322570801,-1.5774428844451904,2.0031793117523193,3.9691407680511475,0.28559044003486633,-2.1304142475128174,-0.027595067396759987,2.485874891281128
104,79684,79681,-0.03331490233540535,0.10091494768857956,1.0253924131393433,3.3462162017822266,-5.759666442871094,-1.5882741212844849,2.003838300704956,3.9690890312194824,0.28618714213371277,-2.1584787368774414,-0.05896369740366936,2.441168785095215
105,79694,79691,0.01629498228430748,0.04697708040475845,1.0256638526916504,2.7679953575134277,-4.33073091506958,-1.318021535873413,2.003927707672119,3.969050884246826,0.2867966592311859,-2.2641353607177734,-0.020090855658054352,2.4244067668914795
106,79704,79701,0.019160786643624306,-0.014183714985847473,0.9718796014785767,0.9069851040840149,-3.3207714557647705,-1.5588361024856567,2.005159378051758,3.9665236473083496,0.28918302059173584,-2.155365467071533,-0.009056487120687962,2.4105734825134277
107,79714,79711,-0.04195994883775711,-0.03746974468231201,1.1417666673660278,-1.106701135635376,-4.094852924346924,-1.5739654302597046,2.005033016204834,3.9655959606170654,0.2899446487426758,-2.094939947128296,-0.02723572961986065,2.3934884071350098
108,79724,79721,-0.01720871403813362,-0.15733575820922852,1.0346035957336426,-2.0834875106811523,-4.744419097900391,-1.5941462516784668,2.0056657791137695,3.966604709625244,0.29068025946617126,-2.093829393386841,-0.06732121109962463,2.369659900665283
109,79734,79731,0.06780087202787399,-0.06735925376415253,0.9928150773048401,-3.383188486099243,-4.813314914703369,-1.6466296911239624,2.0055696964263916,3.964658737182617,0.29155659675598145,-2.0003299713134766,0.013063877820968628,2.3962528705596924
110,79744,79741,0.05705014988780022,-0.09190144389867783,1.0048445463180542,-3.423279047012329,-7.471648693084717,-1.5426685810089111,2.004560947418213,3.9629580974578857,0.2940552234649658,-1.8538202047348022,-0.06649679690599442,2.3678276538848877
111,79754,79752,0.047132257372140884,-0.06240297481417656,0.9569967985153198,-3.2767579555511475,-9.349971771240234,-1.5229601860046387,2.005638837814331,3.9615824222564697,0.2949787974357605,-1.8850868940353394,-0.1343918740749359,2.33518123626709
112,79764,79761,-0.020634396001696587,0.02455895207822323,1.017564296722412,-1.8257149457931519,-9.764084815979004,-1.3130894899368286,2.005230665206909,3.960690975189209,0.2960841655731201,-1.6644325256347656,-0.1852835714817047,2.3159894943237305
113,79774,79771,0.020904282107949257,-0.03485093638300896,0.9302977323532104,-1.2833986282348633,-9.43073844909668,-1.1716973781585693,2.0063047409057617,3.9606990814208984,0.2951907813549042,-1.7564654350280762,-0.22061291337013245,2.291581392288208
114,79784,79781,0.04324609413743019,-0.0008552138460800052,1.0025217533111572,-0.034480057656764984,-8.938077926635742,-0.9436401128768921,2.0058305263519287,3.9605164527893066,0.2960643172264099,-1.7458274364471436,-0.2328832894563675,2.2787392139434814
115,79794,79791,0.009878653101623058,0.00287272734567523,1.0643233060836792,1.1874797344207764,-9.796235084533691,-1.0606058835983276,2.0077738761901855,3.959550380706787,0.29680725932121277,-1.708649754524231,-0.1461534947156906,2.2961788177490234
116,79804,79801,-0.014203102327883244,0.041413091123104095,1.0095810890197754,2.518784523010254,-10.194233894348145,-1.2643458843231201,2.007537841796875,3.95857310295105,0.2954786717891693,-1.4358094930648804,-0.19592666625976562,2.263011932373047
117,79814,79811,-0.03928464651107788,0.16414891183376312,0.9213002920150757,2.3832926750183105,-10.036972999572754,-0.8740739822387695,2.0087029933929443,3.9584500789642334,0.296202689409256,-1.3437697887420654,-0.1628270447254181,2.251035451889038
118,79824,79821,-0.02074015885591507,0.07937493175268173,0.9877265691757202,1.4682981967926025,-9.63677978515625,-0.9378511309623718,2.0096418857574463,3.9571480751037598,0.29691192507743835,-1.309026837348938,-0.13692834973335266,2.245182991027832
119,79834,79831,0.02366049587726593,-0.06799279153347015,0.9249452352523804,0.5871602892875671,-8.36853313446045,-0.9648891687393188,2.010725736618042,3.9558563232421875,0.2972535490989685,-1.3480703830718994,-0.12670955061912537,2.233219623565674
120,79844,79841,-0.06703315675258636,-0.0006070834351703525,1.08476984500885,0.39764586091041565,-7.693302631378174,-0.8029501438140869,2.012253522872925,3.9557313919067383,0.2978615462779999,-1.152997612953186,-0.12488336861133575,2.2242395877838135
121,79854,79851,-0.08523634821176529,-0.02929016202688217,1.0537246465682983,-1.4984058141708374,-7.792047023773193,-1.0810376405715942,2.0120694637298584,3.95515513420105,0.2985813319683075,-1.0383975505828857,-0.13796214759349823,2.2135250568389893
122,79864,79861,-0.0005603498429991305,0.02571461908519268,1.0075058937072754,-1.3317261934280396,-7.8317036628723145,-0.9024752378463745,2.012441635131836,3.9536476135253906,0.2992666959762573,-0.9571940898895264,-0.09494733065366745,2.218116044998169
123,79874,79871,-0.0011798065388575196,0.10319158434867859,0.9678839445114136,-1.2249773740768433,-8.606568336486816,-1.2795242071151733,2.0135536193847656,3.952916383743286,0.2971614599227905,-0.8584884405136108,-0.05323987454175949,2.221776008605957
124,79884,79881,0.01575678214430809,-0.11053347587585449,0.9708892107009888,-1.0396100282669067,-8.523797035217285,-0.9752304553985596,2.0140750408172607,3.951472520828247,0.2976763844490051,-0.7666593194007874,-0.09253878891468048,2.206507921218872
125,79894,79891,0.007215954829007387,-0.07487079501152039,0.968582034111023,-1.1700801849365234,-8.91671371459961,-0.9334381222724915,2.014843702316284,3.9506449699401855,0.29816508293151855,-0.8130456805229187,-0.12301495671272278,2.190979480743408
126,79904,79901,-0.0026611685752868652,-0.02419157698750496,0.980501115322113,-1.0264252424240112,-8.60836124420166,-0.4491890072822571,2.0159897804260254,3.949462890625,0.2963118553161621,-0.5409523844718933,-0.15110784769058228,2.182526111602783
127,79914,79911,-0.018603773787617683,-0.04319038242101669,0.958015501499176,-1.6371036767959595,-8.634052276611328,-0.6814478635787964,2.0153682231903076,3.9495363235473633,0.29677698016166687,-0.3605283498764038,-0.10703485459089279,2.1852285861968994
128,79924,79921,0.028303813189268112,-0.04922281578183174,0.939621090888977,-2.1357452869415283,-7.620028972625732,-0.5078609585762024,2.014244318008423,3.9493095874786377,0.29715695977211,-0.5857502222061157,-0.07938465476036072,2.183129072189331
129,79934,79931,-0.031953684985637665,0.011591136455535889,1.0489494800567627,-2.1287386417388916,-5.969282627105713,-0.25638291239738464,2.0179293155670166,3.9477617740631104,0.2961826026439667,-0.5035539865493774,-0.13222026824951172,2.1745662689208984
130,79944,79941,0.0434708446264267,-0.049383148550987244,0.9468082785606384,-2.255600690841675,-6.337823867797852,-0.4034862816333771,2.01873779296875,3.946868419647217,0.2963567078113556,-0.2826767563819885,-0.19000405073165894,2.1676864624023438
131,79954,79951,-0.01241588220000267,0.011148560792207718,1.0322456359863281,-1.6059352159500122,-6.5139875411987305,-0.5930254459381104,2.018155813217163,3.9474034309387207,0.296678364276886,-0.22112536430358887,-0.16098536550998688,2.166957378387451
132,79964,79961,0.0057052308693528175,-0.040594883263111115,0.9648175835609436,-0.8932125568389893,-5.4708380699157715,-0.46584001183509827,2.0188493728637695,3.946079730987549,0.29682815074920654,-0.16315868496894836,-0.1982463002204895,2.16023850440979
133,79974,79971,0.011458744294941425,-0.005577513948082924,1.031358003616333,-0.521496593952179,-5.200399398803711,-0.21608203649520874,2.0198092460632324,3.9471940994262695,0.297335684299469,-0.10558884590864182,-0.21915021538734436,2.1559345722198486
134,79984,79981,0.017581723630428314,-0.03284676373004913,0.9903035759925842,-0.08521856367588043,-4.883955955505371,0.19356073439121246,2.01979660987854,3.9468395709991455,0.29755115509033203,-0.06068197265267372,-0.23205673694610596,2.1544880867004395
135,79994,79991,-0.011105532757937908,-0.017666706815361977,1.0031789541244507,0.9087320566177368,-4.043181896209717,0.16678547859191895,2.0209367275238037,3.946870803833008,0.2977173328399658,-0.027121050283312798,-0.23205742239952087,2.156285285949707
136,80004,80001,-0.0032574208453297615,0.030261371284723282,1.054728388786316,1.40498948097229,-3.1458981037139893,0.051586586982011795,2.0218875408172607,3.947416067123413,0.2979249060153961,0.0007153355400077999,-0.22142094373703003,2.160649538040161
137,80014,80011,0.016175130382180214,-0.027224335819482803,1.0163828134536743,0.863609790802002,-2.684706926345825,-0.1591017246246338,2.023355722427368,3.947279691696167,0.2981220483779907,0.019557960331439972,-0.21725893020629883,2.161301374435425
138,80024,80021,-0.020228775218129158,-0.0576322115957737,1.1232322454452515,-0.03552807867527008,-3.152900218963623,-0.26367440819740295,2.0244781970977783,3.948986053466797,0.2983635663986206,0.14293143153190613,-0.22773247957229614,2.161008596420288
139,80034,80031,-0.06924845278263092,-0.043733034282922745,1.1024953126907349,-1.3278273344039917,-2.746971845626831,0.12873518466949463,2.024796724319458,3.9490132331848145,0.29687926173210144,0.24981093406677246,-0.24834153056144714,2.162079334259033
140,80044,80041,0.02898291125893593,-0.007324254140257835,0.9429138898849487,-2.5291783809661865,-0.7476685047149658,0.4335007667541504,2.025285243988037,3.949070453643799,0.29718589782714844,0.3695048689842224,-0.2889431118965149,2.16624116897583
141,80054,80051,-0.010820623487234116,-0.046625766903162,0.9926227927207947,-2.510711669921875,1.127928376197815,0.633099377155304,2.0251879692077637,3.9492390155792236,0.2975711524486542,0.1514088660478592,-0.3401435315608978,2.172938823699951
142,80064,80061,0.037758007645606995,-0.21028679609298706,1.016255259513855,-2.3270599842071533,3.527968168258667,0.40074270963668823,2.0282702445983887,3.949558734893799,0.2977851927280426,0.2110758125782013,-0.31070229411125183,2.1725196838378906
143,80074,80071,-0.004209007136523724,-0.050901513546705246,1.0532361268997192,-0.5590928196907043,2.311575174331665,0.24858789145946503,2.0286967754364014,3.948977470397949,0.3035579323768616,0.26008832454681396,-0.33864709734916687,2.175882577896118
144,80084,80081,0.03851881995797157,0.08025671541690826,0.9654346704483032,0.5394226312637329,0.4954827129840851,0.4044502079486847,2.0301361083984375,3.949993133544922,0.3042227625846863,0.1682019829750061,-0.32655447721481323,2.180138349533081
145,80094,80091,0.01764543540775776,0.015079286880791187,0.9836378693580627,-0.13348127901554108,-1.7098966836929321,-0.16213089227676392,2.030820608139038,3.9500157833099365,0.30490168929100037,0.2103838175535202,-0.32826125621795654,2.180877685546875
146,80104,80101,-0.012066631577908993,-0.003821904771029949,1.0339802503585815,-1.174791932106018,-2.952890634536743,-0.3367164134979248,2.0313167572021484,3.948378801345825,0.30672526359558105,0.20216284692287445,-0.3494221568107605,2.1806445121765137
147,80114,80111,0.035100679844617844,-0.015354570001363754,0.9865359663963318,-1.5615490674972534,-3.322247266769409,-0.7389029264450073,2.032132625579834,3.948594570159912,0.3074444532394409,0.28439298272132874,-0.37143227458000183,2.1745312213897705
148,80124,80121,0.025788184255361557,-0.02733597718179226,1.0211522579193115,-1.7879364490509033,-4.193732261657715,-1.4255986213684082,2.0334360599517822,3.9486591815948486,0.30818265676498413,0.22957265377044678,-0.400054395198822,2.168919801712036
149,80134,80131,0.011623652651906013,-0.03054487705230713,1.019761085510254,-2.0911571979522705,-3.2026538848876953,-1.197166085243225,2.033890962600708,3.948162317276001,0.30479368567466736,0.39495575428009033,-0.4363459050655365,2.1529812812805176
150,80144,80141,-0.003694817190989852,-0.07996311038732529,0.9729235172271729,-2.029355525970459,-2.2260565757751465,-1.4461568593978882,2.03458571434021,3.9479143619537354,0.30537065863609314,0.4273706078529358,-0.44337859749794006,2.1530849933624268
151,80154,80151,-0.0013024883810430765,-0.02231748402118683,1.0065886974334717,-1.8064426183700562,-0.6217831969261169,-1.2174385786056519,2.0350754261016846,3.9497199058532715,0.3059057891368866,0.47632819414138794,-0.4718751609325409,2.140873670578003
152,80164,80161,0.04159995913505554,-0.020644700154662132,0.9926124811172485,0.14819635450839996,1.0433093309402466,-1.497208595275879,2.0370845794677734,3.9487862586975098,0.30465078353881836,0.4227115511894226,-0.4917139410972595,2.127166271209717
153,80174,80171,0.0146716283634305,-0.013012219220399857,0.9879626631736755,2.702852725982666,3.156193256378174,-1.2639240026474,2.036574125289917,3.949843168258667,0.3051152527332306,0.48591938614845276,-0.4716832935810089,2.1088380813598633
154,80184,80181,0.0755266547203064,-0.05238203704357147,0.9610186219215393,2.914571523666382,5.584399223327637,-1.2208857536315918,2.0381922721862793,3.9484941959381104,0.305574506521225,0.49782007932662964,-0.34735479950904846,2.080744743347168
155,80194,80191,0.08524950593709946,-0.07555919885635376,0.9752669334411621,3.057713270187378,6.565192699432373,-1.2901842594146729,2.041290044784546,3.946880340576172,0.30591148138046265,0.3116028308868408,-0.3029308617115021,2.0717504024505615
156,80204,80201,0.06797663867473602,-0.0987127348780632,0.9696466326713562,1.779909372329712,7.742852210998535,-1.6178603172302246,2.0415303707122803,3.9475531578063965,0.30732396245002747,0.2612696588039398,-0.26508837938308716,2.0553040504455566
157,80214,80211,0.014974478632211685,-0.01527551282197237,0.9843904376029968,-0.03219135105609894,6.895049095153809,-1.5783756971359253,2.0439059734344482,3.947207450866699,0.3076137602329254,0.06774142384529114,-0.24463431537151337,2.041145086288452
158,80224,80221,-0.014202937483787537,0.062252555042505264,0.9756718277931213,-1.0393648147583008,4.79713773727417,-1.7379740476608276,2.0445141792297363,3.9467875957489014,0.30805230140686035,0.05796656385064125,-0.3213511109352112,2.0347793102264404
159,80234,80231,-0.0068960958160459995,0.002503074938431382,0.9689856171607971,-3.6063058376312256,2.1882805824279785,-2.60551381111145,2.046464443206787,3.9456424713134766,0.3085634410381317,-0.071736641228199,-0.3420964479446411,2.0151963233947754
160,80244,80241,0.010167252272367477,0.08581361174583435,1.063002347946167,-1.6792588233947754,-1.1313351392745972,-2.7897911071777344,2.0473341941833496,3.945594072341919,0.30893775820732117,-0.07368194311857224,-0.3825318217277527,1.9934091567993164
161,80254,80251,0.04136129096150398,0.02472453936934471,0.9853475689888,0.15222430229187012,-2.1695055961608887,-2.816169261932373,2.047480821609497,3.94509220123291,0.30932626128196716,-0.037384506314992905,-0.4014611542224884,1.9586430788040161
162,80264,80261,-0.017767615616321564,-0.023406725376844406,1.0050091743469238,2.0104005336761475,-4.599392890930176,-2.6105775833129883,2.0476770401000977,3.944819688796997,0.30882784724235535,0.027745908126235008,-0.4579419493675232,1.931092619895935
163,80274,80271,0.011004735715687275,-0.025538282468914986,0.9842103123664856,4.275211811065674,-5.331539630889893,-2.5096256732940674,2.04848313331604,3.9438538551330566,0.3091306686401367,0.05178629979491234,-0.39553043246269226,1.9004641771316528
164,80284,80281,-0.0011227489449083805,-0.03300321847200394,0.9880461096763611,4.236501693725586,-3.9775571823120117,-2.535790205001831,2.048021078109741,3.942443370819092,0.30948010087013245,0.14963054656982422,-0.31564489006996155,1.8622020483016968
165,80294,80291,-0.0001285833859583363,-0.005395522341132164,1.0128788948059082,5.414944171905518,-2.1964094638824463,-2.7732436656951904,2.0474276542663574,3.942552089691162,0.30985820293426514,0.2897963523864746,-0.2329041212797165,1.8308295011520386
166,80304,80301,0.027305418625473976,-0.026119954884052277,0.9762374758720398,4.128182411193848,0.3741091787815094,-2.871823787689209,2.0474817752838135,3.9418740272521973,0.30918022990226746,0.3124637007713318,-0.2184811532497406,1.800840139389038
167,80314,80311,-0.028808027505874634,-0.0031842850148677826,1.029061198234558,2.8667819499969482,3.5852789878845215,-2.449185609817505,2.048166036605835,3.942007064819336,0.3094108998775482,0.3592653274536133,-0.21560484170913696,1.768947720527649
168,80324,80321,0.02520250901579857,-0.03983305022120476,0.9671452045440674,1.9416886568069458,6.711606025695801,-2.088813066482544,2.0489892959594727,3.9412713050842285,0.3096325397491455,0.2023836374282837,-0.15385961532592773,1.742453694343567
169,80334,80331,-0.017388129606842995,0.08371803164482117,1.0239319801330566,0.2304723709821701,9.90839672088623,-1.8055155277252197,2.0495498180389404,3.9416441917419434,0.3075116276741028,0.15559199452400208,-0.26397329568862915,1.7294094562530518
170,80344,80341,0.03754652664065361,0.05311688035726547,1.042688250541687,1.1933706998825073,10.560028076171875,-1.3512307405471802,2.0510356426239014,3.941357135772705,0.30759042501449585,0.004953321069478989,-0.22446465492248535,1.7087373733520508
171,80354,80351,0.009503437206149101,0.029314815998077393,1.0687813758850098,3.1621408462524414,8.894083023071289,-1.4395625591278076,2.0511460304260254,3.9406566619873047,0.30771419405937195,0.007906461134552956,-0.1722664088010788,1.6857339143753052
172,80364,80361,0.02629297971725464,-0.05297611281275749,0.987016499042511,5.014261245727539,5.560853004455566,-1.1255543231964111,2.050604820251465,3.9396021366119385,0.3100265860557556,-0.04475506395101547,-0.09884516149759293,1.6618539094924927
173,80374,80371,0.007191845681518316,-0.01863011345267296,0.9865390658378601,6.949941635131836,2.9763941764831543,-1.190200924873352,2.05060076713562,3.9398369789123535,0.3103729784488678,-0.05992904305458069,-0.14191532135009766,1.6561713218688965
174,80384,80381,-0.01040982361882925,-0.05558999255299568,0.9720027446746826,8.516447067260742,0.10458913445472717,-0.3599390983581543,2.0513498783111572,3.940335273742676,0.31066688895225525,-0.1831551343202591,-0.07298760116100311,1.641198992729187
175,80394,80391,0.04085547849535942,-0.040034860372543335,1.0464203357696533,8.02725887298584,-0.5819135904312134,-0.347109317779541,2.0515029430389404,3.940225124359131,0.31107214093208313,-0.11627274751663208,0.08550363034009933,1.6300714015960693
176,80404,80401,0.010149994865059853,-0.04784771800041199,1.0007929801940918,7.721248626708984,-0.9083396196365356,-0.3237070143222809,2.053039789199829,3.9385905265808105,0.3084823191165924,-0.2558618187904358,0.23486492037773132,1.616057276725769
177,80414,80411,-0.028539277613162994,0.1373623162508011,0.9866364598274231,4.8960041999816895,1.2669897079467773,-0.8601256608963013,2.0536696910858154,3.9378774166107178,0.3087279796600342,-0.17321820557117462,0.28909915685653687,1.6074327230453491
178,80424,80421,-0.032389722764492035,0.15603376924991608,0.9429708123207092,2.034252882003784,3.0549066066741943,-1.1678584814071655,2.054431915283203,3.9382901191711426,0.3088565170764923,-0.21234023571014404,0.38159415125846863,1.5940380096435547
179,80434,80431,0.028765622526407242,-0.005994847510010004,1.0106090307235718,-1.664432168006897,4.155950546264648,-1.682862639427185,2.0561022758483887,3.9389536380767822,0.3114355206489563,-0.2779121994972229,0.3305971920490265,1.5865641832351685
180,80444,80441,-0.0038960380479693413,-0.10096368193626404,1.1095832586288452,-3.6729984283447266,4.803388595581055,-2.1236226558685303,2.056478977203369,3.938922166824341,0.3117729127407074,-0.25523439049720764,0.3035598695278168,1.566786527633667
181,80454,80451,-0.022870821878314018,-0.13573521375656128,1.1064740419387817,-3.3168420791625977,4.7266693115234375,-2.276454448699951,2.057366371154785,3.9399476051330566,0.3120567202568054,-0.29548636078834534,0.18109942972660065,1.5603982210159302
182,80464,80461,0.026076355949044228,-0.05352567508816719,0.9730420112609863,-1.3564611673355103,4.573777198791504,-2.782896041870117,2.0584847927093506,3.9407739639282227,0.3105645477771759,-0.3502056300640106,0.14974045753479004,1.5382393598556519
183,80474,80471,0.026469485834240913,0.012911263853311539,0.9791468381881714,1.891093373298645,4.443352222442627,-2.328587532043457,2.0581090450286865,3.940584897994995,0.3109077513217926,-0.4391725957393646,0.15516971051692963,1.5087816715240479
184,80484,80481,0.08899326622486115,-0.05054957792162895,0.9742296934127808,5.005023956298828,2.897667407989502,-1.7506521940231323,2.059220790863037,3.9400627613067627,0.31130173802375793,-0.45532307028770447,0.2087269276380539,1.4851750135421753
185,80494,80491,-0.027267921715974808,-0.027838632464408875,1.0083839893341064,6.005813121795654,0.41648396849632263,-0.9520900249481201,2.0597896575927734,3.9399161338806152,0.3137280344963074,-0.5044851303100586,0.2314908653497696,1.4636937379837036
186,80504,80501,-0.0035584191791713238,-0.00527697941288352,1.0214682817459106,4.202460765838623,-0.3402591645717621,-0.38515064120292664,2.0604255199432373,3.939378023147583,0.3142282962799072,-0.43369632959365845,0.3418910801410675,1.453391432762146
187,80514,80511,0.006602605804800987,0.039658110588788986,1.0193551778793335,2.536614418029785,-1.759236216545105,-0.330898255109787,2.0615148544311523,3.938230037689209,0.31468722224235535,-0.4145214855670929,0.42140790820121765,1.4413535594940186
188,80524,80521,-0.030000412836670876,0.039522383362054825,1.119703769683838,0.1603420525789261,-1.3859156370162964,-0.24719057977199554,2.0616514682769775,3.938314437866211,0.31524020433425903,-0.2981328070163727,0.3862956762313843,1.4457733631134033
189,80534,80531,0.006096819415688515,-0.06935133039951324,0.9734339118003845,-2.9012768268585205,0.368395060300827,-0.59222811460495,2.063004493713379,3.9384725093841553,0.3125048279762268,-0.34395796060562134,0.38912859559059143,1.440436601638794
190,80544,80541,0.0017745490185916424,-0.021229136735200882,0.9310734272003174,-4.655765056610107,2.641481399536133,-0.8552910089492798,2.0639421939849854,3.9388043880462646,0.3128581643104553,-0.35454559326171875,0.3490959405899048,1.4333698749542236
191,80554,80551,0.012608352117240429,-0.015614112839102745,0.956858217716217,-5.745561122894287,3.7325007915496826,-0.014940650202333927,2.065018653869629,3.940284490585327,0.3131785988807678,-0.406903475522995,0.2785894274711609,1.4297739267349243
192,80564,80561,0.05070406571030617,-0.15145061910152435,1.0068066120147705,-4.05413293838501,4.4400458335876465,0.6106356978416443,2.0659375190734863,3.9404213428497314,0.3126331865787506,-0.39944466948509216,0.20334698259830475,1.430234432220459
193,80574,80571,0.0408264696598053,-0.1428210288286209,1.0577064752578735,-0.4764055609703064,3.1601147651672363,0.1732296496629715,2.065192222595215,3.939556360244751,0.31289398670196533,-0.3889527916908264,0.16389261186122894,1.4330580234527588
194,80584,80581,-0.026089008897542953,-0.003094249404966831,1.0188512802124023,2.8173224925994873,2.6878886222839355,-0.08716333657503128,2.0667967796325684,3.9392166137695312,0.3130676746368408,-0.5072034001350403,0.18821775913238525,1.4313265085220337
195,80594,80591,-0.010861935093998909,0.11493777483701706,0.9029475450515747,4.020336151123047,2.3317973613739014,-0.40324968099594116,2.0666091442108154,3.939138412475586,0.3102032244205475,-0.4762205481529236,0.2587886452674866,1.432452917098999
196,80604,80601,-0.023319024592638016,0.11676056683063507,1.0306389331817627,4.514832496643066,1.7355903387069702,-0.6427726745605469,2.0672671794891357,3.93942928314209,0.31022313237190247,-0.5995612740516663,0.26603829860687256,1.4176676273345947
197,80614,80611,0.024191884323954582,-0.16797037422657013,0.9903461337089539,2.747379779815674,0.8006117343902588,-0.8105309009552002,2.067368984222412,3.9397389888763428,0.31033873558044434,-0.5318986177444458,0.3391362428665161,1.4193834066390991
198,80624,80621,-0.02762952260673046,-0.10102242976427078,1.0854713916778564,1.6500647068023682,0.2842738628387451,-0.8148394823074341,2.0678274631500244,3.939680576324463,0.3103759288787842,-0.5164928436279297,0.3854062557220459,1.4148420095443726
199,80634,80631,-0.06088058277964592,-0.09944818913936615,1.0636169910430908,-1.2675502300262451,0.7853093147277832,-0.7143144607543945,2.0692574977874756,3.939401388168335,0.3117417097091675,-0.4886387586593628,0.40292176604270935,1.4035080671310425
200,80644,80641,0.025882665067911148,-0.05273967981338501,0.956717312335968,-2.9337639808654785,1.6218339204788208,-1.006845235824585,2.0703811645507812,3.939702272415161,0.3119305670261383,-0.5561038255691528,0.3046216666698456,1.3892806768417358
201,80654,80651,0.007701673079282045,0.004986158572137356,0.9901147484779358,-3.7345306873321533,0.8697716593742371,-0.9507821798324585,2.0715858936309814,3.938507318496704,0.31216615438461304,-0.5669150948524475,0.2641241252422333,1.3729995489120483
202,80664,80661,0.04452471435070038,-0.1008453369140625,0.9556493163108826,-3.4294254779815674,-0.418952077627182,-0.7251223921775818,2.072469711303711,3.937809944152832,0.31124889850616455,-0.5766394138336182,0.21857132017612457,1.3547347784042358
203,80674,80671,0.017037294805049896,-0.003011702559888363,0.9154202342033386,-3.1047677993774414,-3.3551077842712402,-0.7058644890785217,2.072517156600952,3.937093496322632,0.311442106962204,-0.4922815263271332,0.17859089374542236,1.3421928882598877
204,80684,80681,-0.017908785492181778,0.08589541912078857,0.9981673359870911,-2.6962599754333496,-5.578927993774414,-1.3892606496810913,2.0732619762420654,3.9372098445892334,0.3115171790122986,-0.4478102922439575,0.1432121992111206,1.3244401216506958
205,80694,80691,0.03649371117353439,0.034419648349285126,1.033676266670227,-1.510758638381958,-6.386481285095215,-1.8616406917572021,2.074639320373535,3.9358198642730713,0.3134463429450989,-0.49142950773239136,0.19358815252780914,1.3160499334335327
206,80704,80701,-0.01110123936086893,0.054737966507673264,1.1252413988113403,0.3845073878765106,-3.763465642929077,-1.6609176397323608,2.0740067958831787,3.935495615005493,0.3135612905025482,-0.2876633405685425,0.25973817706108093,1.302966594696045
207,80714,80711,-0.025840815156698227,-0.04233167693018913,0.987145185470581,1.3567512035369873,-0.7191078662872314,-2.5432844161987305,2.076467275619507,3.933631181716919,0.3137132227420807,-0.5993973016738892,0.2680022418498993,1.2560410499572754
208,80724,80721,0.01067716907709837,-0.044607169926166534,0.9247640371322632,1.1932061910629272,0.890739917755127,-2.676079750061035,2.077622413635254,3.933610439300537,0.3139878511428833,-0.4904223382472992,0.2834419012069702,1.2367509603500366
209,80734,80731,0.03030998632311821,-0.13267198204994202,0.965672492980957,0.13337966799736023,-0.8935238718986511,-2.729806900024414,2.0766873359680176,3.9340336322784424,0.31481611728668213,-0.4118115305900574,0.20956580340862274,1.212133765220642
210,80744,80741,0.02100370079278946,-0.026462344452738762,1.0347362756729126,-0.8013319373130798,-3.371246099472046,-2.4922027587890625,2.0776195526123047,3.934091091156006,0.3150266110897064,-0.44724908471107483,0.20519523322582245,1.184133768081665
211,80754,80751,-0.004280200228095055,0.005643540062010288,1.0158607959747314,-1.7941603660583496,-5.133025646209717,-2.700514554977417,2.0794029235839844,3.9329254627227783,0.315318763256073,-0.3494778275489807,0.1944461613893509,1.1527903079986572
212,80764,80761,-0.032846346497535706,0.13686710596084595,0.9617880582809448,-1.5063656568527222,-5.756064414978027,-2.821902275085449,2.079911708831787,3.9333274364471436,0.31484460830688477,-0.23851528763771057,0.1834535002708435,1.1272999048233032
213,80774,80771,-0.03790346905589104,0.21331457793712616,0.9761219024658203,-1.5771154165267944,-4.807581424713135,-3.2128167152404785,2.080284357070923,3.933389663696289,0.31505534052848816,-0.3758566081523895,0.16748495399951935,1.0855567455291748
214,80784,80781,0.02765445038676262,0.015117187052965164,0.9596574902534485,-0.38145241141319275,-2.92531418800354,-2.7628259658813477,2.0831897258758545,3.9335405826568604,0.3151000142097473,-0.2090992033481598,0.15225756168365479,1.0588189363479614
215,80794,80791,-0.0007644306169822812,-0.08029753714799881,1.045401930809021,1.933389663696289,-0.4682539999485016,-2.9177355766296387,2.082965612411499,3.9335293769836426,0.3102773129940033,-0.14302699267864227,0.1600446254014969,1.0333384275436401
216,80804,80801,0.031234851107001305,-0.12018539011478424,0.9642111659049988,3.154545307159424,3.2895724773406982,-1.8240928649902344,2.0837440490722656,3.933356285095215,0.3101555109024048,-0.20115259289741516,0.1997579038143158,1.0042210817337036
217,80814,80811,0.004853538703173399,-0.02317402884364128,0.965427577495575,2.963960886001587,4.3397979736328125,-1.562427043914795,2.0853049755096436,3.934648036956787,0.3099660277366638,-0.22119776904582977,0.2540447413921356,1.0006539821624756
218,80824,80821,0.029309293255209923,0.03654084354639053,0.9111486077308655,1.8519741296768188,6.545114994049072,-1.6106925010681152,2.0868301391601562,3.9342267513275146,0.3081595301628113,-0.36738985776901245,0.29862773418426514,0.987755537033081
219,80834,80831,0.03967047855257988,0.011486899107694626,0.9764577150344849,-0.58516925573349,3.0226833820343018,-1.1182538270950317,2.089128017425537,3.9337892532348633,0.30775579810142517,-0.4268503487110138,0.3107461631298065,0.9643568992614746
220,80844,80841,-0.020039228722453117,0.019705642014741898,1.0754839181900024,-3.285033941268921,-0.6808313131332397,-1.369449257850647,2.0888946056365967,3.933666944503784,0.3074233829975128,-0.5049247741699219,0.2818523943424225,0.948373556137085
221,80854,80851,0.031039463356137276,-0.07015528529882431,1.0240755081176758,-4.4649553298950195,-4.771146297454834,-1.601464033126831,2.0902786254882812,3.933755874633789,0.3070443272590637,-0.5090052485466003,0.21730411052703857,0.9404133558273315
222,80864,80861,0.039121415466070175,-0.13664241135120392,1.02667236328125,-6.00584077835083,-7.335323333740234,-1.2584120035171509,2.0916309356689453,3.934856653213501,0.3091633915901184,-0.3682943880558014,0.2006727010011673,0.9326738119125366
223,80874,80871,-0.014224779792129993,-0.0022273235954344273,1.0763633251190186,-6.48208475112915,-11.300445556640625,-0.14145955443382263,2.0908334255218506,3.9344122409820557,0.3092900216579437,-0.19411087036132812,0.09902780503034592,0.9242124557495117
224,80884,80881,0.03236907348036766,-0.14444054663181305,1.0842779874801636,-3.0864059925079346,-8.746304512023926,-1.0032380819320679,2.0920472145080566,3.9343624114990234,0.3092426359653473,-0.31739771366119385,0.10058657824993134,0.9106631875038147
225,80894,80891,0.04663906991481781,-0.04722736403346062,1.0113565921783447,0.30475977063179016,-5.784574031829834,0.06663858890533447,2.09489107131958,3.9333138465881348,0.30664166808128357,-0.13831715285778046,0.06948427110910416,0.8955212235450745
226,80904,80901,-0.018182868137955666,-0.0015089232474565506,1.0464271306991577,1.1455881595611572,-2.451277017593384,-0.14346294105052948,2.095163583755493,3.933143377304077,0.3066394329071045,-0.18049608170986176,0.07126477360725403,0.8903953433036804
227,80914,80911,0.004756313748657703,-0.00644636107608676,1.0076314210891724,2.337446928024292,0.4246702790260315,0.6651988625526428,2.0969011783599854,3.933102607727051,0.3064834773540497,-0.09189413487911224,0.09282936155796051,0.8923659920692444
228,80924,80921,0.011074943467974663,0.015809785574674606,1.0637127161026,1.8700830936431885,0.34516769647598267,0.7090045213699341,2.0974745750427246,3.932971715927124,0.3073834180831909,-0.12043170630931854,0.19690664112567902,0.8968630433082581
229,80934,80931,0.019249197095632553,-0.07203879207372665,1.0000872611999512,0.18716196715831757,-0.6015575528144836,1.4107716083526611,2.09804630279541,3.9317173957824707,0.3074456751346588,-0.15454427897930145,0.20777934789657593,0.903383731842041
230,80944,80941,0.03348124399781227,-0.023418540135025978,0.9614351391792297,-1.5760350227355957,-2.6837635040283203,1.3249815702438354,2.0993826389312744,3.932194948196411,0.30751949548721313,-0.15329067409038544,0.19396506249904633,0.9250382781028748
231,80954,80951,-0.01957097090780735,0.010137923993170261,1.0221683979034424,-3.407726764678955,-3.408402681350708,1.378340244293213,2.10074782371521,3.9320690631866455,0.307574987411499,0.03009350784122944,0.14296813309192657,0.9422599673271179
232,80964,80961,0.02155185677111149,-0.02030746452510357,1.0157407522201538,-4.5195159912109375,-5.921693325042725,1.6954827308654785,2.099576234817505,3.9320921897888184,0.3090519309043884,-0.08701872080564499,0.06643049418926239,0.9519813656806946
233,80974,80971,0.022205816581845284,-0.09760087728500366,1.0054197311401367,-3.816030979156494,-8.026740074157715,1.6591460704803467,2.1024909019470215,3.932366371154785,0.3091091215610504,0.0743158757686615,0.06451501697301865,0.9786471724510193
234,80984,80981,0.045218415558338165,-0.03792545199394226,0.9888982772827148,-2.8752095699310303,-10.128097534179688,1.9204117059707642,2.1029412746429443,3.932124376296997,0.30940675735473633,0.34380125999450684,0.06955232471227646,0.9980581402778625
235,80994,80991,-0.03098071739077568,0.013183391653001308,1.0592622756958008,-2.5445494651794434,-12.994807243347168,2.8863770961761475,2.10152268409729,3.932568311691284,0.30753010511398315,0.22419105470180511,0.008953015320003033,1.0278539657592773
236,81004,81001,0.019085370004177094,0.019769443199038506,1.075379729270935,-1.470784306526184,-6.062487602233887,2.0854029655456543,2.105193853378296,3.9326133728027344,0.3075958788394928,0.3262656331062317,-0.036663271486759186,1.0405161380767822
237,81014,81011,0.018649039790034294,-0.057556115090847015,0.951998770236969,-0.9299194812774658,-1.4887433052062988,2.6267545223236084,2.1058263778686523,3.9318995475769043,0.30779120326042175,0.3608153760433197,-0.06686292588710785,1.0486929416656494
238,81024,81021,-0.001865310245193541,0.07239263504743576,1.1002702713012695,0.07922842353582382,2.009997844696045,3.10027813911438,2.107645034790039,3.9301605224609375,0.309015691280365,0.3534527122974396,-0.08271921426057816,1.0627796649932861
239,81034,81031,-0.0013753068633377552,-0.015710044652223587,1.0194542407989502,0.5107964277267456,4.612369537353516,2.7534544467926025,2.108157157897949,3.9297924041748047,0.309384286403656,0.43139106035232544,-0.08468127250671387,1.088774561882019
240,81044,81041,-0.003928044810891151,-0.005792789161205292,0.9909744262695312,1.491506814956665,5.750535488128662,2.577685832977295,2.1092655658721924,3.9288690090179443,0.30973657965660095,0.3705082833766937,-0.07910682260990143,1.1035349369049072
241,81054,81051,0.04683302715420723,-0.15425421297550201,1.0218505859375,1.904909372329712,5.336546421051025,2.2843799591064453,2.1105637550354004,3.928607225418091,0.3100687861442566,0.31193724274635315,-0.07194618135690689,1.1324893236160278
242,81064,81061,0.06147680804133415,-0.19275036454200745,1.0775264501571655,1.7868013381958008,4.345767498016357,1.5653489828109741,2.111392021179199,3.929408311843872,0.3146114945411682,0.36232292652130127,-0.05486910045146942,1.1704376935958862
243,81074,81071,0.021852372214198112,-0.06264367699623108,0.9295892715454102,1.6967122554779053,3.265207529067993,1.522963285446167,2.111532211303711,3.9291539192199707,0.3153117001056671,0.3207273781299591,-0.023491960018873215,1.1980304718017578
244,81084,81081,0.004678179044276476,0.1354033648967743,0.9363576173782349,0.7622199058532715,2.3535523414611816,1.105848789215088,2.112591028213501,3.929892063140869,0.3159421384334564,0.17772139608860016,-0.0014378203777596354,1.2106937170028687
245,81094,81091,0.05579564720392227,-0.019646545872092247,0.8997543454170227,0.7248026728630066,-0.09500600397586823,1.293394684791565,2.112459897994995,3.929668664932251,0.3145475685596466,0.24525487422943115,-0.000769991718698293,1.220362901687622
246,81104,81101,-0.0297704990953207,0.0002874815836548805,1.0250264406204224,-0.14067672193050385,-1.6993588209152222,1.5444976091384888,2.113109827041626,3.9296765327453613,0.31494978070259094,0.2827746868133545,-0.0025482785422354937,1.231128215789795
247,81114,81111,-0.05839812010526657,0.12308845669031143,1.039236068725586,0.1830822080373764,-1.161020278930664,2.046729326248169,2.114561080932617,3.930265426635742,0.3152535557746887,0.18662014603614807,-0.004630924202501774,1.2558752298355103
248,81124,81121,-0.010366717353463173,0.06770257651805878,1.0093061923980713,0.5432699918746948,-0.0937136709690094,1.8455032110214233,2.1153745651245117,3.9295806884765625,0.3199130892753601,0.23869146406650543,0.07001896947622299,1.260922908782959
249,81134,81131,-0.028380390256643295,0.04716473072767258,1.0716983079910278,1.0542328357696533,-0.65656578540802,1.9320595264434814,2.117011308670044,3.9285225868225098,0.3204945921897888,0.13412518799304962,0.06838768720626831,1.2830785512924194
250,81144,81141,-0.03723585233092308,-0.03413595259189606,0.929876446723938,0.09494799375534058,1.4761501550674438,1.8051846027374268,2.1171493530273438,3.929202079772949,0.3213099241256714,0.2459816187620163,-0.0037013108376413584,1.3072855472564697
251,81154,81151,-0.003018017392605543,-0.0056875329464674,0.8834007978439331,-0.9169313311576843,1.0279006958007812,1.5429811477661133,2.117579936981201,3.929140090942383,0.3217095136642456,0.3161085247993469,-0.01003896351903677,1.3238630294799805
252,81164,81161,0.044059690088033676,-0.10642238706350327,0.9329029321670532,-0.7995870113372803,-0.09264148771762848,1.6793442964553833,2.118271589279175,3.9298572540283203,0.32228097319602966,0.30885210633277893,-0.03758761286735535,1.3519866466522217
253,81174,81171,0.022161293774843216,-0.1927649974822998,1.016112208366394,-0.41224151849746704,-0.3693873882293701,1.536837100982666,2.1190803050994873,3.9294071197509766,0.32276248931884766,0.33927902579307556,-0.06142040714621544,1.3654427528381348
254,81184,81181,0.015195511281490326,-0.21045176684856415,1.0431489944458008,-0.3186548948287964,0.5302930474281311,1.753974437713623,2.1202216148376465,3.929539442062378,0.3232211768627167,0.31059935688972473,-0.07109477370977402,1.3852342367172241
255,81194,81191,0.009098678827285767,-0.07571282982826233,0.9405034780502319,1.0746248960494995,1.7544200420379639,2.0882575511932373,2.1196513175964355,3.9286563396453857,0.3219468891620636,0.4060896337032318,-0.06655408442020416,1.3910224437713623
256,81204,81201,0.06336473673582077,-0.021088982000947,0.874742865562439,0.7579830884933472,2.427293062210083,1.966016411781311,2.1214213371276855,3.9278645515441895,0.32225877046585083,0.2944362759590149,0.027296658605337143,1.4071593284606934
257,81214,81211,0.09830794483423233,-0.08280158787965775,0.9064710140228271,0.3407644033432007,3.2187752723693848,2.579866647720337,2.1214168071746826,3.927194595336914,0.3225458264350891,0.3178170323371887,0.02432958595454693,1.4245991706848145
258,81224,81221,0.07750210165977478,-0.1564805656671524,0.9562203884124756,0.26390841603279114,2.766131639480591,2.729248046875,2.1216137409210205,3.9271984100341797,0.32256758213043213,0.1907627433538437,0.019524170085787773,1.4516898393630981
259,81234,81231,0.014732394367456436,-0.054223280400037766,0.9501217603683472,-0.7362689971923828,1.677748441696167,2.972188711166382,2.122520685195923,3.9270408153533936,0.3226620852947235,0.2392413169145584,0.08501748740673065,1.4728569984436035
260,81244,81241,0.014170974493026733,-0.05445506051182747,0.9413779377937317,-1.3484652042388916,0.6224616169929504,3.0697505474090576,2.1227574348449707,3.927886724472046,0.3228165805339813,0.14958645403385162,0.057747937738895416,1.5323683023452759
261,81254,81251,0.06585895270109177,-0.07597169280052185,0.9891608953475952,-1.9594961404800415,-0.08403605222702026,3.1167075634002686,2.124404191970825,3.928013801574707,0.3228608965873718,0.15644121170043945,0.015402037650346756,1.5671545267105103
262,81264,81261,0.05761386454105377,-0.05467262864112854,0.9512131810188293,-3.280280828475952,0.3918759524822235,2.8555188179016113,2.124363899230957,3.9284348487854004,0.32289502024650574,0.24423015117645264,-0.03858279436826706,1.6049779653549194
263,81274,81271,-0.005213165655732155,-0.005327257793396711,0.9692110419273376,-3.5853371620178223,0.8115036487579346,2.368053436279297,2.124506711959839,3.928643226623535,0.32294195890426636,0.228230819106102,-0.020995113998651505,1.6276930570602417
264,81284,81281,0.021182412281632423,-0.035870425403118134,0.9309412240982056,-2.495082139968872,1.681574821472168,2.561344623565674,2.124006986618042,3.9278669357299805,0.32293710112571716,0.27463147044181824,-0.08401860296726227,1.6520774364471436
265,81294,81291,0.0405508428812027,-0.056818533688783646,1.0063974857330322,-0.6704012155532837,3.3435299396514893,2.9104838371276855,2.1234891414642334,3.9280457496643066,0.3225376009941101,0.057974137365818024,-0.12832799553871155,1.6797029972076416
266,81304,81301,0.03438067436218262,-0.023837313055992126,0.9922738671302795,-0.14344075322151184,4.807956218719482,3.2007622718811035,2.1262154579162598,3.9280142784118652,0.3222745358943939,0.07789701223373413,-0.0745459496974945,1.7031660079956055
267,81314,81311,-0.00727668683975935,-0.002383365761488676,0.9844644665718079,0.3044334053993225,4.571775913238525,3.729992151260376,2.126572370529175,3.9272685050964355,0.3221602141857147,-0.06843331456184387,-0.23450829088687897,1.7373758554458618
268,81324,81321,-0.003202013438567519,0.13434548676013947,0.9491876363754272,0.2964042127132416,4.664618968963623,3.656510353088379,2.128419876098633,3.9283502101898193,0.3197784423828125,-0.07232972979545593,-0.14633633196353912,1.757901668548584
269,81334,81331,0.05371329188346863,0.09316214919090271,0.8905907273292542,0.4362325668334961,3.6642343997955322,3.470668315887451,2.128394365310669,3.9266462326049805,0.3195083439350128,-0.08340281993150711,-0.14396843314170837,1.791188359260559
270,81344,81341,-0.01821882463991642,0.06409923732280731,1.0786442756652832,-1.3318593502044678,1.378912329673767,3.4589426517486572,2.1281752586364746,3.9258267879486084,0.319184809923172,-0.05660461634397507,-0.158081516623497,1.8099277019500732
271,81354,81351,-0.016955289989709854,-0.03167293965816498,1.0309362411499023,-1.6386117935180664,1.3260380029678345,3.7973947525024414,2.127685546875,3.9267327785491943,0.3188037872314453,-0.154519721865654,-0.18535853922367096,1.8666530847549438
272,81364,81361,0.019175641238689423,0.06258757412433624,1.0335029363632202,-2.0987656116485596,0.1312492936849594,4.008166790008545,2.1289374828338623,3.9261865615844727,0.3184100389480591,-0.15455888211727142,-0.14159303903579712,1.9020270109176636
273,81374,81371,0.012567494064569473,-0.00022718808031640947,1.000777006149292,-1.0509580373764038,-0.07026706635951996,3.868079900741577,2.129887104034424,3.926015615463257,0.31809887290000916,-0.29074692726135254,-0.1762867122888565,1.9284532070159912
274,81384,81381,-0.02202993631362915,-0.0023223061580210924,1.0011249780654907,-0.2188686579465866,-0.17019341886043549,3.985334873199463,2.132209539413452,3.9246292114257812,0.3184669315814972,-0.1858256608247757,-0.19326196610927582,1.9519932270050049
275,81394,81391,0.012856950983405113,-0.1231536865234375,0.9831691980361938,0.7204078435897827,-0.20357827842235565,4.306667327880859,2.1325290203094482,3.924523115158081,0.318310409784317,-0.09085103869438171,-0.1194106936454773,1.9895992279052734
276,81404,81401,-0.010369835421442986,-0.03495955839753151,1.0488289594650269,0.8981766700744629,-1.2710720300674438,3.7742748260498047,2.131787061691284,3.9236302375793457,0.31814083456993103,0.003413364291191101,-0.19151757657527924,2.0325491428375244
277,81414,81411,-0.004270647186785936,-0.03998184949159622,0.9464901685714722,1.8146345615386963,-0.24344846606254578,3.313551664352417,2.1318812370300293,3.923961639404297,0.3180531859397888,-0.05576081946492195,-0.09456350654363632,2.0636255741119385
278,81424,81421,0.0024864652659744024,-0.027266619727015495,0.8764565587043762,1.33194100856781,1.3086434602737427,3.1536026000976562,2.132728338241577,3.923046112060547,0.31917643547058105,-0.07299487292766571,-0.08182839304208755,2.0957190990448
279,81434,81431,0.030916700139641762,-0.07826311886310577,1.0494166612625122,-0.2035120576620102,2.0411698818206787,2.675020933151245,2.1336452960968018,3.9228434562683105,0.3189097046852112,-0.10774647444486618,-0.08592306077480316,2.1264920234680176
280,81444,81441,0.011920069344341755,-0.06093103438615799,1.0294256210327148,-0.46968910098075867,2.7853152751922607,2.380769968032837,2.1345391273498535,3.922877788543701,0.3186308741569519,-0.2164272516965866,-0.10299599915742874,2.1733925342559814
281,81454,81451,-0.01647118292748928,0.143646702170372,1.0134615898132324,-1.080179214477539,1.6074492931365967,1.6443147659301758,2.136021852493286,3.92417573928833,0.318832129240036,-0.18165749311447144,-0.12084710597991943,2.1979947090148926
282,81464,81461,-0.00488334009423852,0.03169170767068863,1.0081048011779785,-1.0748047828674316,-0.6881157159805298,1.0620050430297852,2.1353845596313477,3.9241085052490234,0.3187545835971832,-0.28139421343803406,-0.22059600055217743,2.2138617038726807
283,81474,81471,0.005418702028691769,0.036423616111278534,1.0416010618209839,0.38181746006011963,-3.7505345344543457,0.40645331144332886,2.136796712875366,3.924900770187378,0.31855595111846924,-0.15161024034023285,-0.14780090749263763,2.220320463180542
284,81484,81481,-0.003428207477554679,0.09756217896938324,1.0738929510116577,0.5789688229560852,-4.425884246826172,0.1327294558286667,2.1364963054656982,3.9240424633026123,0.31907036900520325,0.0022608067374676466,-0.06956497579813004,2.224405527114868
285,81494,81491,0.0056905318051576614,0.02066119574010372,1.0168224573135376,2.1691670417785645,-3.822958469390869,-0.08982802927494049,2.1364006996154785,3.923156976699829,0.3190843462944031,-0.0811634361743927,-0.062064237892627716,2.231633424758911
286,81504,81501,-0.03177250549197197,-0.015612025745213032,1.0074241161346436,1.4320114850997925,-1.979453682899475,-0.07741609215736389,2.1386849880218506,3.923032283782959,0.3190348148345947,-0.011718769557774067,-0.11962688714265823,2.229214668273926
287,81514,81511,-0.014765526168048382,0.018062539398670197,0.9455570578575134,0.2256413996219635,1.9474736452102661,-0.6143835783004761,2.1394693851470947,3.9245200157165527,0.3190886378288269,0.00438261404633522,-0.10593745112419128,2.2440524101257324
288,81524,81521,-0.03405342623591423,0.01934269815683365,1.0541551113128662,-2.0296080112457275,3.061832904815674,-0.2993481159210205,2.1403725147247314,3.924542188644409,0.31831976771354675,-0.02152421325445175,-0.12694433331489563,2.2315683364868164
289,81534,81531,-0.02322799526154995,-0.061384402215480804,1.0143687725067139,-2.4441447257995605,7.177633285522461,0.07238202542066574,2.140471935272217,3.9248580932617188,0.31832364201545715,-0.020767200738191605,-0.16836339235305786,2.2389328479766846
290,81544,81541,0.022276492789387703,-0.0376632921397686,0.9583948254585266,-2.674777030944824,8.02203369140625,0.20526087284088135,2.1411659717559814,3.9250223636627197,0.31832993030548096,-0.2181483656167984,-0.20972061157226562,2.2386317253112793
291,81554,81551,0.03362339735031128,-0.1355668157339096,1.0548946857452393,-1.9830009937286377,8.143145561218262,0.2882756292819977,2.142362356185913,3.9251179695129395,0.3174474537372589,-0.33214834332466125,-0.25321435928344727,2.244049549102783
292,81564,81561,0.07622715830802917,-0.14859580993652344,1.030775785446167,-0.4541942775249481,6.690676212310791,-0.5601572394371033,2.1437323093414307,3.926123857498169,0.3173636496067047,-0.3511412441730499,-0.27143722772598267,2.2618608474731445
293,81574,81571,0.03005928359925747,-0.05060196295380592,0.8920552134513855,1.610973834991455,5.0027079582214355,-1.2470972537994385,2.1441800594329834,3.9261717796325684,0.31738564372062683,-0.4387156069278717,-0.2538279891014099,2.254080057144165
294,81584,81581,0.02831428498029709,0.010245434008538723,0.9466004371643066,3.1461710929870605,-0.8437751531600952,-0.9226437211036682,2.144662618637085,3.9274168014526367,0.3193173110485077,-0.37261641025543213,-0.20815637707710266,2.2669835090637207
295,81594,81591,0.012613247148692608,0.0021432978101074696,1.0047969818115234,3.8558552265167236,-3.831840991973877,-0.9137110710144043,2.1449174880981445,3.9260802268981934,0.3194085359573364,-0.4016169011592865,-0.1489928811788559,2.2495627403259277
296,81604,81601,0.0070100571028888226,0.06543104350566864,0.9707887172698975,4.421354293823242,-5.58634614944458,-0.5298497080802917,2.1455955505371094,3.926424741744995,0.3193516135215759,-0.30340462923049927,-0.07508111000061035,2.2397921085357666
297,81614,81611,-0.014304948039352894,0.06434249132871628,1.0276468992233276,3.182180166244507,-5.996344089508057,-0.6334562301635742,2.1458146572113037,3.926737070083618,0.3193810284137726,-0.2729811370372772,-0.09126317501068115,2.2456393241882324
298,81624,81621,-0.01808474399149418,0.0036964719183743,1.0363529920578003,1.889828085899353,-5.776323318481445,-0.7225037813186646,2.147003412246704,3.9273502826690674,0.321709007024765,-0.09424613416194916,-0.0477047823369503,2.2331008911132812
299,81634,81631,0.008913940750062466,-0.028436796739697456,1.010668158531189,0.22516383230686188,-4.6326093673706055,-0.9888049364089966,2.1452720165252686,3.9263243675231934,0.32199743390083313,-0.23894929885864258,-0.10579895228147507,2.212587594985962
300,81644,81641,-0.00956828985363245,0.06724338233470917,1.011999249458313,-1.6849716901779175,-3.2967333793640137,-1.1069386005401611,2.1480534076690674,3.927178144454956,0.3220493495464325,-0.07705516368150711,-0.1106586903333664,2.1917412281036377
301,81654,81651,-0.0416678860783577,0.08971705287694931,1.0860011577606201,-2.352165937423706,-1.3260992765426636,-1.1735029220581055,2.1471478939056396,3.9269793033599854,0.32054123282432556,-0.1005597785115242,-0.13393981754779816,2.186800718307495
302,81664,81661,-0.042892273515462875,-0.0028596550691872835,1.0011883974075317,-0.8494707345962524,-0.03307892754673958,-1.3567241430282593,2.148028612136841,3.9270315170288086,0.3206664025783539,-0.07006107270717621,-0.14914169907569885,2.1914310455322266
303,81674,81671,-0.016343511641025543,-0.00416354788467288,0.9938280582427979,0.2136852890253067,0.8554746508598328,-1.5283204317092896,2.1488611698150635,3.9272806644439697,0.32087257504463196,-0.1425589621067047,-0.06957977265119553,2.165355920791626
304,81684,81681,0.042678333818912506,-0.11056926846504211,1.0052220821380615,2.0879359245300293,0.3739350140094757,-1.610617995262146,2.15033221244812,3.928067684173584,0.3220860958099365,-0.05503668263554573,-0.05024136230349541,2.183363199234009
305,81694,81691,-0.007152501493692398,-0.0021611531265079975,1.0468257665634155,2.7295081615448,0.5545160174369812,-2.638965368270874,2.1503524780273438,3.927915334701538,0.3223630487918854,-0.05580820143222809,-0.009305965155363083,2.1498820781707764
306,81704,81701,-0.012251785025000572,0.05619009584188461,1.1009595394134521,2.875171422958374,-1.4429816007614136,-2.1179256439208984,2.1508395671844482,3.9269044399261475,0.3226034641265869,0.04054953530430794,0.03707404062151909,2.1241071224212646
307,81714,81711,0.011782357469201088,-0.03329780325293541,0.9529484510421753,2.7004640102386475,2.5322036743164062,-2.616157293319702,2.150360107421875,3.9260356426239014,0.3236980140209198,-0.12958696484565735,0.005230100825428963,2.0876002311706543
308,81724,81721,-0.008108148351311684,-0.07653224468231201,0.941836416721344,0.05010814219713211,2.051255702972412,-2.251330852508545,2.152371883392334,3.9266436100006104,0.32398825883865356,-0.14981254935264587,0.025819407775998116,2.060723066329956
309,81734,81731,0.06129441782832146,-0.17444035410881042,0.9975025653839111,-1.0671024322509766,1.431124210357666,-2.282291889190674,2.1533098220825195,3.926673412322998,0.32428503036499023,-0.155223086476326,0.01837018132209778,2.0406367778778076
310,81744,81741,0.03260818123817444,-0.104288749396801,0.9893347024917603,-1.7598997354507446,2.3937480449676514,-2.5220210552215576,2.154292583465576,3.926882028579712,0.3245759904384613,-0.09009981155395508,-0.005838136188685894,2.0170350074768066
311,81754,81751,0.05703387409448624,-0.047368813306093216,0.8484066128730774,-3.6234984397888184,3.1138498783111572,-3.0511271953582764,2.153461456298828,3.926825761795044,0.3214796781539917,-0.2087637484073639,-0.04692123830318451,1.9888591766357422
312,81764,81761,0.09987927973270416,-0.08965624123811722,0.8681842088699341,-3.1980245113372803,1.7298427820205688,-2.7317676544189453,2.1554408073425293,3.927089214324951,0.3213839530944824,-0.08740969002246857,-0.10050589591264725,1.9735668897628784
313,81774,81771,0.11132457107305527,-0.15723823010921478,0.9800497889518738,-1.3395047187805176,-0.7074800133705139,-2.6482808589935303,2.154808282852173,3.927494764328003,0.3214168846607208,-0.3260381519794464,-0.13337373733520508,1.93755042552948
314,81784,81781,0.01062875334173441,-0.13374702632427216,1.0353585481643677,0.7523506283760071,-1.1334874629974365,-2.393479824066162,2.157952308654785,3.9276978969573975,0.32096919417381287,-0.20576569437980652,-0.13089990615844727,1.910001277923584
315,81794,81791,0.031176792457699776,-0.039097826927900314,0.9005300998687744,2.4561915397644043,0.7226334810256958,-2.2027218341827393,2.1581759452819824,3.9275262355804443,0.32090264558792114,-0.19117006659507751,-0.0973438024520874,1.8864002227783203
316,81804,81801,-0.008633100427687168,0.06194670498371124,0.9976789355278015,3.6691699028015137,-0.22801660001277924,-2.18979549407959,2.158416748046875,3.927344799041748,0.32069259881973267,-0.17659224569797516,-0.039443448185920715,1.864875078201294
317,81814,81811,0.014680168591439724,-0.01578676328063011,0.9978796243667603,2.6274302005767822,0.17464014887809753,-2.1119699478149414,2.159369945526123,3.927032709121704,0.31888237595558167,-0.25008755922317505,-0.06417077034711838,1.8417550325393677
318,81824,81821,-0.006547920405864716,0.03160632401704788,0.9845063090324402,1.862422227859497,-0.6507790684700012,-1.8232594728469849,2.1599068641662598,3.9274590015411377,0.31854018568992615,-0.15217861533164978,-0.016606397926807404,1.8191999197006226
319,81834,81831,-0.02126365527510643,0.06802564859390259,1.0315495729446411,0.4171038269996643,-1.7846040725708008,-1.2167227268218994,2.1598968505859375,3.9273037910461426,0.31828492879867554,-0.27797412872314453,0.0061798375099897385,1.8032222986221313
320,81844,81841,0.017232146114110947,0.029345126822590828,1.0364809036254883,-0.29750171303749084,-2.2345008850097656,-1.1884573698043823,2.162140130996704,3.9273488521575928,0.31783339381217957,-0.29800504446029663,0.011218899860978127,1.7922189235687256
321,81854,81851,-0.022574512287974358,0.06561921536922455,1.0442779064178467,-1.803086757659912,-0.47080904245376587,-0.6892530918121338,2.1633381843566895,3.9280147552490234,0.3197028934955597,-0.08318040519952774,-2.939158548542764e-05,1.794512152671814
322,81864,81861,-0.03070872649550438,0.007158226799219847,0.9946704506874084,-1.9761154651641846,-2.32431960105896,-1.2417550086975098,2.1621387004852295,3.927503824234009,0.3197488784790039,-0.1243898943066597,-0.02388666197657585,1.7869139909744263
323,81874,81871,0.037127185612916946,-0.061407264322042465,1.0310419797897339,-2.9812357425689697,-3.4545068740844727,-0.6611698269844055,2.163257360458374,3.9290950298309326,0.3196142017841339,-0.09568175673484802,-0.048877257853746414,1.7944141626358032
324,81884,81881,0.03606872260570526,-0.09396456927061081,1.070102334022522,-3.6432747840881348,-5.099686622619629,-0.43415313959121704,2.1624929904937744,3.9295990467071533,0.3232218027114868,0.04465607926249504,-0.0875166803598404,1.7984721660614014
325,81894,81891,0.047771479934453964,-0.10750225186347961,1.0788679122924805,-2.2369179725646973,-3.3097925186157227,-0.6392326354980469,2.164841890335083,3.929812431335449,0.3233388364315033,-0.04428046569228172,-0.13304342329502106,1.7917839288711548
326,81904,81901,-0.003808500012382865,-0.08946121484041214,1.1066800355911255,-0.8171529173851013,-1.5266097784042358,-0.7810784578323364,2.165929079055786,3.9311413764953613,0.3235636055469513,-0.062457166612148285,-0.15862034261226654,1.8128979206085205
327,81914,81911,-0.01881212741136551,-0.0480932854115963,1.0400842428207397,0.49972373247146606,2.907686233520508,-0.8643689155578613,2.166090250015259,3.931107997894287,0.32412540912628174,0.04112089052796364,-0.16025075316429138,1.8013088703155518
328,81924,81921,0.06169966980814934,-0.06799428164958954,1.0569605827331543,0.9589316248893738,3.09847354888916,-0.41035541892051697,2.1667799949645996,3.9309544563293457,0.3245260417461395,-0.07682760804891586,-0.14342185854911804,1.7951877117156982
329,81934,81931,0.03047904185950756,-0.05184987559914589,1.0152784585952759,2.0103321075439453,2.200638771057129,-0.7176787257194519,2.167018175125122,3.9308817386627197,0.3250143229961395,-0.034594953060150146,-0.11570853739976883,1.790198802947998
330,81944,81941,0.02163257636129856,-0.04911552369594574,0.958354115486145,2.02687406539917,0.8958555459976196,-0.5307996869087219,2.168781042098999,3.9311459064483643,0.32540345191955566,-0.12906363606452942,-0.07619067281484604,1.792910099029541
331,81954,81951,-0.002254796214401722,0.021952498704195023,0.9855926632881165,1.5170437097549438,-1.2400368452072144,-0.6340698599815369,2.1679561138153076,3.931509494781494,0.32394203543663025,-0.033640969544649124,-0.11379506438970566,1.7827036380767822
332,81964,81961,0.0021862201392650604,-0.024506380781531334,0.9840571284294128,2.1870148181915283,-3.0677361488342285,-0.39348170161247253,2.169241428375244,3.930785894393921,0.3242186903953552,-0.07262102514505386,-0.07165095955133438,1.7470498085021973
333,81974,81971,-0.022884607315063477,0.03795909881591797,0.9207265973091125,0.2972290813922882,-3.831289768218994,-0.02743195742368698,2.168809652328491,3.9300665855407715,0.324611097574234,0.07253461331129074,-0.027630319818854332,1.7424453496932983
334,81984,81981,-0.06199725717306137,0.1422429233789444,0.9627148509025574,-0.9103475213050842,-1.7388123273849487,0.620431125164032,2.1696605682373047,3.9293582439422607,0.3228552043437958,0.05351788178086281,-0.02027386799454689,1.74042546749115
335,81994,81991,-0.025097467005252838,0.08021198958158493,1.0299911499023438,-1.921418309211731,-0.12593777477741241,0.2798152267932892,2.1701104640960693,3.9299914836883545,0.3229682147502899,0.08557725697755814,-0.03633224964141846,1.7455214262008667
336,82004,82001,0.028639398515224457,0.0494869127869606,0.899889349937439,-1.8490194082260132,1.2783645391464233,0.001743575558066368,2.170053005218506,3.930757999420166,0.323061466217041,0.08278601616621017,-0.06107610836625099,1.7764127254486084
337,82014,82011,-0.028236031532287598,0.06327594071626663,1.0207527875900269,-1.5977768898010254,1.821193814277649,-0.3846393823623657,2.1701159477233887,3.9313771724700928,0.32001715898513794,0.1400488018989563,-0.08214740455150604,1.7755142450332642
338,82024,82021,0.01685931906104088,-0.029985923320055008,0.94783616065979,-1.2748045921325684,2.6902008056640625,-0.606796145439148,2.1734886169433594,3.9315805435180664,0.31972119212150574,-0.0578007847070694,-0.10076583176851273,1.752967357635498
339,82034,82031,-0.03351111337542534,0.09240754693746567,0.9775110483169556,-1.0864967107772827,3.01615047454834,0.2935047149658203,2.1733243465423584,3.9302828311920166,0.31961575150489807,-0.08016124367713928,-0.11207330226898193,1.7323014736175537
340,82044,82041,-0.03959409147500992,0.21140630543231964,0.9733957052230835,-0.7015291452407837,2.871497869491577,0.9887312650680542,2.173764944076538,3.9302990436553955,0.31944969296455383,-0.03656524792313576,-0.11834805458784103,1.7364015579223633
341,82054,82051,0.03089357726275921,0.042011287063360214,0.9121888279914856,-0.5635443329811096,-1.9566543102264404,1.5556838512420654,2.174065113067627,3.929736852645874,0.31388425827026367,-0.06908662617206573,-0.11721457540988922,1.7357168197631836
342,82064,82061,-0.031621187925338745,-0.16391344368457794,1.0777692794799805,1.087496280670166,-0.8385975956916809,1.263033390045166,2.174938917160034,3.9294655323028564,0.313303679227829,0.054283030331134796,-0.09523691236972809,1.7338966131210327
343,82074,82071,-0.051158592104911804,-0.11157771944999695,1.0648542642593384,1.3903671503067017,-1.2525849342346191,1.1630724668502808,2.1743297576904297,3.9299914836883545,0.3128509819507599,-0.15316495299339294,-0.06610069423913956,1.781225323677063
344,82084,82081,0.008319233544170856,0.01725635677576065,0.9677967429161072,0.3177408277988434,1.4715120792388916,0.9744767546653748,2.177525520324707,3.9300239086151123,0.31333646178245544,-0.14063256978988647,-0.04994026944041252,1.8023946285247803
345,82094,82091,0.017980409786105156,0.03301825001835823,0.978975772857666,-0.7535515427589417,2.0308480262756348,0.7188122272491455,2.1774444580078125,3.9303579330444336,0.3129596710205078,-0.06644545495510101,-0.0429975800216198,1.8100357055664062
346,82104,82101,0.006431052926927805,0.045744236558675766,1.001391887664795,-1.0679564476013184,2.047365188598633,0.769094705581665,2.1783342361450195,3.932694911956787,0.31248363852500916,-0.08667980134487152,-0.19210635125637054,1.8492761850357056
347,82114,82111,0.0029331038240343332,0.02536003664135933,1.0319433212280273,-1.119288682937622,1.2156131267547607,0.6874614953994751,2.1792218685150146,3.933102607727051,0.3094542920589447,-0.16969484090805054,-0.19268165528774261,1.842195987701416
348,82124,82121,0.011153968051075935,-0.05620719864964485,1.0020067691802979,0.8460344672203064,-0.12349435687065125,0.43636584281921387,2.180320978164673,3.933255434036255,0.3088248074054718,-0.07560111582279205,-0.17330795526504517,1.8626362085342407
349,82134,82131,0.02838457003235817,-0.014309784397482872,1.0179082155227661,1.5881538391113281,-1.0639030933380127,1.1547659635543823,2.1805131435394287,3.9326226711273193,0.30837875604629517,-0.06958793848752975,-0.16070611774921417,1.900122880935669
350,82144,82141,-0.012117032893002033,0.012618656270205975,1.0225056409835815,2.378387689590454,-1.3521870374679565,1.0456948280334473,2.1822926998138428,3.9338409900665283,0.30601251125335693,-0.16870854794979095,-0.08925847709178925,1.9028472900390625
351,82154,82151,-0.009229641407728195,0.10140972584486008,1.038960337638855,2.140852689743042,-1.9688341617584229,1.1632331609725952,2.183504581451416,3.93308162689209,0.30533933639526367,-0.11655262112617493,-0.03502100706100464,1.8920077085494995
352,82164,82161,0.027610449120402336,0.13574214279651642,1.0620275735855103,2.3025264739990234,-2.131376266479492,1.775400161743164,2.1846165657043457,3.932518720626831,0.30479246377944946,0.014072151854634285,-0.06311629712581635,1.8971248865127563
353,82174,82171,-0.0232080090790987,0.0038483983371406794,1.076204776763916,1.8438012599945068,-2.747586250305176,1.8440988063812256,2.1842408180236816,3.9331560134887695,0.3043559789657593,-0.0854438841342926,-0.09064357727766037,1.9160447120666504
354,82184,82181,0.018321461975574493,-0.07085595279932022,1.0610508918762207,1.2891348600387573,0.9737592339515686,1.9258769750595093,2.185584306716919,3.9337308406829834,0.3044418692588806,-0.056343819946050644,-0.12339808791875839,1.9345860481262207
355,82194,82191,0.02439570240676403,-0.05015118047595024,1.0504730939865112,1.3154939413070679,1.2604854106903076,1.5990469455718994,2.18636417388916,3.9344327449798584,0.30405914783477783,-0.12646576762199402,-0.07706917077302933,1.9526638984680176
356,82204,82201,-0.0016127804992720485,-0.1024417132139206,1.0057774782180786,1.7981489896774292,1.6081488132476807,1.5699113607406616,2.186854124069214,3.9342408180236816,0.30372509360313416,-0.1988191455602646,-0.03199945017695427,1.967826008796692
357,82214,82211,-0.014639006927609444,-0.08473342657089233,1.051794171333313,2.209920644760132,-0.11318878829479218,1.4501124620437622,2.1872756481170654,3.934587240219116,0.30410489439964294,-0.10193862020969391,0.018683942034840584,2.0006415843963623
358,82224,82221,0.0064671840518713,-0.04370489716529846,1.0478044748306274,2.877793788909912,-1.5724027156829834,1.2606736421585083,2.186964988708496,3.9340033531188965,0.3040064871311188,-0.21936632692813873,0.0013862758642062545,2.0038366317749023
359,82234,82231,-0.006924560759216547,0.09208080917596817,1.067933201789856,2.4087188243865967,-3.634389638900757,1.1208268404006958,2.1895620822906494,3.9344770908355713,0.30373120307922363,-0.06948922574520111,0.06449608504772186,2.0070865154266357
360,82244,82241,-0.04334227740764618,0.112478107213974,1.0550826787948608,2.5616602897644043,-4.2624945640563965,1.3158822059631348,2.1894493103027344,3.9338371753692627,0.30041807889938354,0.01834789104759693,0.12087754905223846,2.0057997703552246
361,82254,82251,-0.022831933572888374,0.1207938864827156,1.0594390630722046,2.0339181423187256,-4.176794528961182,1.663910984992981,2.1891896724700928,3.933535099029541,0.30024150013923645,0.05981449782848358,0.14486485719680786,2.036343812942505
362,82264,82261,-0.018941903486847878,-0.04689350724220276,1.0154367685317993,-0.4764287769794464,-1.854106068611145,1.1044659614562988,2.1898791790008545,3.9351344108581543,0.2999197840690613,0.03435209020972252,0.047093119472265244,2.066422939300537
363,82274,82271,0.005029249470680952,-0.11346634477376938,0.9736707806587219,0.4809463322162628,-0.586518406867981,0.8254873752593994,2.190260171890259,3.9363350868225098,0.2997782230377197,0.0031236568465828896,0.06812536716461182,2.0893216133117676
364,82284,82281,0.03389905393123627,-0.13833683729171753,1.043215036392212,-0.9433180689811707,-0.47197508811950684,0.9858121871948242,2.190267562866211,3.936082363128662,0.29923462867736816,0.040375083684921265,0.08210710436105728,2.1168978214263916
365,82294,82291,0.08112439513206482,-0.17843151092529297,1.0678322315216064,1.5462723970413208,2.236895799636841,-0.48269686102867126,2.1907806396484375,3.937251329421997,0.29912400245666504,0.04735662415623665,0.10869506001472473,2.135728597640991
366,82304,82301,0.04493013396859169,-0.05716108903288841,0.9914255738258362,2.622145652770996,1.9629993438720703,-0.39122554659843445,2.1906392574310303,3.936877965927124,0.2990516722202301,-0.04656242951750755,0.15613462030887604,2.1449615955352783
367,82314,82311,0.0035275325644761324,-0.03448988497257233,0.9787172079086304,3.308633804321289,0.9033738374710083,-0.4107486605644226,2.1919806003570557,3.9373698234558105,0.29924872517585754,-0.1143944188952446,0.14393176138401031,2.1406242847442627
368,82324,82321,-0.02190990000963211,0.061180274933576584,1.0342960357666016,2.9812591075897217,-0.5840331315994263,-0.6836143136024475,2.193286657333374,3.9375929832458496,0.2991126775741577,-0.009645847603678703,0.13636741042137146,2.1269898414611816
369,82334,82331,-0.05759232118725777,0.1339099407196045,1.0465189218521118,1.3621294498443604,-1.800183892250061,-0.39535489678382874,2.192983627319336,3.937735080718994,0.2991970479488373,-0.04303615540266037,0.19064432382583618,2.0883662700653076
370,82344,82341,-0.012013472616672516,0.07961294800043106,1.1143226623535156,1.7636840343475342,-3.129828929901123,-0.06492926925420761,2.193920850753784,3.936896324157715,0.3008398115634918,0.10559067130088806,0.15722057223320007,2.089651346206665
371,82354,82351,0.0010134563781321049,-0.03141004219651222,1.0345734357833862,1.2136640548706055,-1.5690635442733765,-0.1392182856798172,2.1932461261749268,3.9369359016418457,0.3011340796947479,0.01694883033633232,0.20337550342082977,2.0686306953430176
372,82364,82361,0.024017348885536194,-0.03826746717095375,1.0236756801605225,1.0115622282028198,-0.49338582158088684,-0.6708880662918091,2.1953446865081787,3.9369125366210938,0.30130496621131897,0.06302269548177719,0.24018265306949615,2.0660974979400635
373,82374,82371,0.0361395999789238,-0.0994488000869751,1.067766547203064,0.5069113373756409,-0.15386134386062622,-0.5614563822746277,2.1959028244018555,3.9365956783294678,0.3003312051296234,0.02017410472035408,0.18874837458133698,2.008286714553833
374,82384,82381,0.06876911967992783,-0.1629629135131836,1.0128710269927979,1.1584242582321167,1.1243467330932617,-0.5579090118408203,2.1966865062713623,3.935664176940918,0.30053362250328064,-0.027022236958146095,0.2234659343957901,1.9826701879501343
375,82394,82391,0.013111940585076809,-0.11869153380393982,0.9057869911193848,1.7109630107879639,1.5005615949630737,-0.17890579998493195,2.197887659072876,3.9350316524505615,0.3007531464099884,-0.018831435590982437,0.2638293206691742,1.9887042045593262
376,82404,82401,0.018595432862639427,0.009476928040385246,1.0004587173461914,1.9605436325073242,-0.05547667294740677,-0.12297368049621582,2.197739362716675,3.9344210624694824,0.30096447467803955,-0.0027560607995837927,0.3052259683609009,1.9820667505264282
377,82414,82411,0.0020094523206353188,-0.008477622643113136,1.0218091011047363,1.464029312133789,-1.1405081748962402,-0.8959476351737976,2.1989285945892334,3.935102939605713,0.2998068034648895,0.1100790947675705,0.3408254086971283,1.9909684658050537
378,82424,82421,0.00497528025880456,0.07982862740755081,0.9447187185287476,-0.27858230471611023,-1.8041356801986694,-1.1228185892105103,2.1989307403564453,3.9343419075012207,0.3000545799732208,0.07189640402793884,0.28404349088668823,1.9031693935394287
379,82434,82431,-0.04359359294176102,0.06570332497358322,1.0211316347122192,-1.6829097270965576,-2.8567330837249756,-0.30495643615722656,2.199969530105591,3.9332611560821533,0.30012908577919006,-0.015838904306292534,0.2796509563922882,1.8373348712921143
380,82444,82441,0.010482335463166237,0.03286104276776314,1.1187573671340942,-2.1419248580932617,-2.0474724769592285,0.02259266935288906,2.200626850128174,3.930267095565796,0.302911639213562,0.13574878871440887,0.2608715891838074,1.8050737380981445
381,82454,82451,0.030439717695116997,-0.05502510070800781,1.0006500482559204,-2.2061400413513184,-0.8516485691070557,0.007824944332242012,2.200099468231201,3.930471658706665,0.3034173846244812,0.15032710134983063,0.23721203207969666,1.8325899839401245
382,82464,82461,2.3749118554405868e-05,0.006646773777902126,1.0308634042739868,-2.627979040145874,0.47651275992393494,0.41894057393074036,2.201219081878662,3.932032823562622,0.30378836393356323,0.12011432647705078,0.13971827924251556,1.8372153043746948
383,82474,82471,0.033682212233543396,-0.032727647572755814,0.9721084237098694,-1.5373613834381104,0.7550292611122131,-0.13776153326034546,2.201540946960449,3.932999610900879,0.3037905991077423,-0.01726979948580265,0.12491828203201294,1.793103814125061
384,82484,82481,0.0545208677649498,-0.08358891308307648,1.0022087097167969,0.12213672697544098,0.6553759574890137,-0.1246705949306488,2.2034780979156494,3.9310460090637207,0.3040443956851959,0.08772994577884674,0.1313544511795044,1.7413415908813477
385,82494,82491,-0.0025553270243108273,-0.005623938515782356,1.0673178434371948,1.366243600845337,0.8698140382766724,0.007581215351819992,2.202436685562134,3.92869234085083,0.30453208088874817,0.1014137715101242,0.16142408549785614,1.732107162475586
386,82504,82501,0.01903892494738102,-0.09416138380765915,0.9447821974754333,1.3485151529312134,-0.01625736802816391,0.33588501811027527,2.20324444770813,3.9286324977874756,0.3049778938293457,-0.03703492507338524,0.12106912583112717,1.740044355392456
387,82514,82511,0.07541028410196304,-0.07934971153736115,1.0109038352966309,1.3962416648864746,-2.0743155479431152,0.36925849318504333,2.2056338787078857,3.92923903465271,0.3060697317123413,0.017927514389157295,0.16263191401958466,1.7326537370681763
388,82524,82521,0.05453014001250267,-0.0611579492688179,0.9849879741668701,0.9634901285171509,-3.2144486904144287,-0.09970224648714066,2.205256938934326,3.929001808166504,0.3061271011829376,0.02107226476073265,0.1953849196434021,1.7344104051589966
389,82534,82531,0.0028788719791918993,0.024566857144236565,0.9306224584579468,0.17992880940437317,-3.354041814804077,-0.44878390431404114,2.207045078277588,3.928807020187378,0.3065599203109741,0.023999786004424095,0.21889156103134155,1.7187262773513794
390,82544,82541,-0.008687513880431652,0.07773464918136597,0.9809767007827759,-0.7341029644012451,-5.321393966674805,-0.19108937680721283,2.2080166339874268,3.929184675216675,0.30597472190856934,0.1271011084318161,0.22438178956508636,1.7348445653915405
391,82554,82551,0.05065898597240448,0.005084020085632801,0.9883970022201538,-0.6115391254425049,-5.958227157592773,-0.07062797248363495,2.2084405422210693,3.9292173385620117,0.30634909868240356,0.25668394565582275,0.22127941250801086,1.7573039531707764
392,82564,82561,-0.003927393816411495,0.08502751588821411,1.0528011322021484,-1.363959550857544,-4.281394004821777,-0.9733142256736755,2.208041191101074,3.929795980453491,0.3067677915096283,0.2079370617866516,0.13357198238372803,1.7498407363891602
393,82574,82571,-0.05489739030599594,0.1398065686225891,0.9799591302871704,-1.7821227312088013,-0.43904000520706177,-1.1064850091934204,2.2090234756469727,3.9308202266693115,0.3067062199115753,0.1867426633834839,0.12493494898080826,1.7461615800857544
394,82584,82581,-0.07579747587442398,0.17218096554279327,1.0200728178024292,-0.8404757380485535,1.3545094728469849,-1.0510046482086182,2.2107863426208496,3.930875778198242,0.3069770336151123,0.27883806824684143,0.11863519996404648,1.7307645082473755
395,82594,82591,0.0034851778764277697,0.11045290529727936,1.0309524536132812,0.5940194129943848,2.3893725872039795,-1.1544560194015503,2.2101449966430664,3.9308390617370605,0.3074119985103607,0.19643458724021912,0.13870491087436676,1.7385504245758057
396,82604,82601,-0.015712423250079155,0.09297025203704834,1.032543420791626,2.071880340576172,3.687263250350952,-1.7027772665023804,2.2107629776000977,3.9312124252319336,0.3076062798500061,0.1712704300880432,0.17995794117450714,1.7239056825637817
397,82614,82611,-0.006424099672585726,0.01717117242515087,0.9937410354614258,2.4133107662200928,3.4074554443359375,-2.0870237350463867,2.2118098735809326,3.9311232566833496,0.30875328183174133,0.13564731180667877,0.22678972780704498,1.7040849924087524
398,82624,82621,-0.055348992347717285,0.05285896360874176,1.0094207525253296,1.705615758895874,1.7484384775161743,-2.3680427074432373,2.212804079055786,3.9310126304626465,0.3091410994529724,0.2049386203289032,0.19522444903850555,1.687152624130249
399,82634,82631,-0.031664326786994934,0.04919947683811188,1.0134004354476929,1.0743167400360107,0.16422179341316223,-2.709670305252075,2.2120819091796875,3.931945323944092,0.3095766305923462,0.21487829089164734,0.15478643774986267,1.6598776578903198
400,82644,82641,-0.025320904329419136,0.015914101153612137,1.0068886280059814,0.19046176970005035,0.4435274600982666,-3.6228322982788086,2.2121684551239014,3.9322361946105957,0.3117629885673523,0.21778440475463867,0.17528846859931946,1.6434367895126343
401,82654,82651,-0.026441793888807297,-0.04322618618607521,0.999579668045044,-0.769440770149231,-0.6383270025253296,-4.076986312866211,2.2129733562469482,3.932264804840088,0.31230679154396057,0.21890313923358917,0.1712697148323059,1.615395426750183
402,82664,82661,-0.03560316562652588,-0.09231533110141754,0.967557966709137,-0.6153062582015991,-0.5160479545593262,-3.6075246334075928,2.212860584259033,3.9327499866485596,0.3128473460674286,0.19593395292758942,0.19167527556419373,1.592237949371338
403,82674,82671,0.006594873033463955,-0.06090126559138298,0.9496309161186218,-0.14193467795848846,-0.1715339869260788,-3.855854034423828,2.21370530128479,3.9325246810913086,0.3089226186275482,0.3058200180530548,0.12390633672475815,1.550336241722107
404,82684,82681,0.003203817643225193,-0.020360661670565605,0.9842997193336487,0.5696915984153748,0.8838651776313782,-3.9994118213653564,2.2137503623962402,3.9332563877105713,0.30919331312179565,0.2293536514043808,0.14860062301158905,1.506131887435913
405,82694,82691,0.00821006577461958,-0.08636432141065598,0.9766726493835449,-0.649634063243866,2.2048492431640625,-4.142757415771484,2.2152647972106934,3.9332690238952637,0.3093356788158417,0.28765588998794556,0.16194696724414825,1.4675344228744507
406,82704,82701,0.011554591357707977,-0.19324782490730286,0.9451191425323486,0.2954323887825012,1.9664946794509888,-3.6583497524261475,2.2151894569396973,3.932806968688965,0.310367226600647,0.18309453129768372,0.1756201982498169,1.4093304872512817
407,82714,82711,-0.035005465149879456,-0.16510635614395142,1.03522527217865,2.1948797702789307,3.1476941108703613,-3.4452664852142334,2.216837167739868,3.9327425956726074,0.31049394607543945,0.15397144854068756,0.21392475068569183,1.3727571964263916
408,82724,82721,0.052457839250564575,-0.05314287543296814,0.9101304411888123,2.414705276489258,3.628195285797119,-3.4240760803222656,2.2178070545196533,3.93263578414917,0.3106333613395691,0.11127732694149017,0.2636597752571106,1.3167369365692139
409,82734,82731,0.013943557627499104,0.041751109063625336,0.9835547208786011,1.6341874599456787,2.1712372303009033,-3.405266284942627,2.219383478164673,3.9314706325531006,0.3107941746711731,0.16152478754520416,0.22568562626838684,1.2674261331558228
410,82744,82741,0.040382035076618195,-0.05912337452173233,1.005192756652832,0.11940024793148041,1.4188176393508911,-3.1584200859069824,2.2194130420684814,3.9321792125701904,0.30992749333381653,0.0522850938141346,0.24813750386238098,1.235051155090332
411,82754,82751,-0.015230081975460052,-0.12487490475177765,1.0256257057189941,-0.1551348865032196,-0.18405045568943024,-2.6549718379974365,2.222119092941284,3.931950569152832,0.30989596247673035,0.04623202979564667,0.2474096566438675,1.190283179283142
412,82764,82761,-0.0033022116404026747,-0.008890816941857338,0.9773014187812805,-0.7512446641921997,0.622602641582489,-2.3036303520202637,2.2233500480651855,3.9320850372314453,0.309848427772522,-0.0010168845765292645,0.2575126588344574,1.162982702255249
413,82774,82771,-0.013897156342864037,0.24522340297698975,1.0163910388946533,-0.4534456431865692,-0.3184295892715454,-2.809471607208252,2.2241835594177246,3.931464195251465,0.3109658360481262,-0.005914762150496244,0.2528413236141205,1.1599370241165161
414,82784,82781,0.03776329755783081,0.1326778382062912,0.9028441309928894,-0.14030270278453827,-1.0900226831436157,-3.31109619140625,2.2242283821105957,3.932149887084961,0.31116586923599243,0.10184963792562485,0.2498665601015091,1.126090168952942
415,82794,82791,-0.04023125395178795,0.09878509491682053,1.092721700668335,-0.009694335982203484,-3.4609766006469727,-2.4401605129241943,2.2250449657440186,3.931594133377075,0.3111383020877838,0.005624975077807903,0.2555162012577057,1.070719599723816
416,82804,82801,0.003942737355828285,-0.04134760797023773,1.0318512916564941,0.39510852098464966,-2.3786120414733887,-2.4056169986724854,2.2283315658569336,3.9315738677978516,0.3119020164012909,0.15373678505420685,0.18896327912807465,0.9765737652778625
417,82814,82811,-0.031827714294195175,0.02792155183851719,0.954001247882843,-0.20287831127643585,-1.7143701314926147,-1.59561288356781,2.229759693145752,3.9314475059509277,0.31196749210357666,0.04995407536625862,0.21284019947052002,0.9515495896339417
418,82824,82821,-0.027064165100455284,0.06283661723136902,1.000172734260559,-2.4637198448181152,3.1847972869873047,-0.930009126663208,2.231233835220337,3.93074893951416,0.31225407123565674,0.14532260596752167,0.2095433622598648,0.9213481545448303
419,82834,82831,0.062462322413921356,-0.19138836860656738,1.0548391342163086,-0.7557973265647888,2.833544969558716,-0.9250433444976807,2.233731746673584,3.9313929080963135,0.312298059463501,-0.050330471247434616,0.10649654269218445,0.9007708430290222
420,82844,82841,0.0742223858833313,-0.2857963442802429,1.0257766246795654,0.5105178356170654,0.8595486283302307,-0.8165744543075562,2.2334394454956055,3.9313454627990723,0.313800185918808,0.025772834196686745,0.12133779376745224,0.8947166800498962
421,82854,82851,0.024105509743094444,-0.08228680491447449,1.0625433921813965,1.620277762413025,0.03382252901792526,-0.913849413394928,2.23458194732666,3.931227922439575,0.3140649199485779,0.012184360064566135,0.15751007199287415,0.8826903104782104
422,82864,82861,0.0019021740881726146,-0.04688205197453499,0.9835484027862549,4.338509559631348,3.880676746368408,-2.091348886489868,2.2338569164276123,3.931201219558716,0.3145045042037964,0.06866402179002762,0.2179458737373352,0.8698733448982239
423,82874,82871,0.005296772345900536,-0.0004238668188918382,0.9362284541130066,3.6874544620513916,2.5951788425445557,-1.982844352722168,2.2357382774353027,3.9308810234069824,0.31351789832115173,-0.05088664963841438,0.29850754141807556,0.8472577333450317
424,82884,82881,0.02529337629675865,0.0015875865938141942,0.9934762120246887,1.965160608291626,2.088393449783325,-1.9230294227600098,2.236198663711548,3.9306223392486572,0.31385600566864014,0.00903999712318182,0.358006089925766,0.8289347290992737
425,82894,82891,-0.027781568467617035,0.03677162528038025,0.9594577550888062,1.11478853225708,0.8356435298919678,-1.8679883480072021,2.2378222942352295,3.9304168224334717,0.31404876708984375,-0.07712596654891968,0.32053667306900024,0.7803133130073547
426,82904,82901,-0.051559507846832275,0.07551385462284088,0.9479072093963623,-0.622398316860199,0.5611787438392639,-0.9610418677330017,2.2384085655212402,3.9310827255249023,0.3145701587200165,0.0016113274032250047,0.2549516260623932,0.7352704405784607
427,82914,82911,0.02825780212879181,-0.011715341359376907,0.9654132127761841,-1.1822553873062134,0.6670812964439392,-1.0539131164550781,2.2385923862457275,3.9300546646118164,0.3147788941860199,0.0057111261412501335,0.3294478952884674,0.7417237162590027
428,82924,82921,-0.013675264082849026,0.005251080263406038,1.004847526550293,-1.8139082193374634,0.7238004803657532,-1.388411521911621,2.23921799659729,3.928497076034546,0.31501516699790955,0.0050194403156638145,0.30223584175109863,0.657955527305603
429,82934,82931,0.012318880297243595,-0.08238240331411362,0.9721956849098206,-1.731107473373413,1.513805627822876,-1.8234809637069702,2.2406718730926514,3.928532600402832,0.3151060938835144,0.013041972182691097,0.19865013659000397,0.6497237086296082
430,82944,82941,-0.014655575156211853,0.0061426423490047455,1.0414237976074219,-1.2142333984375,2.541118860244751,-1.7898118495941162,2.2414894104003906,3.92934513092041,0.31279924511909485,-0.009787660092115402,0.18492741882801056,0.6303957104682922
431,82954,82951,0.025701191276311874,-0.02843816578388214,0.950229287147522,-1.8619123697280884,3.0844082832336426,-1.9123902320861816,2.242642641067505,3.9293713569641113,0.31277552247047424,-0.051680296659469604,0.1738629788160324,0.6119709014892578
432,82964,82961,-0.006941311992704868,-0.011199123226106167,0.9793429374694824,0.3952769339084625,3.038118839263916,-1.989311933517456,2.2436485290527344,3.9299204349517822,0.31273117661476135,-0.09905262291431427,0.16398082673549652,0.6065000891685486
433,82974,82971,-0.027985110878944397,0.0457790233194828,0.9971643686294556,1.3007415533065796,3.434652090072632,-2.086296319961548,2.2437937259674072,3.9298946857452393,0.30665120482444763,-0.05471624806523323,0.18678000569343567,0.5872892737388611
434,82984,82981,0.03843586891889572,-0.03895886614918709,0.9183789491653442,2.1214137077331543,3.1476001739501953,-1.6914961338043213,2.2447404861450195,3.929818630218506,0.3062082827091217,-0.10403899103403091,0.22714339196681976,0.5680299997329712
435,82994,82991,-0.034900419414043427,0.03449496999382973,1.0523700714111328,2.0433578491210938,3.2773566246032715,-1.2844971418380737,2.246410369873047,3.929704189300537,0.3056623339653015,-0.23213960230350494,0.27114468812942505,0.5498111844062805
436,83004,83001,0.03543543443083763,-0.06082471087574959,0.9661622047424316,1.322994351387024,3.8180394172668457,-1.3463300466537476,2.246654510498047,3.9295852184295654,0.30317991971969604,-0.2029053121805191,0.3102913200855255,0.5405693650245667
437,83014,83011,0.004270711913704872,-0.0023635055404156446,0.990155041217804,0.14290857315063477,2.254037618637085,-0.9121531248092651,2.2475180625915527,3.9303929805755615,0.302566260099411,-0.2637273967266083,0.32422637939453125,0.5589997172355652
438,83024,83021,-0.004780201707035303,0.03837023675441742,1.0929418802261353,-1.1462196111679077,4.339491367340088,-1.322285532951355,2.2466745376586914,3.9307239055633545,0.30191370844841003,-0.20174039900302887,0.31694719195365906,0.5797942876815796
439,83034,83031,0.03309015557169914,-0.047028008848428726,0.9771437644958496,-1.8023459911346436,2.66976261138916,-1.1003382205963135,2.2471730709075928,3.9314041137695312,0.3009083569049835,-0.24624167382717133,0.30074504017829895,0.6100420355796814
440,83044,83041,0.01310577429831028,0.06310181319713593,1.0591762065887451,-2.3713090419769287,2.0796258449554443,-1.4544703960418701,2.247380018234253,3.931936502456665,0.30024483799934387,-0.35163649916648865,0.17661863565444946,0.6175134778022766
441,83054,83051,0.022535601630806923,0.03096180036664009,1.0182580947875977,-2.885510206222534,2.8580093383789062,-1.0167125463485718,2.2480077743530273,3.933302879333496,0.29969391226768494,-0.30270668864250183,0.13665059208869934,0.5869884490966797
442,83064,83061,-0.024079492315649986,0.055120211094617844,1.0794672966003418,-2.030527114868164,1.4170985221862793,-0.38314029574394226,2.2478389739990234,3.9329535961151123,0.2992798089981079,-0.40079545974731445,0.1093154326081276,0.5841463208198547
443,83074,83071,0.0043676928617060184,-0.015649454668164253,1.154437780380249,-0.4203169345855713,0.2040296196937561,0.32573196291923523,2.249445676803589,3.933086395263672,0.3022509813308716,-0.40814581513404846,0.0939122661948204,0.5957996249198914
444,83084,83081,0.05540350824594498,-0.16577951610088348,1.0555745363235474,1.1885751485824585,1.51605224609375,-0.37420201301574707,2.250635862350464,3.933990240097046,0.30202269554138184,-0.48948585987091064,0.03571780025959015,0.589219868183136
445,83094,83091,0.0404481515288353,-0.1318979114294052,0.9034889340400696,3.433784008026123,3.180713653564453,-0.42122912406921387,2.2510287761688232,3.933900833129883,0.30205950140953064,-0.43765273690223694,0.08874744921922684,0.5865476727485657
446,83104,83101,-0.0033922838047146797,-0.0011579296551644802,0.9904535412788391,4.860233306884766,-0.7886669039726257,0.010006369091570377,2.251946449279785,3.9337007999420166,0.3039870262145996,-0.4302668869495392,0.1727982610464096,0.5617393851280212
447,83114,83111,-0.0075751557014882565,0.02125239372253418,1.0786503553390503,4.7757978439331055,-1.844078779220581,-0.01551652979105711,2.2531251907348633,3.932685613632202,0.30397114157676697,-0.4616064131259918,0.26595717668533325,0.5627937912940979
448,83124,83121,0.01506662368774414,-0.022916976362466812,1.0098786354064941,3.3893368244171143,-2.7878119945526123,-0.10174692422151566,2.2537615299224854,3.9324254989624023,0.30403026938438416,-0.40035349130630493,0.3438190221786499,0.565086305141449
449,83134,83131,-0.028790300711989403,0.03432600572705269,1.035510540008545,0.3713723421096802,-2.779390335083008,0.11716634035110474,2.2537477016448975,3.9321649074554443,0.3047665059566498,-0.334584504365921,0.38041457533836365,0.56947922706604
450,83144,83141,0.007935579866170883,-0.03728993609547615,1.0090360641479492,-1.5732471942901611,-1.4556567668914795,0.20483508706092834,2.2544426918029785,3.932307481765747,0.3048947751522064,-0.27756649255752563,0.3702048361301422,0.5712846517562866
451,83154,83151,0.06885931640863419,-0.06379969418048859,0.9341186881065369,-4.707531452178955,0.1037103459239006,-0.04018506407737732,2.254972219467163,3.9308905601501465,0.30505824089050293,-0.25404131412506104,0.3246234059333801,0.5164104700088501
452,83164,83161,-0.03057049587368965,0.005906996317207813,1.038550615310669,-4.366806507110596,1.2112854719161987,0.5013250708580017,2.257265329360962,3.931183099746704,0.3050481677055359,-0.4096404016017914,0.24423442780971527,0.5132342576980591
453,83174,83171,-0.0011770870769396424,0.018797073513269424,1.0620825290679932,-5.397228240966797,1.278818964958191,0.2402244210243225,2.258082628250122,3.9314687252044678,0.3034648001194,-0.40830644965171814,0.1633182018995285,0.5023533701896667
454,83184,83181,0.03184344992041588,-0.03782995045185089,0.965612530708313,-5.118415832519531,0.017318569123744965,0.3350190222263336,2.2595906257629395,3.931475877761841,0.30346885323524475,-0.4646107256412506,0.07848063856363297,0.500995397567749
455,83194,83191,0.01184374000877142,0.0023046317510306835,1.016741156578064,-3.2024497985839844,-2.377523899078369,0.30034300684928894,2.2603342533111572,3.93111252784729,0.30359262228012085,-0.4160037040710449,0.09035895019769669,0.5088725090026855
456,83204,83201,-0.022485490888357162,0.05132617801427841,0.9484626650810242,-1.0699182748794556,-3.444270133972168,-7.660024130018428e-05,2.2611289024353027,3.9314401149749756,0.3058314919471741,-0.33867180347442627,0.052532996982336044,0.47574666142463684
457,83214,83211,-0.06263761967420578,0.15635216236114502,1.0227149724960327,-0.563334047794342,-4.646917819976807,0.23553422093391418,2.263561725616455,3.931164026260376,0.30608466267585754,-0.24176107347011566,0.03741592913866043,0.41582006216049194
458,83224,83221,0.01130595151335001,0.006302201189100742,1.005718469619751,2.9033210277557373,-3.782590389251709,0.3943978548049927,2.2613823413848877,3.9302175045013428,0.30616065859794617,-0.21783152222633362,0.0552896112203598,0.47563600540161133
459,83234,83231,0.054806023836135864,-0.09611577540636063,0.9563050270080566,4.2879438400268555,-2.8143184185028076,0.0627945214509964,2.2622382640838623,3.928765296936035,0.30885347723960876,-0.21152009069919586,0.1131834089756012,0.4507772922515869
460,83244,83241,-0.009974462911486626,-0.0019687493331730366,1.0562708377838135,4.2138671875,1.220898985862732,-0.21058857440948486,2.266451597213745,3.928100109100342,0.30910149216651917,-0.3187563121318817,0.10967569053173065,0.3640812933444977
461,83254,83251,0.021151375025510788,-0.07459460198879242,0.9552012085914612,3.6495654582977295,3.0799944400787354,0.17591747641563416,2.2664458751678467,3.926693916320801,0.30939167737960815,-0.3201749324798584,0.18206053972244263,0.32765957713127136
462,83264,83261,0.07328946888446808,-0.06364742666482925,0.9674620628356934,2.478447675704956,2.3079776763916016,0.507932722568512,2.2673044204711914,3.926476240158081,0.3097380995750427,-0.32508212327957153,0.2462223321199417,0.34640756249427795
463,83274,83271,0.0498194582760334,-0.04328542947769165,0.9706767797470093,0.929002583026886,0.43909952044487,0.21769805252552032,2.267042398452759,3.9269862174987793,0.3091362416744232,-0.3179101049900055,0.20542867481708527,0.3451743721961975
464,83284,83281,-0.03828546777367592,0.06041201204061508,1.0258394479751587,-0.7365102767944336,-1.4537427425384521,0.1305057555437088,2.2675974369049072,3.9251203536987305,0.30936262011528015,-0.2816756069660187,0.21700501441955566,0.2779221832752228
465,83294,83291,0.019013209268450737,-0.007121982518583536,0.9421132802963257,-2.3704020977020264,-2.8350296020507812,0.30606967210769653,2.2676000595092773,3.925180673599243,0.3097020983695984,-0.14100056886672974,0.1959248185157776,0.28140369057655334
466,83304,83301,-0.01702905260026455,0.044958069920539856,1.022912859916687,-4.402815341949463,-3.728071689605713,0.21426743268966675,2.2695090770721436,3.9246087074279785,0.3112626373767853,-0.21209803223609924,0.14286834001541138,0.25411465764045715
467,83314,83311,0.035197995603084564,-0.018938269466161728,0.9857631325721741,-3.4636969566345215,-2.654460906982422,0.4816727042198181,2.271421194076538,3.9251694679260254,0.3114565312862396,-0.2644497752189636,0.004768011160194874,0.19406069815158844
468,83324,83321,-0.007960798218846321,-0.01567775569856167,0.9725814461708069,-0.75104159116745,-4.035468101501465,1.025126338005066,2.2701375484466553,3.9244842529296875,0.31182435154914856,-0.08895792812108994,-0.02303355000913143,0.18175150454044342
469,83334,83331,-0.056881632655858994,0.030963795259594917,1.0332661867141724,1.9025388956069946,-0.8258830904960632,0.8487927317619324,2.2729053497314453,3.9229471683502197,0.31198281049728394,-0.24560558795928955,0.06898575276136398,0.19505025446414948
470,83344,83341,-0.006208824459463358,-0.046290669590234756,0.9254388213157654,2.9058868885040283,-0.036163315176963806,0.8276240229606628,2.272552967071533,3.923006534576416,0.31233564019203186,-0.1295982301235199,0.1097097247838974,0.2152915745973587
471,83354,83351,0.03713274747133255,-0.1313270777463913,0.9264543056488037,3.592447280883789,-1.0038530826568604,1.2914952039718628,2.2733314037323,3.922828435897827,0.31261134147644043,-0.08890921622514725,0.16656403243541718,0.22693763673305511
472,83364,83361,0.0688578262925148,-0.1290966272354126,1.0380241870880127,2.3534348011016846,-2.263709545135498,1.1049669981002808,2.275343656539917,3.923292398452759,0.3095330595970154,-0.18522468209266663,0.14929534494876862,0.23865164816379547
473,83374,83371,0.0944233387708664,-0.11270797997713089,0.9428541660308838,1.660628318786621,-2.3982479572296143,0.7417025566101074,2.276029109954834,3.923151731491089,0.3095393776893616,-0.11290158331394196,0.19370652735233307,0.21136802434921265
474,83384,83381,-0.020580913871526718,0.03535071015357971,1.025963544845581,0.3968963325023651,-2.327834129333496,0.511587917804718,2.278536319732666,3.9235169887542725,0.30942124128341675,-0.21464233100414276,0.20831172168254852,0.26395493745803833
475,83394,83391,0.029829589650034904,-0.02125527895987034,0.9186365604400635,-0.8348857760429382,-1.3697644472122192,-0.37600913643836975,2.2781152725219727,3.923872947692871,0.30936628580093384,-0.12966056168079376,0.22225052118301392,0.29580333828926086
476,83404,83401,-0.006844623479992151,0.02207820490002632,0.9659030437469482,-1.419063687324524,-3.0805211067199707,-0.1362430453300476,2.2779948711395264,3.9242758750915527,0.31026917695999146,-0.058631762862205505,0.2125173807144165,0.2781621515750885
477,83414,83411,0.0048054903745651245,0.034691568464040756,1.0652213096618652,-1.3817298412322998,-3.8006649017333984,0.217184916138649,2.2796497344970703,3.9235315322875977,0.3101890981197357,-0.03728654608130455,0.19323602318763733,0.27589651942253113
478,83424,83421,0.005622819997370243,0.12255540490150452,1.0689669847488403,-0.625571608543396,-3.3666040897369385,0.15318746864795685,2.279230833053589,3.9239730834960938,0.3100934326648712,0.06045055389404297,0.1732594221830368,0.3035670816898346
