,timestamp_start,timestamp_end,acc.x,acc.y,acc.z,gyro.x,gyro.y,gyro.z,stateEstimate.x,stateEstimate.y,stateEstimate.z,stabilizer.pitch,stabilizer.roll,stabilizer.yaw
0,31221,31218,0.004850552882999182,-0.014959891326725483,1.0083873271942139,1.485691785812378,2.6791529655456543,4.567272186279297,1.9680390357971191,3.9724228382110596,0.1688714623451233,0.517952024936676,-0.36800092458724976,2.7690036296844482
1,31231,31228,0.006365503184497356,-0.005282302387058735,1.0044437646865845,5.07668924331665,-3.965148448944092,4.449955463409424,1.9672245979309082,3.972332239151001,0.17190910875797272,0.6321308016777039,-0.2532472610473633,2.818966865539551
2,31241,31238,-0.009102270007133484,-0.023779334500432014,0.9962192177772522,8.144145011901855,-13.0839204788208,3.884608507156372,1.9648206233978271,3.9717066287994385,0.17477819323539734,0.8362036943435669,-0.16597265005111694,2.8665785789489746
3,31251,31248,0.02788371592760086,-0.06758881360292435,1.0011934041976929,6.329726696014404,-14.151530265808105,3.441230058670044,1.9654425382614136,3.9727373123168945,0.17756029963493347,0.9780497550964355,-0.056047722697257996,2.9055678844451904
4,31261,31258,0.02787110209465027,-0.010829448699951172,0.9588416814804077,4.150480270385742,-11.859134674072266,3.0467963218688965,1.9662195444107056,3.973789691925049,0.17868468165397644,1.3122782707214355,0.03414817899465561,2.942776918411255
5,31271,31268,0.038554660975933075,0.06029439717531204,0.9694924354553223,-1.6916849613189697,-4.448866844177246,2.7817957401275635,1.9631270170211792,3.974249839782715,0.18076738715171814,1.9152547121047974,0.05877197906374931,2.9881246089935303
6,31281,31278,0.010051539167761803,-0.039054274559020996,0.9913117289543152,-5.4156694412231445,2.2922141551971436,1.873176097869873,1.9736766815185547,3.982914924621582,0.1909959614276886,0.2663349509239197,-1.0252548456192017,3.053769111633301
7,31291,31288,-0.009170029312372208,-0.10272056609392166,0.9850035905838013,-4.9131245613098145,7.003962516784668,2.3333284854888916,1.9748575687408447,3.9829492568969727,0.19389581680297852,0.4299476444721222,-0.9105696082115173,3.0630269050598145
8,31301,31298,0.00012525713827926666,-0.010588284581899643,0.9894432425498962,0.6969981789588928,6.21862268447876,2.578073024749756,1.9757966995239258,3.9835078716278076,0.1979382038116455,0.4987662732601166,-0.793303906917572,3.0753355026245117
9,31311,31308,0.018958285450935364,-0.005987283308058977,0.9822109341621399,9.384284973144531,-0.46026256680488586,2.1943092346191406,1.9771312475204468,3.9838478565216064,0.20146508514881134,0.5056489109992981,-0.669823408126831,3.092358350753784
10,31321,31318,0.009852775372564793,0.0008080111001618207,0.9703989624977112,16.641849517822266,-9.35948371887207,1.6207363605499268,1.9771331548690796,3.9849977493286133,0.2025587409734726,0.6833895444869995,-0.4240163564682007,3.10345458984375
11,31331,31328,0.016046913340687752,-0.03027426451444626,0.9520937204360962,19.86798095703125,-17.291418075561523,1.0011719465255737,1.9781830310821533,3.984292984008789,0.20557698607444763,0.7686352133750916,-0.08359874784946442,3.108017683029175
12,31341,31338,0.017554419115185738,-0.039358872920274734,0.940895140171051,19.203657150268555,-22.26004409790039,1.0111333131790161,1.9776265621185303,3.9850549697875977,0.2088085114955902,1.1968729496002197,0.06610401719808578,3.116792678833008
13,31351,31348,-0.006587072275578976,0.0008936069207265973,0.9548082947731018,14.308950424194336,-22.515478134155273,0.44981953501701355,1.9770644903182983,3.9849469661712646,0.20700599253177643,1.580385684967041,0.4134896993637085,3.1106278896331787
14,31361,31358,0.019954876974225044,-0.05341564118862152,0.9186387658119202,5.0336833000183105,-12.386940002441406,0.03644009307026863,1.9761992692947388,3.9836037158966064,0.20920537412166595,1.9969487190246582,0.7949100732803345,3.0885086059570312
15,31371,31368,0.0179220549762249,0.023196132853627205,0.9164221286773682,-3.7092158794403076,-6.868900299072266,-0.2759910821914673,1.9802700281143188,3.9868927001953125,0.21354734897613525,1.4943020343780518,0.39015477895736694,3.1301040649414062
16,31381,31378,0.027814406901597977,-0.0007700752466917038,0.9253130555152893,-12.562755584716797,4.610740661621094,-0.6966930031776428,1.9796887636184692,3.9877963066101074,0.2161843627691269,1.6825509071350098,0.3441247045993805,3.1302003860473633
17,31391,31388,0.05346790701150894,-0.08159343153238297,0.9737703204154968,-13.945054054260254,6.579740524291992,-0.43147119879722595,1.9797770977020264,3.9883339405059814,0.2150474190711975,1.6945279836654663,0.17220614850521088,3.131207227706909
18,31401,31398,0.0024610846303403378,-0.09806935489177704,1.0134457349777222,-12.803266525268555,7.040025234222412,-0.473802387714386,1.9788557291030884,3.986485004425049,0.2173551470041275,1.6519062519073486,0.2060169130563736,3.0991508960723877
19,31411,31408,0.014859297312796116,-0.15375106036663055,0.9598641395568848,-6.574049472808838,6.3862690925598145,-0.5614628195762634,1.9761484861373901,3.9867608547210693,0.21953493356704712,1.8775163888931274,0.04286152124404907,3.119127035140991
20,31421,31418,0.016363462433218956,-0.12492231279611588,0.9347370862960815,0.7697770595550537,4.727854251861572,-0.9384016394615173,1.9763933420181274,3.9861743450164795,0.21781298518180847,1.7812238931655884,0.06857070326805115,3.094886302947998
21,31431,31428,0.017623689025640488,-0.025012364611029625,0.9385157823562622,5.036496162414551,5.868343353271484,-1.2605266571044922,1.9745783805847168,3.9847655296325684,0.21968433260917664,1.7744500637054443,0.11599909514188766,3.081285238265991
22,31441,31438,-0.0034550500568002462,-0.02694803662598133,0.9400047659873962,7.066153526306152,5.136035442352295,-1.046278476715088,1.9730256795883179,3.984274387359619,0.2213737964630127,1.8304654359817505,0.22033248841762543,3.0671167373657227
23,31451,31448,0.009230243042111397,-0.029095666483044624,0.9534884691238403,6.368574142456055,6.798417568206787,-0.626350462436676,1.9672037363052368,3.9843621253967285,0.22319522500038147,2.3132684230804443,0.12472333014011383,3.1265249252319336
24,31461,31458,0.04739076644182205,-0.08031927794218063,0.9635236263275146,3.827488660812378,10.077559471130371,-1.2836024761199951,1.9659754037857056,3.9828104972839355,0.22516070306301117,2.18289852142334,0.250760942697525,3.099022626876831
25,31471,31468,0.019835766404867172,-0.10311989486217499,0.9460652470588684,0.9518836736679077,16.13970947265625,-1.3244293928146362,1.964206337928772,3.982560873031616,0.22651609778404236,2.2010715007781982,0.3182932734489441,3.0864439010620117
26,31481,31478,-0.004152670502662659,-0.10542945563793182,0.9507079124450684,-3.5808658599853516,24.84499168395996,-1.1879783868789673,1.96379816532135,3.98238468170166,0.22862200438976288,1.8750100135803223,0.33402135968208313,3.0620241165161133
27,31491,31488,0.010310813784599304,-0.024059204384684563,0.9608191847801208,-5.377744674682617,27.205001831054688,-0.3823122978210449,1.9633660316467285,3.982518434524536,0.22657470405101776,1.5837955474853516,0.2795332968235016,3.054713249206543
28,31501,31498,-0.02823691815137863,-0.014708749949932098,0.9960433840751648,-7.712480068206787,28.320629119873047,-0.22793136537075043,1.9612996578216553,3.981452465057373,0.22772033512592316,1.462446689605713,0.3379017114639282,3.0341405868530273
29,31511,31508,0.014648005366325378,-0.08949113637208939,0.9861588478088379,-7.143292427062988,25.190799713134766,0.01185604464262724,1.9598180055618286,3.9810855388641357,0.22904817759990692,1.171125054359436,0.28424325585365295,3.0264711380004883
30,31521,31518,0.009450526908040047,-0.09661546349525452,1.0263570547103882,-6.436710834503174,21.394447326660156,-0.6351773142814636,1.958255648612976,3.978987693786621,0.23235249519348145,0.9250390529632568,0.29935622215270996,3.005244255065918
31,31531,31528,0.028063500300049782,-0.11917217820882797,0.9866772890090942,-5.436115264892578,20.9303035736084,-0.8586975932121277,1.9552332162857056,3.977970600128174,0.23366829752922058,0.7962064743041992,0.24778254330158234,3.004528045654297
32,31541,31538,-0.004461382050067186,0.003606894053518772,0.9758296012878418,-4.562041759490967,17.500045776367188,-1.1959189176559448,1.9521852731704712,3.9779489040374756,0.23516231775283813,0.537591814994812,0.21069960296154022,2.9894907474517822
33,31551,31548,-0.00250178761780262,0.010427335277199745,1.0360854864120483,-5.0987162590026855,15.04625415802002,-0.7298294901847839,1.9501839876174927,3.9757933616638184,0.23754443228244781,0.3193056881427765,0.23849116265773773,2.962242603302002
34,31561,31558,0.017691221088171005,-0.027043575420975685,0.9872938990592957,-5.792238235473633,13.750137329101562,-0.33896952867507935,1.950261116027832,3.9754927158355713,0.239124596118927,0.093583844602108,0.190372496843338,2.949753522872925
35,31571,31568,-0.025639617815613747,-0.024093475192785263,0.9986801743507385,-6.492171287536621,12.157036781311035,0.0077515896409749985,1.9491175413131714,3.975534200668335,0.24079160392284393,-0.1673589050769806,0.12390649318695068,2.940232038497925
36,31581,31578,-0.0047502280212938786,-0.08806106448173523,0.9963669180870056,-8.155723571777344,10.19144344329834,-0.1943494826555252,1.9478554725646973,3.9752979278564453,0.24234607815742493,-0.17006482183933258,0.04695446416735649,2.9498305320739746
37,31591,31588,-0.0012417375110089779,0.0756467878818512,1.0076427459716797,-8.159278869628906,9.118703842163086,-0.714555561542511,1.9486042261123657,3.977292776107788,0.24351152777671814,-0.3757840394973755,-0.12393096089363098,2.9427366256713867
38,31601,31598,0.0338653102517128,0.11118796467781067,1.0025299787521362,-6.540493965148926,6.804225444793701,-1.0098384618759155,1.9457064867019653,3.975313186645508,0.2450333535671234,-0.4023086130619049,-0.20473818480968475,2.93904185295105
39,31611,31608,0.03872140124440193,-0.0334361232817173,0.9771724939346313,-4.486748695373535,5.723500728607178,-0.8324186205863953,1.9462412595748901,3.9742612838745117,0.24659942090511322,-0.5306571125984192,-0.11245473474264145,2.9276950359344482
40,31621,31618,0.0174611434340477,-0.0533466637134552,0.9710462689399719,-2.9447808265686035,5.634913444519043,-1.4851287603378296,1.9445974826812744,3.973445177078247,0.2489650994539261,-0.5743897557258606,-0.22229956090450287,2.917534112930298
41,31631,31628,-0.06167926639318466,0.07206922024488449,0.9786691069602966,-3.6375770568847656,6.270255088806152,-1.367417573928833,1.9442979097366333,3.973391056060791,0.2505359351634979,-0.7552669048309326,-0.31049230694770813,2.8954763412475586
42,31641,31638,-0.050887610763311386,0.05658690258860588,0.9556174278259277,-3.459796667098999,5.801915168762207,-0.6376445889472961,1.943772315979004,3.9725911617279053,0.25207388401031494,-0.7858276963233948,-0.24529993534088135,2.893292188644409
43,31651,31648,-0.08438695222139359,0.08095867186784744,1.0223206281661987,-3.8045549392700195,3.76371431350708,-1.1720389127731323,1.9418565034866333,3.9735333919525146,0.253864049911499,-0.6684994101524353,-0.3458543121814728,2.884512186050415
44,31661,31658,0.011186102405190468,-0.10581652075052261,0.9611656665802002,-3.825517177581787,5.868164539337158,-1.0096330642700195,1.9422951936721802,3.9741833209991455,0.2554066479206085,-0.7612610459327698,-0.4396699368953705,2.863105535507202
45,31671,31668,0.0059069376438856125,-0.02874259650707245,0.992849588394165,-1.107475757598877,2.1900203227996826,-1.026829481124878,1.9421385526657104,3.975642442703247,0.2569279670715332,-0.8735261559486389,-0.5131029486656189,2.8466012477874756
46,31681,31678,-0.027353469282388687,0.05748317018151283,0.9817159175872803,-1.5392811298370361,3.6584842205047607,-1.5867863893508911,1.941357970237732,3.9757730960845947,0.25838392972946167,-0.8749455809593201,-0.5579937100410461,2.8305444717407227
47,31691,31688,-0.013387669809162617,0.11378399282693863,0.9247202277183533,-1.3316361904144287,7.366769790649414,-0.9828317165374756,1.942146897315979,3.9759252071380615,0.2585934102535248,-1.0395357608795166,-0.5913868546485901,2.8134925365448
48,31701,31698,0.02931853011250496,0.051950059831142426,0.8854411840438843,-0.6682084798812866,7.098598003387451,-0.742757260799408,1.9415029287338257,3.9738540649414062,0.25994178652763367,-1.0855915546417236,-0.40747570991516113,2.8400051593780518
49,31711,31708,0.010706806555390358,-0.0396563857793808,0.9017826318740845,0.44846007227897644,3.8900318145751953,-0.6653041243553162,1.9425055980682373,3.9739317893981934,0.2611648440361023,-1.2539381980895996,-0.43997707962989807,2.8283004760742188
50,31721,31718,0.00743270805105567,-0.2864050567150116,0.9501509070396423,0.26936453580856323,-0.026444725692272186,-1.2236803770065308,1.941116452217102,3.9737939834594727,0.26328244805336,-1.2084057331085205,-0.38644665479660034,2.8279294967651367
51,31731,31728,-0.027371885254979134,-0.0112141203135252,1.0159066915512085,0.8141494989395142,-7.045297622680664,-1.957079291343689,1.9413269758224487,3.973111152648926,0.26439857482910156,-1.2538684606552124,-0.3403545022010803,2.825838327407837
52,31741,31738,-0.01744324155151844,-0.101658895611763,0.9688718318939209,-2.7505452632904053,-4.143833160400391,-2.0055384635925293,1.9414799213409424,3.9726810455322266,0.26551395654678345,-1.274472951889038,-0.38610225915908813,2.797811508178711
53,31751,31748,-0.06491586565971375,-0.007781653199344873,0.995350182056427,-5.091370105743408,-8.612929344177246,-1.2964757680892944,1.9409196376800537,3.972996234893799,0.2667892575263977,-1.1862075328826904,-0.4793801009654999,2.761512517929077
54,31761,31758,-0.0033756233751773834,-0.03682055324316025,0.9823467135429382,-6.163942337036133,-6.9525017738342285,-1.4265426397323608,1.9414098262786865,3.973416328430176,0.26790088415145874,-1.177420735359192,-0.5883330702781677,2.7344777584075928
55,31771,31768,0.05169288069009781,-0.12665417790412903,0.9864621758460999,-4.998973846435547,-5.475888252258301,-1.370667576789856,1.9404754638671875,3.9741721153259277,0.2689935564994812,-1.0408070087432861,-0.7075163722038269,2.702523708343506
56,31781,31778,0.026970000937581062,-0.12569555640220642,1.0053497552871704,-3.4343883991241455,-3.353999376296997,-1.895540475845337,1.9402493238449097,3.973705291748047,0.2689782381057739,-1.0028172731399536,-0.7199452519416809,2.6970901489257812
57,31791,31788,0.035437922924757004,-0.04313510283827782,0.9610252976417542,1.9766839742660522,-2.8112900257110596,-1.527679681777954,1.940940260887146,3.9742326736450195,0.2700100243091583,-1.0564863681793213,-0.691580057144165,2.695611000061035
58,31801,31798,-0.003216722048819065,0.025769727304577827,1.0164982080459595,5.627869129180908,-2.474881887435913,-1.7220425605773926,1.9405306577682495,3.9741013050079346,0.2709912359714508,-1.0409235954284668,-0.6707268953323364,2.6805248260498047
59,31811,31808,0.008186650462448597,0.002654555719345808,0.9774490594863892,5.78800630569458,-1.644747257232666,-1.573379397392273,1.940388560295105,3.9738380908966064,0.2719855308532715,-1.020503044128418,-0.5923615097999573,2.6707983016967773
60,31821,31818,0.03888232260942459,-0.06528308242559433,0.9662007093429565,6.267514705657959,-4.701661109924316,-1.693514347076416,1.9399510622024536,3.9757182598114014,0.27655553817749023,-0.9947370886802673,-0.5747745037078857,2.6452507972717285
61,31831,31828,-0.016646241769194603,0.04320073127746582,0.9921784400939941,3.9369561672210693,-5.542537689208984,-2.1342713832855225,1.939613699913025,3.9753506183624268,0.27770620584487915,-0.9199665784835815,-0.48833176493644714,2.6326658725738525
62,31841,31838,-0.02663821168243885,0.029695170000195503,1.0002483129501343,2.5330657958984375,-7.869723796844482,-2.0347752571105957,1.9382864236831665,3.9752326011657715,0.2788751423358917,-0.8432031273841858,-0.4431428015232086,2.6128482818603516
63,31851,31848,0.026516273617744446,-0.005289840046316385,0.988662838935852,0.23397523164749146,-7.574624061584473,-2.146979331970215,1.9370371103286743,3.9750633239746094,0.2786175608634949,-0.6637228727340698,-0.42152202129364014,2.5860636234283447
64,31861,31858,-0.012570580467581749,0.018811188638210297,0.9917716383934021,-1.1406443119049072,-2.283766984939575,-2.7057342529296875,1.9370968341827393,3.975013017654419,0.2796553671360016,-0.5773138999938965,-0.4361775815486908,2.559607744216919
65,31871,31868,0.04678856581449509,0.03860699012875557,0.9169339537620544,-1.1554814577102661,-2.789093494415283,-2.309812068939209,1.9369730949401855,3.9750921726226807,0.28066927194595337,-0.558826208114624,-0.4596509039402008,2.531921863555908
66,31881,31878,-0.015076846815645695,0.010570737533271313,0.9914113283157349,-1.950135588645935,3.8759992122650146,-2.437568187713623,1.9366686344146729,3.975174903869629,0.2832290828227997,-0.5455331802368164,-0.48576948046684265,2.5036420822143555
67,31891,31888,0.011911329813301563,-0.009150939993560314,0.9904792904853821,-0.36310410499572754,4.069911479949951,-2.2254018783569336,1.9389318227767944,3.9756760597229004,0.2833157777786255,-0.8326493501663208,-0.5832828879356384,2.4719159603118896
68,31901,31898,-0.013702360913157463,-0.026177262887358665,1.0194188356399536,2.7866909503936768,0.02509814128279686,-2.2331466674804688,1.9384280443191528,3.975456714630127,0.28448790311813354,-0.7781428694725037,-0.5618628859519958,2.4490439891815186
69,31911,31908,-0.03249082341790199,-0.020257575437426567,1.01251220703125,3.732085704803467,-4.429424285888672,-2.31022310256958,1.9382041692733765,3.9748897552490234,0.28552892804145813,-0.7488766312599182,-0.5040967464447021,2.432111978530884
70,31921,31918,-0.05629761517047882,0.03841566666960716,1.0100423097610474,5.611072540283203,-7.590392112731934,-2.089202404022217,1.9368388652801514,3.975168228149414,0.28639811277389526,-0.5835601687431335,-0.42757514119148254,2.411062240600586
71,31931,31928,-0.07000074535608292,0.09713180363178253,0.9934185743331909,6.960211753845215,-8.383094787597656,-1.4567407369613647,1.9356098175048828,3.9740653038024902,0.28743845224380493,-0.3899191915988922,-0.24559684097766876,2.409684658050537
72,31941,31938,-0.03722243383526802,0.12776926159858704,0.9881194829940796,4.9156694412231445,-5.92807149887085,-1.245495080947876,1.9352684020996094,3.9734134674072266,0.2884846329689026,-0.28376150131225586,-0.1530388593673706,2.400646686553955
73,31951,31948,-0.012486306019127369,0.160670205950737,0.9964886903762817,1.58535897731781,-2.224236488342285,-2.251343250274658,1.938714623451233,3.9731359481811523,0.2905368506908417,-0.5973170399665833,-0.09940812736749649,2.4016273021698
74,31961,31958,0.012332701124250889,0.11565901339054108,0.9901636838912964,-1.2738131284713745,-2.0168662071228027,-2.9417877197265625,1.9358985424041748,3.972923994064331,0.2917381823062897,-0.32135009765625,-0.10194412618875504,2.365499973297119
75,31971,31968,-0.011370792984962463,0.07017697393894196,0.9892886877059937,-3.2545759677886963,-2.697179079055786,-3.033053159713745,1.936716914176941,3.9741716384887695,0.2928948998451233,-0.36303359270095825,-0.15231552720069885,2.3346166610717773
76,31981,31978,-0.01541221048682928,0.06715875118970871,0.9487504959106445,-5.108591079711914,-1.4053432941436768,-3.4704277515411377,1.9407093524932861,3.9749815464019775,0.2953621745109558,-0.762447714805603,-0.2978837192058563,2.3003735542297363
77,31991,31988,-0.04492524266242981,0.18203260004520416,0.9410752654075623,-5.208843231201172,-1.716518521308899,-2.7468936443328857,1.9354205131530762,3.9761412143707275,0.2971091866493225,-0.17427194118499756,-0.38148170709609985,2.2513840198516846
78,32001,31998,-0.05278204008936882,0.12339576333761215,0.9309736490249634,-3.318864107131958,-2.8807485103607178,-2.6397767066955566,1.93516206741333,3.9765465259552,0.29826706647872925,-0.11695317924022675,-0.447662353515625,2.223395347595215
79,32011,32008,-0.0007442631758749485,0.09648561477661133,0.9233173727989197,0.45087364315986633,-1.730745792388916,-2.472212314605713,1.9374208450317383,3.9744973182678223,0.2995924949645996,-0.36002281308174133,-0.24401172995567322,2.232351064682007
80,32021,32018,0.01467858161777258,0.08881858736276627,0.9364585280418396,3.7751710414886475,0.14525724947452545,-2.135603666305542,1.9375431537628174,3.988135576248169,0.29749736189842224,-0.37173300981521606,-1.5693883895874023,2.055806875228882
81,32031,32028,-0.006158884149044752,0.0876070037484169,0.9628779292106628,7.398155689239502,-0.35289299488067627,-1.1236335039138794,1.9407293796539307,3.9852771759033203,0.2993766963481903,-0.6262238025665283,-1.1214009523391724,2.091304063796997
82,32041,32038,-0.06393013894557953,0.0492204912006855,1.0105210542678833,13.740671157836914,-5.609345436096191,-1.3770676851272583,1.9381003379821777,3.98420786857605,0.3007833659648895,-0.2954083979129791,-0.8671643733978271,2.0835771560668945
83,32051,32048,-0.05044284835457802,-0.025941280648112297,0.9954046010971069,20.124462127685547,-7.6638102531433105,-1.4779951572418213,1.940043330192566,3.9820144176483154,0.29849520325660706,-0.3803974688053131,-0.5024754405021667,2.0999207496643066
84,32061,32058,-0.08200173079967499,-0.04162251949310303,1.0145875215530396,21.656373977661133,-9.195418357849121,-1.647434115409851,1.936075210571289,3.9798412322998047,0.2994893789291382,0.17924314737319946,-0.012400560081005096,2.083807945251465
85,32071,32068,-0.005246256943792105,-0.011929242871701717,0.9611287117004395,19.097034454345703,-9.649005889892578,-2.169991970062256,1.9386078119277954,3.9616787433624268,0.29989945888519287,0.02755690924823284,2.017646551132202,2.229025363922119
86,32081,32078,-0.06269069761037827,0.06569322943687439,0.9863699674606323,6.03032112121582,-4.416531085968018,-2.630157470703125,1.9381792545318604,3.961210012435913,0.29943835735321045,0.17252375185489655,2.0354084968566895,2.191281318664551
87,32091,32088,-0.072933629155159,0.08318337053060532,0.9543434381484985,-18.32113265991211,0.8648778200149536,-2.761467456817627,1.9368889331817627,3.9609248638153076,0.3005397319793701,0.22702434659004211,1.8565998077392578,2.154279947280884
88,32101,32098,-0.06522241234779358,0.08457788079977036,0.9685320854187012,-42.821632385253906,5.788975238800049,-2.9487252235412598,1.9378784894943237,3.96174693107605,0.3019260764122009,0.11644894629716873,1.3314341306686401,2.107598066329956
89,32111,32108,0.002558915177360177,-0.08650343120098114,0.9821083545684814,-55.82342529296875,4.796980381011963,-3.2399826049804688,1.9382816553115845,3.9661779403686523,0.30276626348495483,0.03544280305504799,0.40799447894096375,2.0553321838378906
90,32121,32118,0.02714207023382187,-0.09925462305545807,0.9870077967643738,-58.44120407104492,4.944369792938232,-3.1862640380859375,1.9382766485214233,3.963273525238037,0.3032331168651581,-0.03013097494840622,-0.022702107205986977,2.024681806564331
91,32131,32128,0.025920817628502846,-0.1352887600660324,0.9837487936019897,-49.94379425048828,0.9024999141693115,-2.619717836380005,1.9387742280960083,3.9649555683135986,0.30391737818717957,-0.08468574285507202,-0.8298578262329102,1.985234260559082
92,32141,32138,0.013334243558347225,-0.11415672302246094,1.0253517627716064,-27.771678924560547,1.2838497161865234,-2.4467902183532715,1.9383409023284912,3.9649500846862793,0.30440789461135864,-0.08570200204849243,-1.3598142862319946,1.9574341773986816
93,32151,32148,-0.007763761095702648,0.11184805631637573,0.9782689213752747,-10.068514823913574,1.916182518005371,-2.3634321689605713,1.9384297132492065,3.9649274349212646,0.305740088224411,-0.08611597120761871,-1.4568846225738525,1.9367495775222778
94,32161,32158,-0.024223988875746727,0.1391497105360031,0.9741250276565552,12.848234176635742,-2.9687905311584473,-1.4706968069076538,1.9383273124694824,3.9640705585479736,0.3063547611236572,-0.04452507942914963,-1.4191972017288208,1.9232676029205322
95,32171,32168,0.00692528672516346,0.09784090518951416,0.9575409293174744,25.82611846923828,-6.251590728759766,-0.9882001876831055,1.9381107091903687,3.9624664783477783,0.30697184801101685,0.026844602078199387,-1.1594300270080566,1.9136408567428589
96,32181,32178,-0.0059958272613584995,-0.001577097224071622,0.9739630818367004,25.212312698364258,-5.306339263916016,-0.8035994172096252,1.9376986026763916,3.9650962352752686,0.30424967408180237,0.13740196824073792,-1.2418715953826904,1.9002816677093506
97,32191,32188,-0.0037294956855475903,-0.05414042994379997,0.9449834823608398,17.707569122314453,-5.495907306671143,-1.3377876281738281,1.9384795427322388,3.963247537612915,0.30466485023498535,0.07967892289161682,-0.882183849811554,1.8957935571670532
98,32201,32198,0.01451181061565876,-0.05592506378889084,0.9633103013038635,9.956303596496582,-3.0094919204711914,-1.6544220447540283,1.938798427581787,3.9632763862609863,0.3049314320087433,0.08390185981988907,-0.8326990604400635,1.8832552433013916
99,32211,32208,-0.08795849978923798,-0.08485542237758636,1.0146361589431763,-1.1364960670471191,-0.742017924785614,-2.15374755859375,1.9381293058395386,3.9643969535827637,0.3028101921081543,0.07124950736761093,-0.9244003295898438,1.8662974834442139
100,32221,32218,-0.012620260007679462,-0.02568097412586212,0.973101794719696,-6.882832050323486,-5.442310333251953,-2.2399959564208984,1.9387500286102295,3.965587854385376,0.30290868878364563,0.10304201394319534,-1.0046133995056152,1.8415570259094238
101,32231,32228,-0.06633304059505463,0.026051294058561325,0.9698660373687744,-12.166119575500488,-0.3368619978427887,-2.661811590194702,1.9385974407196045,3.9661827087402344,0.30296745896339417,0.17898216843605042,-1.1794326305389404,1.81511652469635
102,32241,32238,-0.04220590367913246,0.010013904422521591,1.004031777381897,-9.875483512878418,0.14122796058654785,-2.748622179031372,1.9387058019638062,3.966797351837158,0.3029954135417938,0.2013862580060959,-1.3736225366592407,1.7901759147644043
103,32251,32248,0.05321015045046806,-0.14584101736545563,0.9733911156654358,-1.0347195863723755,-1.076050043106079,-2.1953608989715576,1.9388089179992676,3.967062473297119,0.3015522062778473,0.2162167727947235,-1.464148998260498,1.7617666721343994
104,32261,32258,0.0038716155104339123,-0.0194889847189188,1.0394091606140137,9.28305435180664,1.4876551628112793,-1.1343246698379517,1.939550518989563,3.967191696166992,0.30149778723716736,0.16793791949748993,-1.4039857387542725,1.749469518661499
105,32271,32268,-0.022218888625502586,0.034174803644418716,1.0413689613342285,17.1995849609375,10.534943580627441,-1.0739924907684326,1.9398506879806519,3.9672346115112305,0.3013889491558075,0.09856138378381729,-1.322142243385315,1.7393115758895874
106,32281,32278,0.012966075912117958,-0.031779512763023376,1.0021487474441528,20.170909881591797,16.794843673706055,-1.1418246030807495,1.94086492061615,3.9676365852355957,0.3008508086204529,-0.10237127542495728,-1.1366181373596191,1.7327828407287598
107,32291,32288,-0.0006156560266390443,0.09731359034776688,1.0424484014511108,20.324443817138672,20.1899356842041,-1.1786587238311768,1.9418160915374756,3.9667563438415527,0.30079612135887146,-0.3910307288169861,-0.8362816572189331,1.729469895362854
108,32301,32298,0.006991134025156498,-0.02399277314543724,0.9858237504959106,17.360410690307617,20.088193893432617,-1.3328516483306885,1.9413425922393799,3.969066858291626,0.3007574677467346,-0.5454879999160767,-0.8749901056289673,1.7103116512298584
109,32311,32308,-0.033253032714128494,0.03919506072998047,1.0472502708435059,12.908355712890625,15.016092300415039,-1.4770187139511108,1.9401921033859253,3.9698734283447266,0.3018229007720947,-0.64830482006073,-0.7966529726982117,1.6863303184509277
110,32321,32318,0.006349312607198954,0.004318971186876297,1.0223302841186523,10.178357124328613,9.135893821716309,-1.5650160312652588,1.9396034479141235,3.971233367919922,0.3018873631954193,-0.6869406700134277,-0.7793519496917725,1.6582732200622559
111,32331,32328,0.01776846870779991,0.01567785255610943,0.9745263457298279,8.463516235351562,3.987849712371826,-1.7391492128372192,1.9388118982315063,3.970517158508301,0.3020128905773163,-0.7905424237251282,-0.5491189956665039,1.6466439962387085
112,32341,32338,0.009458435699343681,-0.019673191010951996,1.0078846216201782,9.493900299072266,0.5959170460700989,-1.4847891330718994,1.9390636682510376,3.971992254257202,0.30211499333381653,-0.8075711131095886,-0.5017808079719543,1.6272696256637573
113,32351,32348,0.02074730023741722,-0.14555728435516357,1.0430312156677246,10.975642204284668,-0.9096047282218933,-1.2674167156219482,1.9380013942718506,3.9724440574645996,0.3007347583770752,-0.8054627776145935,-0.43607500195503235,1.6105552911758423
114,32361,32358,0.020548982545733452,-0.12692219018936157,0.9833526611328125,12.4221830368042,-0.2072249799966812,-1.0298579931259155,1.9379332065582275,3.9736483097076416,0.3006688058376312,-0.8425707817077637,-0.48620009422302246,1.5954116582870483
115,32371,32368,-0.006216668523848057,0.018305577337741852,1.0434534549713135,14.634384155273438,1.439511775970459,-1.1179015636444092,1.9370585680007935,3.973841428756714,0.3008052706718445,-0.7371633052825928,-0.3336524963378906,1.576905369758606
116,32381,32378,0.022626439109444618,0.025145018473267555,0.9994749426841736,15.77672290802002,3.126613140106201,-0.8408273458480835,1.937355637550354,3.9748897552490234,0.3001852333545685,-0.8358316421508789,-0.2303124964237213,1.5690343379974365
117,32391,32388,-0.012208166532218456,-0.0627819299697876,1.0253697633743286,17.064346313476562,5.750523567199707,-0.8370664715766907,1.9371130466461182,3.973857879638672,0.30035004019737244,-0.8720764517784119,0.14116312563419342,1.5743781328201294
118,32401,32398,0.028844201937317848,0.004529298283159733,1.0039799213409424,15.022964477539062,8.74683666229248,-0.9190412759780884,1.9365813732147217,3.974897861480713,0.30035048723220825,-0.9638935327529907,0.2558573782444,1.562944769859314
119,32411,32408,0.03535741940140724,0.05998587608337402,1.0413435697555542,11.268508911132812,8.917550086975098,-1.0995696783065796,1.9361952543258667,3.9759268760681152,0.3015749752521515,-1.0137757062911987,0.3164979815483093,1.5460710525512695
120,32421,32418,0.019721144810318947,0.018438708037137985,1.0371949672698975,7.930542469024658,6.670772552490234,-1.984621286392212,1.9367934465408325,3.9759254455566406,0.30172449350357056,-1.1240265369415283,0.3968299925327301,1.531911015510559
121,32431,32428,-0.04073986038565636,0.08270703256130219,1.0386661291122437,5.293335914611816,3.3583266735076904,-1.619998812675476,1.9366674423217773,3.9763784408569336,0.30187833309173584,-1.1858185529708862,0.4408343434333801,1.509188175201416
122,32441,32438,0.024443289265036583,-0.03377139940857887,0.9849598407745361,4.36398983001709,1.9244720935821533,-1.9159297943115234,1.9359261989593506,3.9767355918884277,0.2995045781135559,-1.1889828443527222,0.4496460556983948,1.486565113067627
123,32451,32448,-0.025105157867074013,-0.007954861037433147,1.0321213006973267,6.434060096740723,-0.7528025507926941,-1.8283419609069824,1.93694007396698,3.9766955375671387,0.29958581924438477,-1.243118405342102,0.5370487570762634,1.4726334810256958
124,32461,32458,0.010044451802968979,-0.005160127300769091,1.028772234916687,8.214109420776367,-2.8278403282165527,-1.3315666913986206,1.9368491172790527,3.9769484996795654,0.29974180459976196,-1.1765936613082886,0.6610944271087646,1.463761568069458
125,32471,32468,-0.003191896015778184,-0.0961582139134407,1.022933840751648,10.209854125976562,-0.8489610552787781,-1.3094154596328735,1.937090277671814,3.9779937267303467,0.29980945587158203,-1.1412231922149658,0.7487683892250061,1.4478331804275513
126,32481,32478,-0.014242478646337986,-0.007392202503979206,1.0631333589553833,10.57975959777832,-1.0275555849075317,-1.3202221393585205,1.936943769454956,3.9783358573913574,0.3006543517112732,-1.085073709487915,0.8546090722084045,1.4351263046264648
127,32491,32488,0.047794364392757416,-0.004229556769132614,0.9566730260848999,8.40715217590332,1.6386802196502686,-1.112733244895935,1.9391937255859375,3.9792652130126953,0.30080997943878174,-1.292260766029358,0.9347010850906372,1.405997395515442
128,32501,32498,-0.01750986836850643,-0.011036034673452377,1.0264678001403809,6.735173225402832,2.169806718826294,-1.1498055458068848,1.939013957977295,3.979552984237671,0.3011036515235901,-1.2642799615859985,0.9821697473526001,1.394575595855713
129,32511,32508,0.08501840382814407,-0.014439924620091915,0.9652926325798035,3.3139054775238037,6.031409740447998,-1.408819556236267,1.9386601448059082,3.97835636138916,0.3015997111797333,-1.2212045192718506,1.1575536727905273,1.4089535474777222
130,32521,32518,0.04437651485204697,-0.03281588852405548,1.013014554977417,2.2790679931640625,-0.05725724995136261,-1.437853455543518,1.938767910003662,3.9811079502105713,0.30188316106796265,-1.2095528841018677,0.9554484486579895,1.3626728057861328
131,32531,32528,-0.07929704338312149,0.006276069674640894,1.0334608554840088,2.002955913543701,-3.1498677730560303,-0.9954385757446289,1.9378468990325928,3.980590343475342,0.3022677004337311,-1.111188530921936,1.07472562789917,1.373238444328308
132,32541,32538,0.005288234446197748,-0.06263488531112671,1.0017645359039307,2.7352211475372314,-3.710836887359619,-0.9530881643295288,1.9391491413116455,3.9802699089050293,0.30232521891593933,-1.1909292936325073,1.1812466382980347,1.3599512577056885
133,32551,32548,-0.005811660084873438,-0.023240290582180023,0.9995905756950378,1.9710794687271118,-5.4263224601745605,-0.424108624458313,1.9399482011795044,3.9795095920562744,0.30263039469718933,-1.1338422298431396,1.2828145027160645,1.3658758401870728
134,32561,32558,0.0229337140917778,-0.056809473782777786,1.0294146537780762,0.31276556849479675,-4.84989595413208,-0.747535228729248,1.9403208494186401,3.979830265045166,0.3029051125049591,-1.1404637098312378,1.272470474243164,1.3472509384155273
135,32571,32568,0.007613123394548893,-0.0743904635310173,1.018384337425232,-0.783623218536377,-2.997551441192627,-0.8480170369148254,1.9414538145065308,3.9806151390075684,0.30325573682785034,-1.077480435371399,1.240761160850525,1.33705472946167
136,32581,32578,0.02074679546058178,-0.04832218959927559,1.0028836727142334,-1.7491697072982788,-1.8737256526947021,-1.0842229127883911,1.9416334629058838,3.982076406478882,0.3031882643699646,-0.9674034118652344,1.2638124227523804,1.3500131368637085
137,32591,32588,-0.014096361584961414,0.02169777639210224,1.0279306173324585,-2.449312925338745,0.02848178707063198,-1.601956844329834,1.943326711654663,3.982004165649414,0.30339688062667847,-1.1134618520736694,1.125474452972412,1.2876861095428467
138,32601,32598,0.023098520934581757,-0.04620989039540291,0.9607945084571838,-2.825458288192749,-0.3000606298446655,-1.1068662405014038,1.9442365169525146,3.982262134552002,0.3038405776023865,-1.0469589233398438,1.1277520656585693,1.2929009199142456
139,32611,32608,0.012786532752215862,-0.0033797796349972486,1.0234553813934326,-0.6271744966506958,-2.3585917949676514,-0.9177858233451843,1.9460339546203613,3.9838056564331055,0.3064475655555725,-1.18308687210083,1.1418325901031494,1.2663897275924683
140,32621,32618,-0.009188110008835793,0.01578565314412117,1.0540658235549927,1.3308683633804321,-4.675043106079102,-0.8682388663291931,1.9465131759643555,3.9837965965270996,0.30695322155952454,-1.0997233390808105,1.1933668851852417,1.2724099159240723
141,32631,32628,-0.008305848576128483,-0.03162600100040436,0.9998666048049927,2.37367844581604,-8.07939624786377,-0.7371320128440857,1.9461714029312134,3.9841384887695312,0.30758512020111084,-0.9171783328056335,1.2546802759170532,1.296101689338684
142,32641,32638,-0.04247032850980759,0.10966943204402924,1.0003056526184082,0.23395095765590668,-7.6190009117126465,-0.7607095837593079,1.947798490524292,3.982710123062134,0.3082796633243561,-0.985589325428009,1.3143279552459717,1.259318470954895
143,32651,32648,0.007152209058403969,-0.011627908796072006,0.99281245470047,-1.9884077310562134,-7.683184623718262,-0.36638572812080383,1.947537899017334,3.9826760292053223,0.30897757411003113,-0.7627944946289062,1.3254371881484985,1.2850699424743652
144,32661,32658,0.004516027867794037,0.06406833231449127,0.9939208626747131,-4.99116325378418,-6.981614112854004,-0.6804333329200745,1.9475146532058716,3.9825079441070557,0.30955272912979126,-0.7216073870658875,1.2802733182907104,1.2711901664733887
145,32671,32668,0.012520821765065193,-0.03562426194548607,0.9389731287956238,-7.551485061645508,-4.771481037139893,-0.7751727104187012,1.9507521390914917,3.9827165603637695,0.3096379041671753,-0.8305953145027161,1.193403720855713,1.2227706909179688
146,32681,32678,0.0005088287289254367,-0.15995678305625916,0.9751491546630859,-8.281876564025879,-5.036218643188477,-0.3061535954475403,1.9506685733795166,3.9849984645843506,0.31028082966804504,-0.6471432447433472,1.0693211555480957,1.2432994842529297
147,32691,32688,-0.019986631348729134,0.014690125361084938,1.017161250114441,-7.147965431213379,-5.215685844421387,-0.5879713296890259,1.951254963874817,3.984555959701538,0.31075718998908997,-0.6288163065910339,1.0251346826553345,1.2353737354278564
148,32701,32698,0.0060988678596913815,-0.1392248570919037,0.9807194471359253,-5.906657695770264,-2.9764513969421387,-0.39639002084732056,1.9509649276733398,3.9848358631134033,0.31136035919189453,-0.4429492652416229,0.9354705810546875,1.2574660778045654
149,32711,32708,-0.02037048526108265,-0.041048094630241394,1.0067620277404785,-4.298718452453613,-3.5712578296661377,-0.43735671043395996,1.953688383102417,3.9858238697052,0.31142905354499817,-0.6101593375205994,0.8612035512924194,1.2073585987091064
150,32721,32718,0.052479300647974014,0.021476246416568756,0.9649612903594971,-3.654670000076294,-0.3680708408355713,-0.2630844712257385,1.955804705619812,3.984626293182373,0.31189513206481934,-0.6136997938156128,0.9634568095207214,1.2065969705581665
151,32731,32728,0.15801262855529785,0.09874227643013,0.9335798621177673,-2.903719663619995,-2.727524995803833,-0.7928444147109985,1.9565927982330322,3.9847166538238525,0.31230178475379944,-0.6339498162269592,0.9116503596305847,1.192133903503418
152,32741,32738,0.013847531750798225,0.01060535479336977,0.9801995754241943,-3.5837490558624268,-5.780897617340088,-1.4128587245941162,1.9567807912826538,3.9841861724853516,0.3088054955005646,-0.5268898606300354,0.8576282262802124,1.1805235147476196
153,32751,32748,-0.06233906373381615,-0.022620072588324547,0.9851019978523254,-5.3548903465271,-6.954169273376465,-1.106345295906067,1.958036184310913,3.9820973873138428,0.30891573429107666,-0.4027470052242279,0.852952778339386,1.1819431781768799
154,32761,32758,0.011343821883201599,-0.03485890477895737,0.963337242603302,-6.717585563659668,-9.257810592651367,-1.4458472728729248,1.959277629852295,3.981921672821045,0.30893248319625854,-0.40127256512641907,0.821851372718811,1.1543010473251343
155,32771,32768,-0.016467563807964325,0.024778639897704124,0.9837945103645325,-8.30636215209961,-8.81480598449707,-0.781619668006897,1.960204005241394,3.9824345111846924,0.3096578121185303,-0.2889005243778229,0.6836129426956177,1.1402575969696045
156,32781,32778,-0.050490569323301315,0.06829246878623962,0.9785963296890259,-9.121262550354004,-8.508094787597656,-0.31862324476242065,1.9609686136245728,3.980466842651367,0.3096820116043091,-0.2671957314014435,0.6767987012863159,1.1286287307739258
157,32791,32788,0.009982534684240818,-0.004238207824528217,0.9816399812698364,-7.905574798583984,-8.310159683227539,0.3249315321445465,1.959810733795166,3.980590343475342,0.3097659945487976,-0.09661020338535309,0.5155466794967651,1.1485791206359863
158,32801,32798,0.004763191100209951,-0.05607664957642555,1.0274288654327393,-6.6475510597229,-3.817707061767578,-0.12709514796733856,1.959791660308838,3.9825124740600586,0.3099517524242401,0.11680101603269577,0.37972816824913025,1.1715368032455444
159,32811,32808,0.01561986654996872,-0.07188394665718079,0.9732286930084229,-5.454493522644043,0.18913699686527252,-0.42237788438796997,1.9623010158538818,3.982358932495117,0.3110376298427582,-0.06227697432041168,0.4205811321735382,1.14764404296875
160,32821,32818,-0.002694103866815567,0.002818671055138111,1.019885778427124,-3.7214136123657227,2.8921890258789062,-0.2766515016555786,1.9623172283172607,3.9822709560394287,0.31120458245277405,0.014402591623365879,0.33049795031547546,1.1579654216766357
161,32831,32828,0.014866788871586323,0.022719789296388626,1.017269253730774,-2.6942005157470703,3.581261396408081,-0.3921884298324585,1.961621642112732,3.98129940032959,0.31142234802246094,0.04173336550593376,0.3351069688796997,1.1642541885375977
162,32841,32838,0.0011263943742960691,-0.02827296406030655,0.9914931058883667,-3.092489719390869,2.7333970069885254,-0.41910627484321594,1.9634138345718384,3.980825424194336,0.3092826008796692,-0.06831035017967224,0.347982794046402,1.1507384777069092
163,32851,32848,-0.005921055097132921,-0.04858127608895302,0.9697027802467346,-3.341780662536621,1.6008654832839966,0.14598312973976135,1.9641860723495483,3.9812803268432617,0.30935153365135193,-0.01677980273962021,0.2695640027523041,1.1590362787246704
164,32861,32858,0.0013349168002605438,0.006215672940015793,1.0044078826904297,-4.86313009262085,0.9646141529083252,0.23916107416152954,1.9639675617218018,3.9800994396209717,0.3093641698360443,-0.018404722213745117,0.18955084681510925,1.1566709280014038
165,32871,32868,0.03399338200688362,-0.12384453415870667,1.0146023035049438,-4.264745712280273,-0.5773295164108276,0.43048349022865295,1.965449333190918,3.9788646697998047,0.31018540263175964,-0.0815160796046257,0.2461061328649521,1.1531345844268799
166,32881,32878,-0.012370959855616093,-0.00878120493143797,1.033410906791687,-4.622259140014648,-1.188815951347351,0.048619918525218964,1.9664500951766968,3.978644609451294,0.3101787269115448,-0.11712553352117538,0.14925649762153625,1.1540930271148682
167,32891,32888,0.016946416348218918,-0.03130101040005684,1.019432544708252,-3.9740443229675293,-1.9882330894470215,-0.3091096580028534,1.9664535522460938,3.976468801498413,0.3102835714817047,-0.05144042894244194,0.20711854100227356,1.1523200273513794
168,32901,32898,-0.009862949140369892,0.09889402240514755,0.9829638004302979,-4.91274881362915,-1.6485551595687866,0.1338663548231125,1.9681774377822876,3.976746082305908,0.31035521626472473,-0.08186931908130646,0.10328318923711777,1.14821195602417
169,32911,32908,-0.006433757022023201,0.03637674078345299,1.0292335748672485,-4.448263645172119,-2.2158448696136475,-0.04755835607647896,1.9682544469833374,3.9772379398345947,0.3100164532661438,-0.015321717597544193,0.0023646072950214148,1.1540037393569946
170,32921,32918,0.006648826412856579,-0.04079535976052284,0.9813923239707947,-5.422450542449951,-3.8610622882843018,0.15735869109630585,1.9703876972198486,3.977492570877075,0.30999627709388733,-0.09714698791503906,-0.09284685552120209,1.150129795074463
171,32931,32928,-0.09449680894613266,-0.14056655764579773,1.1061041355133057,-3.245182752609253,-7.0188822746276855,-0.2687939405441284,1.9702918529510498,3.976433038711548,0.31021058559417725,0.01133321039378643,-0.03800059109926224,1.1471210718154907
172,32941,32938,-0.06819961965084076,-0.19077743589878082,1.0611529350280762,-1.8122508525848389,-1.3925124406814575,-0.19396597146987915,1.9701370000839233,3.9765822887420654,0.3106858432292938,0.2009613960981369,-0.10588416457176208,1.1508710384368896
173,32951,32948,-0.029917752370238304,-0.03735581040382385,1.0416017770767212,-0.5005727410316467,-0.5147020816802979,-0.4466457962989807,1.9714066982269287,3.9767067432403564,0.31088170409202576,0.06298655271530151,-0.14191393554210663,1.1471959352493286
174,32961,32958,0.06692813336849213,0.0026206523180007935,0.9570935368537903,-0.7050737738609314,2.360565662384033,-0.15481051802635193,1.9720364809036255,3.9763176441192627,0.3112764060497284,0.15360860526561737,-0.09069912135601044,1.1422098875045776
175,32971,32968,0.005383986048400402,-0.011951306834816933,0.9970346689224243,-1.47588312625885,3.060218095779419,0.15202872455120087,1.972986102104187,3.976473569869995,0.31207481026649475,0.12759065628051758,-0.1311797946691513,1.1431559324264526
176,32981,32978,-0.0542905293405056,-0.031800128519535065,1.0257110595703125,-3.329282522201538,4.4792633056640625,0.043571799993515015,1.9732240438461304,3.9761931896209717,0.3123844563961029,0.08589918911457062,-0.18431980907917023,1.1465569734573364
177,32991,32988,-0.034165434539318085,-0.07465428858995438,1.0277681350708008,-3.599238157272339,3.006474018096924,0.03174494579434395,1.9743915796279907,3.975698471069336,0.3126809895038605,0.029133306816220284,-0.18478640913963318,1.1455434560775757
178,33001,32998,-0.03748033940792084,-0.04369260370731354,1.0141637325286865,-3.5078728199005127,0.38489118218421936,-0.025697538629174232,1.9743119478225708,3.973639726638794,0.31471967697143555,0.09998244047164917,-0.10744483768939972,1.1327375173568726
179,33011,33008,-0.016411175951361656,-0.04514181986451149,0.9930429458618164,-2.705315113067627,-1.1112619638442993,-0.07658181339502335,1.9752627611160278,3.9738497734069824,0.3152020573616028,0.10441336035728455,-0.1912347376346588,1.1368895769119263
180,33021,33018,-0.03742489218711853,0.09652749449014664,1.006287693977356,-4.319309711456299,-0.6943897604942322,-0.11205711215734482,1.9764877557754517,3.9741811752319336,0.3156597316265106,0.061299704015254974,-0.27871859073638916,1.1429345607757568
181,33031,33028,-0.014909063465893269,0.16933058202266693,1.01078200340271,-3.8538732528686523,-0.2865981459617615,0.12296020239591599,1.976067304611206,3.974370241165161,0.3162284791469574,0.15789076685905457,-0.3679523169994354,1.1444857120513916
182,33041,33038,-0.005301691126078367,0.12013810127973557,1.0204881429672241,-1.6598881483078003,0.5365580320358276,-0.3351764380931854,1.9788298606872559,3.974322557449341,0.3152792155742645,-0.07043879479169846,-0.4277787208557129,1.155059814453125
183,33051,33048,0.00013272823707666248,0.02495693974196911,0.9920887351036072,0.6901777386665344,0.012196294963359833,-0.3979048430919647,1.978692889213562,3.9739222526550293,0.31579601764678955,0.02183077484369278,-0.4444791376590729,1.1482731103897095
184,33061,33058,-0.01525198295712471,-0.08135011047124863,0.9570935368537903,2.5410077571868896,-0.36174771189689636,-0.554072916507721,1.9787747859954834,3.973433017730713,0.316321462392807,0.12813825905323029,-0.42402517795562744,1.1431788206100464
185,33071,33068,-0.05564376711845398,-0.04617948457598686,0.9685238599777222,3.5337095260620117,-0.558941125869751,-0.5548723936080933,1.9803838729858398,3.973701238632202,0.31818506121635437,0.06854532659053802,-0.37502098083496094,1.138859510421753
186,33081,33078,-0.04867690056562424,0.012992511503398418,0.9556687474250793,3.8946688175201416,-0.6178993582725525,-0.605681836605072,1.9810574054718018,3.9735071659088135,0.3186642825603485,0.08537308126688004,-0.3240707218647003,1.130821704864502
187,33091,33088,-0.029305415228009224,0.023017985746264458,0.9556151032447815,2.352202892303467,1.0947529077529907,-0.37031152844429016,1.9814355373382568,3.972111225128174,0.3191806972026825,0.16057762503623962,-0.2075411081314087,1.1144332885742188
188,33101,33098,0.02061764895915985,-0.049142416566610336,0.9488755464553833,0.19451846182346344,0.883798360824585,-0.38053059577941895,1.9824254512786865,3.972522735595703,0.32206210494041443,0.13967576622962952,-0.2007211446762085,1.1133463382720947
189,33111,33108,0.040640443563461304,-0.13929247856140137,0.9900168180465698,-1.8166017532348633,3.0174877643585205,-1.239644169807434,1.984118103981018,3.973259449005127,0.3225930333137512,0.06120414659380913,-0.29099372029304504,1.1258528232574463
190,33121,33118,0.00431687431409955,-0.02970755472779274,0.976017415523529,-3.708005905151367,3.0460689067840576,-1.1987816095352173,1.9845902919769287,3.9730679988861084,0.3231159448623657,-0.010060031898319721,-0.35393089056015015,1.1070382595062256
191,33131,33128,0.03320672735571861,-0.061360299587249756,0.9625577330589294,-1.9451369047164917,3.148668050765991,-1.9008605480194092,1.985015630722046,3.9723072052001953,0.32359614968299866,-0.05618251860141754,-0.32914838194847107,1.0878499746322632
192,33141,33138,0.051178157329559326,-0.035834334790706635,0.9541202187538147,-0.7958502173423767,3.126147508621216,-1.949623942375183,1.9863091707229614,3.9725849628448486,0.32486435770988464,-0.10668998956680298,-0.36294251680374146,1.0677549839019775
193,33151,33148,0.05213388055562973,0.012445527128875256,0.9300118088722229,0.6525071263313293,1.54179847240448,-1.7175238132476807,1.9870249032974243,3.972493886947632,0.32529494166374207,-0.1272115856409073,-0.37280964851379395,1.0700352191925049
194,33161,33158,0.08192828297615051,-0.007840941660106182,0.8870866894721985,1.2713496685028076,0.8558970093727112,-1.4765418767929077,1.9880191087722778,3.9712390899658203,0.32568591833114624,-0.17426550388336182,-0.29776865243911743,1.046566367149353
195,33171,33168,0.01014478038996458,-0.005083328112959862,0.9432259798049927,1.4380755424499512,0.218950554728508,-1.8248133659362793,1.9898704290390015,3.9708917140960693,0.32489538192749023,-0.2533930540084839,-0.2887217402458191,1.0340576171875
196,33181,33178,0.029744770377874374,-0.012331227771937847,0.9230204224586487,1.7733359336853027,-3.190110683441162,-1.571750283241272,1.989931344985962,3.9705238342285156,0.32520461082458496,-0.1279616504907608,-0.26747187972068787,1.014422059059143
197,33191,33188,-0.0017668271902948618,-0.03525328263640404,0.9490758180618286,2.229053497314453,-4.662846565246582,-1.3974056243896484,1.9911689758300781,3.97082257270813,0.32528841495513916,-0.1319471150636673,-0.24433207511901855,0.9988399744033813
198,33201,33198,-0.08020053803920746,0.020129909738898277,1.0118929147720337,1.0017988681793213,-6.05795431137085,-1.417563796043396,1.9922494888305664,3.9720311164855957,0.3221725523471832,-0.11455801874399185,-0.2984778881072998,0.9973187446594238
199,33211,33208,-0.051047518849372864,0.030019916594028473,1.0000163316726685,-0.3717004656791687,-3.434412956237793,-1.5168213844299316,1.9927136898040771,3.9719908237457275,0.32201969623565674,0.005377282854169607,-0.27860069274902344,0.9775837659835815
200,33221,33218,0.029176155105233192,0.006373205222189426,0.9604072570800781,-0.5965698957443237,-1.157705307006836,-1.1937450170516968,1.9931159019470215,3.97171688079834,0.3218413293361664,0.07941944897174835,-0.2841458022594452,0.9613710641860962
201,33231,33228,-0.02354341745376587,0.05128219723701477,0.9972377419471741,-1.0669745206832886,1.3004175424575806,-1.4692432880401611,1.994221568107605,3.9709956645965576,0.321608304977417,0.04756862297654152,-0.215018630027771,0.9545270800590515
202,33241,33238,-0.0636080726981163,0.13251380622386932,1.0062257051467896,-0.5963554978370667,3.0893568992614746,-1.1905784606933594,1.9944052696228027,3.970808267593384,0.3205236792564392,0.14378505945205688,-0.23434865474700928,0.9339722990989685
203,33251,33248,-0.018506677821278572,0.17880107462406158,0.9842827320098877,-0.36799103021621704,5.190266132354736,-1.0011887550354004,1.9966989755630493,3.971062421798706,0.3201616704463959,-0.09742465615272522,-0.2575780153274536,0.932766854763031
204,33261,33258,0.0043554832227528095,0.05305544659495354,0.9914072155952454,0.437522292137146,5.130616188049316,-1.2989563941955566,1.9970810413360596,3.971043348312378,0.3199319839477539,-0.03175091743469238,-0.26174262166023254,0.9282258749008179
205,33271,33268,0.03074236959218979,0.05666082352399826,0.9842674732208252,1.0484589338302612,3.732607364654541,-1.6115883588790894,1.9984967708587646,3.970259428024292,0.3225487172603607,-0.10629615187644958,-0.2608852982521057,0.9135494828224182
206,33281,33278,0.006751383654773235,-0.0012206962564960122,0.991917610168457,1.6672502756118774,0.07920210808515549,-1.4794974327087402,1.9987252950668335,3.969425916671753,0.3224831223487854,-0.07243579626083374,-0.17129063606262207,0.8965028524398804
207,33291,33288,0.007966323755681515,-0.08890048414468765,0.9545029401779175,1.7673625946044922,-3.143930673599243,-1.6067249774932861,2.0008699893951416,3.9698994159698486,0.32224753499031067,-0.22583486139774323,-0.15737533569335938,0.8912103176116943
208,33301,33298,-0.02703045681118965,-0.13025562465190887,0.9558773636817932,1.0859568119049072,-4.420340061187744,-1.387049674987793,2.0009055137634277,3.9693169593811035,0.32110050320625305,-0.14389877021312714,-0.13748446106910706,0.867876410484314
209,33311,33308,0.00819625798612833,-0.018346846103668213,0.9921420812606812,-0.8587771654129028,-4.904183864593506,-0.9078468680381775,2.0010507106781006,3.9692347049713135,0.3209546208381653,0.03288194537162781,-0.1286083608865738,0.8441619873046875
210,33321,33318,0.0020992399659007788,-0.020083650946617126,0.9986448287963867,-2.1266696453094482,-4.352671146392822,-1.3340781927108765,2.003812789916992,3.9695045948028564,0.3205671012401581,-0.11066346615552902,-0.1477356106042862,0.849172055721283
211,33331,33328,0.0018824905855581164,-0.031018700450658798,0.9986024498939514,-2.938218593597412,-2.0781519412994385,-1.659266710281372,2.003952741622925,3.969644784927368,0.3204229474067688,0.06914554536342621,-0.19129621982574463,0.8297612071037292
212,33341,33338,0.01723436266183853,-0.06687279790639877,1.0414425134658813,-2.914905548095703,-1.097244143486023,-2.1385459899902344,2.005319595336914,3.9690732955932617,0.3168908953666687,0.048742279410362244,-0.16762442886829376,0.8087649345397949
213,33351,33348,0.03526385873556137,-0.08936077356338501,0.9933280944824219,-1.1692287921905518,1.7211660146713257,-1.8436812162399292,2.0052685737609863,3.9690985679626465,0.3165188431739807,0.16658397018909454,-0.2268771529197693,0.7855901122093201
214,33361,33358,-0.022626738995313644,0.10223481059074402,1.015061855316162,-0.8779517412185669,3.630445718765259,-1.5665409564971924,2.006770610809326,3.969162702560425,0.31609514355659485,0.13742680847644806,-0.25828564167022705,0.7779169082641602
215,33371,33368,0.017241759225726128,-0.01083369366824627,0.9777763485908508,-0.2165364772081375,4.390578269958496,-1.9629535675048828,2.0077202320098877,3.9701898097991943,0.31295135617256165,0.08323731273412704,-0.2776665985584259,0.7675930261611938
216,33381,33378,-0.020896799862384796,-0.0038370059337466955,1.0427383184432983,0.9243683815002441,4.478240966796875,-2.5619006156921387,2.0091025829315186,3.969794988632202,0.3123825788497925,0.028605980798602104,-0.2809690833091736,0.7485361695289612
217,33391,33388,0.0036712726578116417,-0.059827204793691635,1.0389907360076904,2.095353603363037,4.25293493270874,-2.266129493713379,2.009641170501709,3.969280481338501,0.3119007647037506,0.05877102538943291,-0.26927149295806885,0.7144760489463806
218,33401,33398,-0.02174961380660534,-0.11073070764541626,1.0603041648864746,2.785205602645874,3.4109606742858887,-2.391118049621582,2.0109972953796387,3.968925714492798,0.31017616391181946,-0.05029181018471718,-0.2377239465713501,0.6908302307128906
219,33411,33408,0.009313791058957577,-0.03542513772845268,1.0437262058258057,2.7033560276031494,3.796632766723633,-2.5928287506103516,2.012415647506714,3.9680089950561523,0.30963391065597534,-0.07882507890462875,-0.11761414259672165,0.6615852117538452
220,33421,33418,0.006517880596220493,-0.018138715997338295,1.0040178298950195,1.5924562215805054,3.304704427719116,-1.980241060256958,2.0127506256103516,3.9691805839538574,0.3092276155948639,-0.04763595759868622,-0.08800573647022247,0.6546476483345032
221,33431,33428,-0.05749461427330971,-0.001924920710735023,1.1106430292129517,-0.12358956784009933,1.7706576585769653,-1.922232985496521,2.0135414600372314,3.969115734100342,0.31053224205970764,-0.014133388176560402,-0.07554303854703903,0.6411550045013428
222,33441,33438,-0.005680403206497431,-0.014789982698857784,1.0507831573486328,-1.3401023149490356,0.5766752362251282,-1.9696837663650513,2.0164153575897217,3.971726655960083,0.3101789355278015,-0.2277580052614212,-0.24932710826396942,0.6377208828926086
223,33451,33448,-0.02382563054561615,0.037359438836574554,1.0857630968093872,-2.038539171218872,-0.827275812625885,-1.9538196325302124,2.015897750854492,3.97082781791687,0.3100565969944,-0.14942607283592224,-0.26848503947257996,0.6053852438926697
224,33461,33458,0.06135845184326172,-0.00357307237572968,0.9963366985321045,-0.40911027789115906,-1.7760673761367798,-1.5384385585784912,2.0171446800231934,3.970862865447998,0.30985167622566223,-0.2037791758775711,-0.29116153717041016,0.5860710740089417
225,33471,33468,0.07285497337579727,0.0537218414247036,1.0204278230667114,1.1997989416122437,-0.37977302074432373,-1.3325129747390747,2.0183629989624023,3.9706242084503174,0.31042909622192383,-0.2336120903491974,-0.2860099673271179,0.563528835773468
226,33481,33478,0.08704797178506851,0.03204801678657532,1.0193275213241577,4.023379325866699,-2.891005039215088,-0.822710394859314,2.0183866024017334,3.969719171524048,0.31045207381248474,-0.20171476900577545,-0.2574247419834137,0.5491874814033508
227,33491,33488,0.05121771991252899,0.04079681262373924,1.0397030115127563,4.629312992095947,-3.1719679832458496,-0.6504331827163696,2.0189688205718994,3.969480037689209,0.31053122878074646,-0.09747537225484848,-0.19477544724941254,0.5190927982330322
228,33501,33498,-0.008845041505992413,-0.021819882094860077,1.0400454998016357,4.247349262237549,-3.6958742141723633,-0.5201135873794556,2.020742654800415,3.969407320022583,0.310685932636261,-0.19728383421897888,-0.11938425898551941,0.5403734445571899
229,33511,33508,0.028336167335510254,-0.034495916217565536,1.0305155515670776,2.8974063396453857,-2.8247222900390625,-0.6125868558883667,2.020277738571167,3.9705779552459717,0.31086161732673645,-0.02280806191265583,-0.051970358937978745,0.5584428906440735
230,33521,33518,-0.003967234864830971,-0.037204544991254807,1.0358455181121826,1.0788600444793701,-0.556065559387207,-0.7613742351531982,2.0230555534362793,3.9705185890197754,0.3108069598674774,-0.18959149718284607,-0.006069589406251907,0.562519907951355
231,33531,33528,0.01803748868405819,-0.020606763660907745,1.011374592781067,-1.0688365697860718,0.7563737034797668,-0.9823717474937439,2.0226476192474365,3.971862316131592,0.3090418875217438,-0.07226196676492691,0.009204881265759468,0.5816198587417603
232,33541,33538,-0.05400073155760765,0.06720231473445892,1.0410836935043335,-2.1102051734924316,0.3539346158504486,-0.9692376255989075,2.0229647159576416,3.972430467605591,0.3091617822647095,0.013336320407688618,-0.0865742638707161,0.5990930795669556
233,33551,33548,-0.017513863742351532,0.07974227517843246,0.9681529998779297,-1.96135675907135,3.494966745376587,-1.81049382686615,2.0241410732269287,3.9760937690734863,0.30915528535842896,-0.15396429598331451,-0.19213896989822388,0.6168229579925537
234,33561,33558,-0.025611283257603645,0.06387785077095032,1.0064008235931396,-1.8975774049758911,-0.18183661997318268,-1.3802419900894165,2.0243213176727295,3.976228952407837,0.30930572748184204,-0.0888645201921463,-0.21381589770317078,0.5992590188980103
235,33571,33568,0.02312706969678402,0.021221786737442017,0.9654859900474548,1.6796793937683105,-2.62802791595459,-0.994247555732727,2.0252761840820312,3.9765331745147705,0.30750903487205505,-0.0961935967206955,-0.2238074392080307,0.5840126872062683
236,33581,33578,-0.006961183622479439,0.010437386110424995,1.00236976146698,5.369116306304932,-1.16549813747406,-0.6195406913757324,2.025879383087158,3.976041793823242,0.30744653940200806,-0.08080056309700012,-0.18287293612957,0.5723496079444885
237,33591,33588,0.013499089516699314,-0.08426248282194138,1.0226551294326782,6.136836528778076,-0.337235689163208,-0.6090542078018188,2.027613401412964,3.9757466316223145,0.30727964639663696,-0.17298926413059235,-0.08062413334846497,0.5951288938522339
238,33601,33598,0.01044908631592989,-0.03792497515678406,1.0210537910461426,6.536742210388184,0.7375569939613342,-0.5500345826148987,2.028332471847534,3.9771580696105957,0.3080788254737854,-0.20362530648708344,-0.1143132820725441,0.5849593281745911
239,33611,33608,0.004864645190536976,-0.037621427327394485,0.9953303337097168,5.521350860595703,0.8652436137199402,-0.5044959187507629,2.0290603637695312,3.9765801429748535,0.3082057535648346,-0.11153548955917358,0.015555054880678654,0.5721963047981262
240,33621,33618,0.008023635484278202,-0.021771028637886047,1.0129115581512451,4.490572452545166,2.117656707763672,-0.4888739287853241,2.0298993587493896,3.975771427154541,0.3081819415092468,-0.16204844415187836,0.1261969804763794,0.5644578337669373
241,33631,33628,0.046801138669252396,0.0072210123762488365,0.9739369750022888,2.6903934478759766,0.2217206209897995,-0.18837419152259827,2.0311715602874756,3.978045701980591,0.30918771028518677,-0.16954994201660156,0.05377432703971863,0.5844067335128784
242,33641,33638,0.03751193359494209,0.04920230433344841,1.002978801727295,0.36181968450546265,-1.045091152191162,-0.566902220249176,2.0321292877197266,3.9778895378112793,0.30925339460372925,-0.18277806043624878,0.10204984992742538,0.5674520134925842
243,33651,33648,0.04172149673104286,0.009981012903153896,1.0069034099578857,-1.174793004989624,-2.8209588527679443,-0.29220619797706604,2.032832384109497,3.97943377494812,0.30945920944213867,-0.0938439890742302,0.1114618182182312,0.5979099869728088
244,33661,33658,-0.061486776918172836,-0.02902672067284584,1.0433591604232788,-0.84590744972229,-4.514114856719971,-0.07917232811450958,2.0351650714874268,3.979513645172119,0.31097179651260376,-0.18806658685207367,0.10981450229883194,0.5899196863174438
245,33671,33668,-0.10145249217748642,-0.004371083341538906,1.0302766561508179,-0.1955992877483368,-6.1185221672058105,0.36597394943237305,2.0346903800964355,3.9792227745056152,0.31126564741134644,-0.06976790726184845,0.11658971011638641,0.5935850143432617
246,33681,33678,-0.0037545920349657536,-0.004560108296573162,1.0128228664398193,0.6315966248512268,-4.969346046447754,0.3528690040111542,2.0353612899780273,3.9792213439941406,0.31154531240463257,0.045539360493421555,0.12846753001213074,0.5956354737281799
247,33691,33688,-0.016049260273575783,-0.016749165952205658,1.0139164924621582,0.5914962887763977,-2.0382344722747803,0.5816211104393005,2.037327766418457,3.9790232181549072,0.31170934438705444,-0.01647835038602352,0.1467714160680771,0.5910043120384216
248,33701,33698,0.057579271495342255,-0.06671764701604843,1.0071160793304443,0.30200761556625366,0.13326655328273773,0.6095640063285828,2.0370805263519287,3.9807140827178955,0.31146007776260376,0.042841728776693344,0.09197968989610672,0.6448125243186951
249,33711,33708,-0.010583233088254929,-0.004959407262504101,1.0234556198120117,1.5868644714355469,2.3805673122406006,0.18999695777893066,2.038515567779541,3.9810025691986084,0.3116596043109894,-0.018849141895771027,0.11575835943222046,0.6502170562744141
250,33721,33718,-0.010740118101239204,0.015441082417964935,0.9854299426078796,1.9916083812713623,2.755892276763916,-0.04836094006896019,2.040168285369873,3.981713056564331,0.31185463070869446,-0.10810928046703339,0.14847812056541443,0.6678839325904846
251,33731,33728,-0.03261472284793854,0.03686606138944626,1.025260329246521,2.9409024715423584,0.9483150839805603,-0.102366603910923,2.040374755859375,3.9815685749053955,0.31251242756843567,-0.0370134562253952,0.1931486576795578,0.6686297059059143
252,33741,33738,0.0047164238058030605,-0.01203223131597042,0.948104739189148,2.728048324584961,-0.6764097213745117,0.02516488917171955,2.0412983894348145,3.9814720153808594,0.31280025839805603,-0.03530367463827133,0.24350255727767944,0.6517056226730347
253,33751,33748,-0.014741196297109127,0.03895645588636398,0.9975034594535828,1.973449468612671,-2.078352928161621,0.33102235198020935,2.041274309158325,3.9802331924438477,0.3131861984729767,0.05923224613070488,0.28745970129966736,0.651427149772644
254,33761,33758,0.012475285679101944,-0.018998613581061363,0.9768060445785522,-0.17330515384674072,-2.72724986076355,-0.20202431082725525,2.04191517829895,3.9812023639678955,0.31332463026046753,0.1118704304099083,0.2341226190328598,0.6555671691894531
255,33771,33768,-0.05431365966796875,-0.006885115057229996,1.0506259202957153,-1.0614651441574097,-1.629004955291748,0.10735428333282471,2.044617176055908,3.9812638759613037,0.3134501278400421,-0.049048878252506256,0.2398824244737625,0.6485195755958557
256,33781,33778,-0.013703991658985615,-0.01850089244544506,0.9959147572517395,-2.184744358062744,0.8325620293617249,-0.33034372329711914,2.044891595840454,3.980396032333374,0.3138062357902527,0.07294727116823196,0.30084213614463806,0.6423884034156799
257,33791,33788,-0.00031151252915151417,0.003721144050359726,1.000853419303894,-2.3869259357452393,1.8969603776931763,-0.013225367292761803,2.046375036239624,3.9807868003845215,0.31402286887168884,-0.00153962685726583,0.262637197971344,0.6444405317306519
258,33801,33798,0.05419448763132095,-0.08732157945632935,0.9568923711776733,-1.999525785446167,2.125767707824707,0.18878786265850067,2.048888683319092,3.979707717895508,0.31422391533851624,-0.10138197243213654,0.21966961026191711,0.6201391220092773
259,33811,33808,0.04481332004070282,0.05474371463060379,0.9561804533004761,-1.3751890659332275,0.29559895396232605,0.2302819788455963,2.049072742462158,3.9798216819763184,0.3145972788333893,-0.03045857697725296,0.18429404497146606,0.616468608379364
260,33821,33818,0.00252252584323287,-0.1267259567975998,0.9836637377738953,-0.29493534564971924,-1.548723578453064,0.37811315059661865,2.0492348670959473,3.979745864868164,0.3149449825286865,0.06429795175790787,0.16449132561683655,0.6226385235786438
261,33831,33828,0.029088323935866356,-0.17034338414669037,0.9595645070075989,0.8043116927146912,-2.3781344890594482,0.4075179696083069,2.0515315532684326,3.9795985221862793,0.31820932030677795,-0.05443703755736351,0.16251730918884277,0.6207926273345947
262,33841,33838,-0.01431054063141346,-0.03277850151062012,1.0112224817276,1.3612767457962036,-2.099586009979248,0.39730679988861084,2.051408529281616,3.9792160987854004,0.31865522265434265,0.08361726999282837,0.17653708159923553,0.6216404438018799
263,33851,33848,-0.016966890543699265,-0.14990946650505066,0.9900996685028076,1.1856414079666138,-1.5471510887145996,0.2639141380786896,2.0520646572113037,3.979581117630005,0.3190247416496277,0.14073921740055084,0.12800635397434235,0.614432156085968
264,33861,33858,-0.03737441450357437,-0.16279204189777374,0.9816552996635437,1.1119006872177124,-0.47218605875968933,0.2652302086353302,2.0539557933807373,3.9781887531280518,0.32195553183555603,0.03869128227233887,0.23150591552257538,0.6016033291816711
265,33871,33868,-0.018664240837097168,-0.09494159370660782,0.9705585837364197,-0.76102614402771,0.6883902549743652,-0.25407877564430237,2.0540621280670166,3.978059768676758,0.3225227892398834,0.14777043461799622,0.23507113754749298,0.6060446500778198
266,33881,33878,1.6644717106828466e-05,-0.020489366725087166,0.9809589982032776,-0.9276658892631531,0.9840497374534607,-0.34083497524261475,2.055539131164551,3.9779791831970215,0.3229371905326843,0.07377002388238907,0.2205384373664856,0.6012866497039795
267,33891,33888,0.0530107282102108,-0.024355130270123482,0.9825441837310791,-2.3136420249938965,1.526140809059143,-0.34196195006370544,2.05617094039917,3.9765989780426025,0.32338446378707886,0.0622049905359745,0.3420459032058716,0.595706045627594
268,33901,33898,0.014972563832998276,0.026856105774641037,0.9819682240486145,-3.6053225994110107,0.8716629147529602,-0.4671737253665924,2.056117534637451,3.9767708778381348,0.320162832736969,0.12507039308547974,0.28511595726013184,0.586767315864563
269,33911,33908,-0.00021254882449284196,0.0382029227912426,0.9747509360313416,-6.69265604019165,-0.445698082447052,-0.2321159541606903,2.058288097381592,3.97686505317688,0.32025834918022156,-0.024379827082157135,0.19729338586330414,0.5774105787277222
270,33921,33918,0.03914409130811691,0.004899847321212292,0.9728474617004395,-6.724352836608887,-0.7244371175765991,-0.14777922630310059,2.0591394901275635,3.979599952697754,0.3206019699573517,0.07789239287376404,0.08010057359933853,0.6324978470802307
271,33931,33928,0.015832357108592987,-0.006650169380009174,0.9724421501159668,-5.466431140899658,-1.3036158084869385,-0.9218160510063171,2.059882640838623,3.979212999343872,0.320221871137619,0.09996756166219711,0.041992370039224625,0.6225807070732117
272,33941,33938,-0.02365967258810997,0.02397848851978779,1.0013126134872437,-3.6917805671691895,-0.8992581963539124,-0.8683142066001892,2.0621204376220703,3.9792561531066895,0.32023540139198303,-0.02270328998565674,-0.04838891699910164,0.6101996898651123
273,33951,33948,0.005381351336836815,0.10705098509788513,0.9394016265869141,0.020265333354473114,0.5912153124809265,-0.9336767196655273,2.0617575645446777,3.9791171550750732,0.32050496339797974,0.14612624049186707,-0.10232298076152802,0.5989243388175964
274,33961,33958,0.013024723157286644,0.13991956412792206,0.9212252497673035,1.3552722930908203,0.744499146938324,-0.8668270707130432,2.062797784805298,3.9790761470794678,0.31931501626968384,0.11605405807495117,-0.11094352602958679,0.5859545469284058
275,33971,33968,-0.007965688593685627,0.022902175784111023,0.9761650562286377,2.5948374271392822,1.8152920007705688,-0.6360049843788147,2.06516695022583,3.977849245071411,0.31914249062538147,-0.12487529963254929,-9.839896665653214e-05,0.5595998764038086
276,33981,33978,-0.025911705568432808,0.03651401028037071,0.9829016327857971,3.199239492416382,2.63559889793396,-0.8388979434967041,2.0654220581054688,3.9772281646728516,0.3191331923007965,-0.052894365042448044,0.0387326218187809,0.5554054975509644
277,33991,33988,-0.005382047034800053,-0.01607530750334263,0.978232741355896,2.311628818511963,0.5240954756736755,-0.8286254405975342,2.065577268600464,3.9774210453033447,0.31910067796707153,0.008350083604454994,0.07604830712080002,0.559259295463562
278,34001,33998,-0.05169469118118286,-0.038302041590213776,0.9993445873260498,-0.1601472795009613,1.0665152072906494,-0.9471358060836792,2.066444158554077,3.977146625518799,0.31784406304359436,0.024583909660577774,0.09195291250944138,0.5447400808334351
279,34011,34008,0.006435750052332878,-0.025991465896368027,0.969942033290863,-2.9188218116760254,0.538875162601471,-1.1510581970214844,2.0672502517700195,3.977295398712158,0.3176268935203552,0.032457225024700165,0.06083250790834427,0.536308228969574
280,34021,34018,-0.05642887204885483,0.01248567458242178,1.0019643306732178,-4.959386825561523,0.5081382989883423,-0.9243769645690918,2.0687766075134277,3.9775593280792236,0.317352831363678,-0.0011424156837165356,-0.0016016268637031317,0.535258412361145
281,34031,34028,-0.04323265329003334,-0.01675361394882202,0.9923775792121887,-5.6134934425354,0.894969642162323,-1.048216462135315,2.068782091140747,3.978198528289795,0.3188232481479645,0.0784204825758934,-0.09319990873336792,0.5286841988563538
282,34041,34038,0.03253659978508949,0.027491778135299683,0.9761874675750732,-5.10450553894043,3.0983848571777344,-1.1107407808303833,2.0684092044830322,3.9789881706237793,0.31875544786453247,0.1562943011522293,-0.18455250561237335,0.538566529750824
283,34051,34048,0.07302774488925934,-0.04109349101781845,0.9819918870925903,-2.4456493854522705,2.4436514377593994,-0.5956929326057434,2.0702455043792725,3.9792490005493164,0.3185090124607086,0.02140619233250618,-0.25846588611602783,0.5416631698608398
284,34061,34058,0.09499906003475189,-0.12453017383813858,0.9612030982971191,0.7940390110015869,2.99037504196167,-0.3859322965145111,2.070192575454712,3.979137420654297,0.3178790211677551,0.028925389051437378,-0.20396184921264648,0.5333545207977295
285,34071,34068,0.0025414107367396355,-0.055397626012563705,1.007242202758789,3.714510202407837,2.4078409671783447,-0.3188140392303467,2.0714211463928223,3.9804623126983643,0.3176908791065216,-0.09493209421634674,-0.16602164506912231,0.5974175930023193
286,34081,34078,0.018632497638463974,0.0011786442482843995,1.0035802125930786,5.063261032104492,3.5298993587493896,-0.1462189257144928,2.0707480907440186,3.980522871017456,0.31776589155197144,-0.06070176139473915,-0.09186214953660965,0.5932664275169373
287,34091,34088,-0.03658279404044151,-0.027323642745614052,1.0076793432235718,3.3574912548065186,1.9316891431808472,-0.352439820766449,2.071765661239624,3.9804539680480957,0.31871938705444336,-0.10122891515493393,-0.023629941046237946,0.5882311463356018
288,34101,34098,-0.02306872233748436,-0.05783391371369362,1.0012861490249634,1.1789202690124512,0.57673579454422,-0.5055862069129944,2.072533130645752,3.9800572395324707,0.31856635212898254,-0.11323567479848862,0.01391464751213789,0.5848458409309387
289,34111,34108,-0.04130183905363083,0.11368472129106522,1.0266368389129639,-1.4564763307571411,0.08060004562139511,-0.5144423842430115,2.0724754333496094,3.9797627925872803,0.3184945285320282,-0.0286222156137228,0.004036081489175558,0.5734611749649048
290,34121,34118,-0.019645998254418373,0.11262139678001404,1.0204821825027466,-4.006356716156006,-0.8256323337554932,-0.6930911540985107,2.072504997253418,3.979942560195923,0.3184342086315155,0.06060110405087471,-0.04804976284503937,0.5778576731681824
291,34131,34128,-0.014274789951741695,-0.005282529629766941,1.043684482574463,-4.7995500564575195,0.11502283066511154,-1.0117050409317017,2.074492931365967,3.980565309524536,0.3185259699821472,-0.08431612700223923,-0.12341166287660599,0.5710992813110352
292,34141,34138,-0.021772757172584534,-0.10091439634561539,1.006508231163025,-4.179178237915039,2.062398672103882,-0.9573696255683899,2.0750551223754883,3.9806511402130127,0.3184615671634674,-0.08541218936443329,-0.19673992693424225,0.5600696802139282
293,34151,34148,0.0039483108557760715,-0.07100873440504074,0.9795439839363098,-1.9453603029251099,3.93813419342041,-1.1872385740280151,2.075589895248413,3.9804747104644775,0.31847628951072693,-0.06003236398100853,-0.25029510259628296,0.5361835360527039
294,34161,34158,-0.013627970591187477,0.020782068371772766,1.0389055013656616,0.6102511882781982,3.979377269744873,-1.1991263628005981,2.076383113861084,3.979884386062622,0.3193213939666748,-0.129624143242836,-0.1864355057477951,0.5281542539596558
295,34171,34168,0.03373054042458534,-0.0765703096985817,0.9589927196502686,3.300717353820801,4.17060661315918,-0.991614043712616,2.0771543979644775,3.979222297668457,0.319345623254776,-0.20808805525302887,-0.16272272169589996,0.505676805973053
296,34181,34178,0.0053838384337723255,-0.062044646590948105,0.9806962609291077,4.3929033279418945,2.888158082962036,-0.7238864898681641,2.077634334564209,3.979326009750366,0.3194369673728943,-0.18495194613933563,-0.10407669097185135,0.49339890480041504
297,34191,34188,-0.0007292875670827925,0.005688174162060022,1.0170155763626099,4.819146633148193,-0.45444703102111816,-1.2116072177886963,2.078200101852417,3.9782865047454834,0.31895312666893005,-0.2120116949081421,-0.03311287611722946,0.4571705162525177
298,34201,34198,-0.024759361520409584,0.05016167461872101,1.0311702489852905,2.3750720024108887,-0.09403543174266815,-1.082095980644226,2.0800299644470215,3.9777212142944336,0.3188169002532959,-0.35604503750801086,0.024790268391370773,0.45012167096138
299,34211,34208,-0.04246474429965019,0.04749734327197075,1.043592929840088,-0.3471965491771698,-0.37914830446243286,-1.2984927892684937,2.0784807205200195,3.979459524154663,0.3191151022911072,-0.16425761580467224,0.04123814031481743,0.5006446838378906
300,34221,34218,-0.012431541457772255,0.04842465743422508,0.9750513434410095,-2.618279457092285,-1.3522834777832031,-2.16377854347229,2.0807299613952637,3.9802863597869873,0.31906649470329285,-0.30827832221984863,-0.0767376720905304,0.5041943192481995
301,34231,34228,0.014869237318634987,-0.09054651111364365,0.9921366572380066,-3.715287446975708,-1.0903575420379639,-2.230529546737671,2.0810251235961914,3.981348991394043,0.32058990001678467,-0.19479455053806305,-0.12424657493829727,0.4796667695045471
302,34241,34238,-0.002626493340358138,0.043786127120256424,0.983598530292511,-2.876115322113037,-0.4060211181640625,-2.203401565551758,2.081277370452881,3.9814484119415283,0.3207528293132782,-0.18310828506946564,-0.18455277383327484,0.4512644410133362
303,34251,34248,-0.0035789015237241983,0.12251938879489899,0.9608703851699829,-0.8076809644699097,0.6826425790786743,-2.2718687057495117,2.0823988914489746,3.980660915374756,0.3208957016468048,-0.1919763833284378,-0.1418837010860443,0.42910829186439514
304,34261,34258,0.028592702001333237,0.01895805634558201,0.9361239075660706,1.847077488899231,0.6000428795814514,-2.1367452144622803,2.081636667251587,3.980936288833618,0.3210921585559845,-0.14226770401000977,-0.14169982075691223,0.4282764494419098
305,34271,34268,0.013001185841858387,-0.046646784991025925,0.987455427646637,4.09686279296875,2.145543336868286,-2.000277280807495,2.083158493041992,3.98140287399292,0.3211020529270172,-0.23714865744113922,-0.16337089240550995,0.40764886140823364
306,34281,34278,-0.006779978983104229,-0.16767650842666626,1.0059386491775513,4.381328582763672,2.7285873889923096,-2.471139669418335,2.0841174125671387,3.981149196624756,0.3211231231689453,-0.27175840735435486,-0.08458147943019867,0.3891502320766449
307,34291,34288,-0.01128922775387764,-0.056813888251781464,0.9753358960151672,4.4416890144348145,2.334646463394165,-2.2891829013824463,2.0849897861480713,3.9808778762817383,0.31781911849975586,-0.3022788166999817,-0.003167632268741727,0.36525943875312805
308,34301,34298,0.011450511403381824,0.10351120680570602,0.9662187695503235,3.0529744625091553,1.938863754272461,-2.2809407711029053,2.08538818359375,3.980674982070923,0.31767451763153076,-0.24043622612953186,0.057377252727746964,0.33980679512023926
309,34311,34308,-0.02319018542766571,0.13550004363059998,1.0270005464553833,0.8238773941993713,0.40450742840766907,-2.616939067840576,2.085965394973755,3.9802165031433105,0.31744620203971863,-0.24599917232990265,0.09010099619626999,0.3057796061038971
310,34321,34318,-0.034452684223651886,0.10597971081733704,1.031514286994934,-1.3846197128295898,0.8650894165039062,-2.3102099895477295,2.086944818496704,3.979349374771118,0.3172496259212494,-0.3355688750743866,0.07629421353340149,0.2726946175098419
311,34331,34328,0.015460340306162834,-0.012559911236166954,0.9827907681465149,-3.360130786895752,1.0994807481765747,-2.3236947059631348,2.0871758460998535,3.979921817779541,0.3170967400074005,-0.2623143494129181,0.02605769783258438,0.24728237092494965
312,34341,34338,-0.000954567629378289,-0.01582958549261093,0.9811381101608276,-4.231412887573242,1.0933594703674316,-2.3896896839141846,2.088046073913574,3.9794654846191406,0.3168933689594269,-0.35688912868499756,-0.04328961297869682,0.2053743153810501
313,34351,34348,-0.00804203562438488,-0.13457739353179932,0.9692916870117188,-2.9226527214050293,0.4505932033061981,-1.9859906435012817,2.0894525051116943,3.9800755977630615,0.3165987432003021,-0.4314989447593689,-0.18013431131839752,0.18086057901382446
314,34361,34358,0.016680113971233368,0.04247889295220375,1.0302133560180664,-1.1947228908538818,-0.40906161069869995,-1.6346051692962646,2.089686155319214,3.9803109169006348,0.3173109292984009,-0.3406848609447479,-0.20827150344848633,0.162432461977005
315,34371,34368,-0.003154827980324626,0.07634609192609787,1.034041166305542,1.4829368591308594,-2.08211612701416,-1.7477178573608398,2.0903615951538086,3.9802839756011963,0.31714221835136414,-0.3055208623409271,-0.1926826685667038,0.15843424201011658
316,34381,34378,0.002852791454643011,-0.04066988080739975,0.9765663146972656,4.318645477294922,-2.8419485092163086,-1.7795425653457642,2.090855598449707,3.9801876544952393,0.31699666380882263,-0.33357933163642883,-0.13239526748657227,0.18873243033885956
317,34391,34388,0.007946722209453583,-0.013092823326587677,1.0144805908203125,6.098774433135986,-2.832141637802124,-2.249422788619995,2.090975284576416,3.9817259311676025,0.3130149841308594,-0.27017709612846375,-0.11535995453596115,0.1660822182893753
318,34401,34398,-0.013810086995363235,0.0056158192455768585,1.0107783079147339,5.9708781242370605,-1.9686528444290161,-2.2264883518218994,2.09242844581604,3.9811367988586426,0.31260985136032104,-0.29584142565727234,0.0004444661899469793,0.13755664229393005
319,34411,34408,0.006915480364114046,-0.053000956773757935,0.9735297560691833,5.121321201324463,-0.3640040457248688,-2.0476233959198,2.0938432216644287,3.9821746349334717,0.312172532081604,-0.33672448992729187,-0.05570584163069725,0.11196433752775192
320,34421,34418,-0.001535198767669499,0.003045742865651846,1.0200449228286743,2.9539849758148193,1.2410261631011963,-2.047527551651001,2.0943281650543213,3.9819748401641846,0.31352609395980835,-0.24461956322193146,0.03250609338283539,0.09204340726137161
321,34431,34428,-0.01590031012892723,-0.007544391322880983,1.0149967670440674,1.7444024085998535,0.7914243936538696,-2.5353991985321045,2.094860315322876,3.9814908504486084,0.31325075030326843,-0.29876744747161865,0.09443166106939316,0.07342636585235596
322,34441,34438,-0.044948674738407135,0.0014078037347644567,1.0572768449783325,0.5920726656913757,1.569959044456482,-2.3061041831970215,2.094813585281372,3.979785680770874,0.313056617975235,-0.2063942551612854,0.12605658173561096,0.002883845241740346
323,34451,34448,-0.04480738192796707,0.03416350483894348,1.0667638778686523,-0.012058465741574764,1.440902829170227,-2.1570074558258057,2.0964717864990234,3.979357957839966,0.3127799332141876,-0.2653469741344452,0.14663225412368774,-0.034155912697315216
324,34461,34458,0.02226889319717884,-0.03989434614777565,0.9778884649276733,0.4545295238494873,-2.5654189586639404,-1.5150952339172363,2.09747314453125,3.978541851043701,0.3096010684967041,-0.3686918020248413,0.14658139646053314,-0.07409767806529999
325,34471,34468,-0.030325954779982567,0.007969713769853115,1.0282483100891113,-0.09707152843475342,0.09634394943714142,-1.3834277391433716,2.0983169078826904,3.9798848628997803,0.30938246846199036,-0.23099198937416077,0.1538926213979721,-0.060955919325351715
326,34481,34478,0.06976836919784546,0.007585278246551752,0.9640144109725952,-0.3055388629436493,-0.48338621854782104,-1.6525509357452393,2.099538803100586,3.9795870780944824,0.30901214480400085,-0.29695820808410645,0.15076874196529388,-0.0764564573764801
327,34491,34488,-0.0065256450325250626,-0.007171688135713339,1.0215353965759277,0.2622702419757843,1.4522770643234253,-1.671388030052185,2.099371910095215,3.9830238819122314,0.3085099160671234,-0.23160676658153534,0.1524471789598465,0.026044541969895363
328,34501,34498,0.03321997821331024,0.003933158237487078,1.008615493774414,0.5365851521492004,-1.4514744281768799,-2.4131600856781006,2.0996253490448,3.9828438758850098,0.3082370162010193,-0.16681385040283203,0.16253970563411713,-0.0008265924989245832
329,34511,34508,0.003452930599451065,-0.03271699324250221,1.01988685131073,0.856632649898529,-2.446259021759033,-2.1387765407562256,2.1023037433624268,3.982689380645752,0.3078165650367737,-0.34473052620887756,0.17861846089363098,-0.026628850027918816
330,34521,34518,-0.06944553554058075,-0.040394555777311325,1.0535945892333984,-0.13098782300949097,-1.7246447801589966,-1.7092885971069336,2.102328062057495,3.983330488204956,0.3080863058567047,-0.19963330030441284,0.11650443822145462,-0.04770735278725624
331,34531,34528,-0.015119659714400768,-0.034142546355724335,1.0223877429962158,-0.8615351915359497,-1.7798430919647217,-1.5693740844726562,2.1034862995147705,3.98260498046875,0.3077925443649292,-0.22678451240062714,0.1158432811498642,-0.09596001356840134
332,34541,34538,-0.02080249972641468,-0.009261788800358772,1.0230340957641602,-1.5513635873794556,-1.0255330801010132,-1.465567708015442,2.1045408248901367,3.982692003250122,0.3076381981372833,-0.14852145314216614,0.10526593774557114,-0.10923437774181366
333,34551,34548,0.029140446335077286,0.0022030258551239967,1.0169379711151123,-1.0572867393493652,0.5190523266792297,-1.335256814956665,2.105539321899414,3.982067584991455,0.3075120449066162,-0.1139327883720398,0.16541047394275665,-0.12556438148021698
334,34561,34558,0.06819803267717361,-0.0159873366355896,1.01834237575531,-1.1169443130493164,1.1313320398330688,-1.2321571111679077,2.1070609092712402,3.9821503162384033,0.3068434000015259,-0.2011643648147583,0.1406511813402176,-0.1394852101802826
335,34571,34568,0.05467064306139946,-0.010570812039077282,1.0322041511535645,-0.5155566930770874,1.296194314956665,-0.9720077514648438,2.1080236434936523,3.981994867324829,0.306686133146286,-0.22137977182865143,0.1306019276380539,-0.16202907264232635
336,34581,34578,-0.019173048436641693,-0.006803378462791443,1.0173007249832153,-0.11759606748819351,-0.899895191192627,-0.8666298985481262,2.10892391204834,3.9814388751983643,0.3065035045146942,-0.261043518781662,0.12924502789974213,-0.17569127678871155
337,34591,34588,-0.01932506449520588,-0.02203720062971115,1.0127475261688232,0.5836846232414246,-0.3820347189903259,-0.4362085163593292,2.1087963581085205,3.9809200763702393,0.3043721318244934,-0.13433846831321716,0.13264620304107666,-0.19155332446098328
338,34601,34598,-0.03477572649717331,-0.007598794065415859,0.9943666458129883,0.06115168705582619,-1.008887767791748,-0.48424237966537476,2.111374616622925,3.9809889793395996,0.3040105998516083,-0.3231215178966522,0.1367354691028595,-0.16746877133846283
339,34611,34608,-0.033764149993658066,0.09048815071582794,1.0294163227081299,-0.02346677891910076,-1.4792728424072266,-0.7632924914360046,2.1123788356781006,3.980602979660034,0.3037637770175934,-0.17521534860134125,0.22412608563899994,-0.21873819828033447
340,34621,34618,0.01632891595363617,-0.08089545369148254,1.0065175294876099,0.2020096480846405,-2.6327285766601562,-0.19896088540554047,2.111206531524658,3.982626438140869,0.30183669924736023,-0.18868808448314667,0.2119629681110382,-0.07773535698652267
341,34631,34628,-0.007227384485304356,-0.029196931049227715,1.0509357452392578,-1.7176015377044678,-3.7962074279785156,-1.3898943662643433,2.111598014831543,3.9845292568206787,0.30163756012916565,-0.026258734986186028,0.1128229945898056,-0.08173816651105881
342,34641,34638,0.020714813843369484,-0.09907178580760956,1.0011669397354126,-3.016695737838745,-2.556652545928955,-1.3902008533477783,2.111591339111328,3.985430955886841,0.3013949394226074,-0.03793574497103691,0.06718578934669495,-0.05111987143754959
343,34651,34648,-0.023158138617873192,0.03244037181138992,1.0309224128723145,-2.08388090133667,-0.931739866733551,-1.5595154762268066,2.112816572189331,3.985466957092285,0.30117735266685486,-0.20967929065227509,0.03468019515275955,-0.07301779091358185
344,34661,34658,-0.0031418856233358383,0.17047777771949768,0.9946273565292358,-2.0773208141326904,2.446591377258301,-1.51187002658844,2.114473581314087,3.9843575954437256,0.3039568364620209,-0.11703129857778549,0.07910565286874771,-0.10560306161642075
345,34671,34668,-0.0013269195333123207,0.03916487097740173,0.9977935552597046,1.613611102104187,0.8332135677337646,-1.434630274772644,2.1169614791870117,3.9842541217803955,0.3038162589073181,-0.2628606855869293,0.08478348702192307,-0.08200962841510773
346,34681,34678,0.045252226293087006,-0.07435285300016403,0.9969547390937805,2.1980044841766357,-1.0009552240371704,-1.5319430828094482,2.118936061859131,3.9853785037994385,0.30366483330726624,-0.3822668790817261,0.10281989723443985,-0.07706309854984283
347,34691,34688,-0.010670320130884647,-0.011236392892897129,1.0365606546401978,2.6358840465545654,-3.2250421047210693,-1.7924439907073975,2.1188712120056152,3.9878644943237305,0.3067878782749176,-0.22857733070850372,0.13815279304981232,0.012402838096022606
348,34701,34698,-0.03586946800351143,-0.124664306640625,1.0265026092529297,1.7398030757904053,-6.150824069976807,-2.1694436073303223,2.118760108947754,3.988743543624878,0.30715179443359375,-0.1756344735622406,0.09145385026931763,-0.011168207041919231
349,34711,34708,-0.021526282653212547,0.08522109687328339,1.0354621410369873,1.2517199516296387,-8.539712905883789,-1.97098708152771,2.1182971000671387,3.9882242679595947,0.3075054883956909,0.002050393261015415,0.1214677169919014,-0.03126957640051842
350,34721,34718,-0.030453037470579147,0.0032491518650203943,1.007982611656189,0.5767356753349304,-8.486462593078613,-1.5787749290466309,2.1203372478485107,3.9881680011749268,0.306486576795578,0.03496653586626053,0.13843020796775818,-0.0573946051299572
351,34731,34728,0.013431991450488567,0.003784594591706991,1.0026423931121826,0.04394938796758652,-6.479367256164551,-1.1814509630203247,2.1206843852996826,3.9879331588745117,0.3067174553871155,0.04735635221004486,0.14314748346805573,-0.06529872119426727
352,34741,34738,0.014997107908129692,0.1043270081281662,1.019478440284729,-1.0805251598358154,-3.699101686477661,-1.346767544746399,2.121892213821411,3.987959861755371,0.3069375157356262,0.1762196570634842,0.13524702191352844,-0.08495395630598068
353,34751,34748,0.021252913400530815,0.047023698687553406,1.015533208847046,-1.8249670267105103,-1.272068738937378,-1.4290632009506226,2.123044013977051,3.987961530685425,0.30708351731300354,0.17919346690177917,0.10755691677331924,-0.08658339828252792
354,34761,34758,0.005724313668906689,0.015897998586297035,0.9939700961112976,-1.313100814819336,0.12004821002483368,-1.6942598819732666,2.1241414546966553,3.987116575241089,0.3073025941848755,0.14373470842838287,0.15953698754310608,-0.10309860855340958
355,34771,34768,0.015870293602347374,-0.14125138521194458,0.97849041223526,-1.4008828401565552,0.8786112666130066,-1.8889800310134888,2.124687433242798,3.9882824420928955,0.30751553177833557,0.16660872101783752,0.13152138888835907,-0.06987430900335312
356,34781,34778,0.011053469032049179,-0.1358163207769394,0.9812197685241699,-0.7025921940803528,0.2700333297252655,-2.092681646347046,2.1262264251708984,3.989470958709717,0.307769775390625,0.10870092362165451,0.11100470274686813,-0.05614066869020462
357,34791,34788,0.005213892087340355,-0.054660554975271225,0.95963054895401,-0.24145843088626862,0.0637454017996788,-2.2291877269744873,2.1269423961639404,3.9920105934143066,0.3083135187625885,0.22779597342014313,0.10558648407459259,0.03547991067171097
358,34801,34798,0.01448915433138609,0.010976593010127544,0.9577436447143555,0.9208367466926575,-1.9763027429580688,-2.740483283996582,2.1268811225891113,3.9903135299682617,0.30858784914016724,0.18911653757095337,0.10057029873132706,-0.04500817507505417
359,34811,34808,-0.007485088426619768,0.05743309482932091,0.993309736251831,0.5179465413093567,-2.4993960857391357,-2.512314796447754,2.129700183868408,3.9891116619110107,0.3085991144180298,0.013895788230001926,0.10352054983377457,-0.1142175942659378
360,34821,34818,-0.02055376023054123,0.036104414612054825,0.995705783367157,0.1746852695941925,-2.2828783988952637,-2.1295690536499023,2.129936933517456,3.989032030105591,0.31136032938957214,0.1642729490995407,0.1042112335562706,-0.09928108006715775
361,34831,34828,-0.0035339470487087965,-0.029057389125227928,0.9816587567329407,-0.12809516489505768,-2.1411185264587402,-2.1255877017974854,2.1297998428344727,3.9893341064453125,0.3117588758468628,0.3074858486652374,0.10544779151678085,-0.1429339200258255
362,34841,34838,-0.06540340930223465,-0.013845629058778286,1.0376516580581665,-0.3233948349952698,-2.4579050540924072,-2.1552321910858154,2.1299149990081787,3.9925923347473145,0.3118835687637329,0.22976179420948029,0.10507088154554367,-0.017353026196360588
363,34851,34848,-0.07019978016614914,-0.04131152853369713,1.0286142826080322,-0.9032036662101746,-0.5890064835548401,-3.06616473197937,2.1309168338775635,3.9915390014648438,0.31143444776535034,0.2504318654537201,0.17535145580768585,-0.04718847945332527
364,34861,34858,0.004059487022459507,-0.03653687238693237,0.9738027453422546,-1.6762065887451172,1.8456050157546997,-3.0690367221832275,2.1311774253845215,3.9928643703460693,0.3117140233516693,0.3216405510902405,0.15444250404834747,-0.01113996934145689
365,34871,34868,0.02657693438231945,0.012982416898012161,0.9561207294464111,-2.5542547702789307,2.4354088306427,-2.9541475772857666,2.13271164894104,3.9930076599121094,0.31195297837257385,0.27549290657043457,0.1225297823548317,0.09800446778535843
366,34881,34878,0.007610526867210865,-0.011227970942854881,0.967620849609375,-2.623842239379883,5.364455223083496,-3.201266288757324,2.1308720111846924,3.995943069458008,0.31229913234710693,0.35659754276275635,0.08056630939245224,0.0710185319185257
367,34891,34888,-0.05573629215359688,-0.07589016109704971,1.0015352964401245,-2.7347280979156494,2.074254035949707,-3.211360216140747,2.130784034729004,3.9966111183166504,0.31132933497428894,0.3307046592235565,0.03184330835938454,0.07759895920753479
368,34901,34898,0.08933406323194504,-0.01132996752858162,0.953069269657135,-1.8608133792877197,0.5621097683906555,-2.994086742401123,2.130676031112671,3.9957261085510254,0.31151241064071655,0.30268484354019165,0.06138705462217331,0.0406181775033474
369,34911,34908,0.1449991762638092,-0.015144464559853077,0.9355282187461853,-0.4616558849811554,-0.3237149715423584,-2.7330315113067627,2.132383346557617,3.995777130126953,0.31157737970352173,0.2224714607000351,0.019791539758443832,0.02469700202345848
370,34921,34918,0.11688002943992615,-0.044346753507852554,0.9544659852981567,0.3348958492279053,-1.2243911027908325,-2.444463014602661,2.133195161819458,3.9960761070251465,0.30935177206993103,0.2263595014810562,-0.002546889241784811,-0.00115334487054497
371,34931,34928,0.06627760082483292,-0.024787593632936478,0.9655857086181641,-0.0028914050199091434,-3.2967443466186523,-1.9035454988479614,2.133286237716675,3.9960079193115234,0.30926942825317383,0.2620578110218048,-0.014170035719871521,-0.02323591709136963
372,34941,34938,0.029454154893755913,-0.015728266909718513,0.9712973237037659,-0.36512452363967896,-0.8987199664115906,-1.985180377960205,2.134906768798828,3.995743989944458,0.3090544641017914,0.23608534038066864,-0.020449897274374962,-0.05659663677215576
373,34951,34948,-0.02592560090124607,-0.01100494060665369,0.9938602447509766,-0.6850210428237915,0.10506118088960648,-1.810525894165039,2.134249448776245,3.995516300201416,0.30462217330932617,0.3357085883617401,-0.028327157720923424,-0.07911800593137741
374,34961,34958,-0.06540719419717789,0.07136393338441849,0.9978198409080505,-1.2086074352264404,1.660998821258545,-1.8489700555801392,2.136172294616699,3.996833562850952,0.30405259132385254,0.19237926602363586,-0.04582605138421059,-0.049068618565797806
375,34971,34968,-0.0728093609213829,0.0793561190366745,0.9887256026268005,-1.7124747037887573,3.4771997928619385,-1.9263371229171753,2.1372830867767334,3.9963746070861816,0.30357977747917175,0.2629365622997284,0.005694561172276735,-0.08275391161441803
376,34981,34978,-0.06949616968631744,0.058610912412405014,1.0139931440353394,-1.761845350265503,3.6572425365448,-1.9657007455825806,2.1371426582336426,3.995041847229004,0.3032059371471405,0.23050373792648315,0.04159469157457352,-0.10779515653848648
377,34991,34988,0.003933226224035025,-0.030763991177082062,1.0022629499435425,-1.8725148439407349,4.109973430633545,-1.8382189273834229,2.1377830505371094,3.995159864425659,0.30446380376815796,0.26838961243629456,-0.009167879819869995,-0.12394052743911743
378,35001,34998,-0.0053313071839511395,-0.04891723766922951,1.0184777975082397,-2.9670560359954834,4.735930919647217,-1.8868142366409302,2.1387226581573486,3.995891809463501,0.3040919005870819,0.2186133861541748,0.013549546711146832,-0.1097557544708252
379,35011,35008,0.009456002153456211,0.06722825765609741,0.9989429712295532,-3.1779625415802,4.972452640533447,-2.3905181884765625,2.139587879180908,3.9975409507751465,0.3037228584289551,0.22887159883975983,-0.04835938662290573,-0.046291057020425797
380,35021,35018,0.018104618415236473,-0.001416310085915029,0.9949811697006226,-3.0644407272338867,3.4535410404205322,-2.4416582584381104,2.1408960819244385,3.9972424507141113,0.3032313287258148,0.09099426865577698,-0.10504089295864105,-0.02930609881877899
381,35031,35028,0.002635309239849448,0.08018875867128372,1.0028996467590332,-2.46456241607666,3.7911806106567383,-2.6822867393493652,2.1405484676361084,3.9991447925567627,0.3029181659221649,0.12172967940568924,-0.15539371967315674,-0.0370844304561615
382,35041,35038,0.009234890341758728,0.017335887998342514,1.0213357210159302,-0.7218279242515564,2.601213216781616,-2.552589178085327,2.1408400535583496,3.9992032051086426,0.3026009798049927,0.13997629284858704,-0.19139879941940308,-0.06474021077156067
383,35051,35048,-0.00030551664531230927,-0.010108081623911858,1.0111753940582275,0.37378937005996704,1.643417477607727,-2.600187063217163,2.142331123352051,3.9989500045776367,0.30279746651649475,-0.05731600150465965,-0.20700927078723907,-0.08875283598899841
384,35061,35058,-0.007566876243799925,-0.08446574956178665,1.0688738822937012,1.48357093334198,2.3090481758117676,-2.4352540969848633,2.1410205364227295,3.9994099140167236,0.30261704325675964,-0.0003892109089065343,-0.13021503388881683,-0.04617343842983246
385,35071,35068,-0.014314809814095497,-0.17688876390457153,1.0491740703582764,2.8650782108306885,2.406116247177124,-2.2155027389526367,2.1423287391662598,3.9993860721588135,0.3023703992366791,-0.023748211562633514,-0.11860986053943634,-0.07245910167694092
386,35081,35078,-0.025023184716701508,-0.17259718477725983,1.0800727605819702,3.073850154876709,1.3162426948547363,-1.924753189086914,2.1424882411956787,3.999835729598999,0.30550435185432434,0.04639732465147972,-0.15772731602191925,-0.09464377164840698
387,35091,35088,-0.008676995523273945,0.022490551695227623,1.0280529260635376,1.869533658027649,1.936421513557434,-1.5967835187911987,2.142850399017334,3.9994068145751953,0.305625855922699,0.1155550554394722,-0.1097160279750824,-0.13287466764450073
388,35101,35098,0.015515431761741638,0.1433662623167038,1.0001261234283447,0.7118377685546875,2.3804099559783936,-1.2622758150100708,2.1450254917144775,3.9994051456451416,0.3056659400463104,-0.06408950686454773,-0.07936139404773712,-0.14577901363372803
389,35111,35108,0.0325615257024765,0.22834421694278717,1.0162090063095093,0.11215094476938248,3.023481845855713,-1.2646416425704956,2.1475625038146973,4.002268314361572,0.30577322840690613,-0.17598578333854675,-0.07172391563653946,-0.005232740193605423
390,35121,35118,0.02945858985185623,0.029018064960837364,0.9899117946624756,-0.9810898900032043,2.3168680667877197,-2.2568676471710205,2.147876501083374,4.003318786621094,0.3050536811351776,-0.13585436344146729,-0.0821378231048584,-0.021586863324046135
391,35131,35128,-0.0069481669925153255,-0.06745684146881104,0.9953659772872925,0.35581186413764954,-1.3752591609954834,-2.6628973484039307,2.1483030319213867,4.003087997436523,0.305181086063385,-0.14803388714790344,-0.08847694844007492,-0.03753480315208435
392,35141,35138,-0.0302254818379879,-0.07661721110343933,1.0243275165557861,-0.4639660120010376,-3.2671854496002197,-2.066429376602173,2.1493661403656006,4.00275182723999,0.3052993714809418,-0.11255254596471786,-0.0927697941660881,-0.038191620260477066
393,35151,35148,-0.0006218901253305376,-0.03441091999411583,0.9949571490287781,-0.0657908245921135,-4.635347366333008,-1.8072940111160278,2.1504409313201904,4.003046989440918,0.3041984736919403,-0.12071561068296432,-0.02233482152223587,-0.07668256014585495
394,35161,35158,0.008580677211284637,-0.021254675462841988,0.9948908686637878,0.5039368271827698,-3.129218339920044,-1.8447054624557495,2.1516387462615967,4.002950191497803,0.3042430579662323,-0.047936104238033295,-0.03344028815627098,-0.0823865607380867
395,35171,35168,-0.004784861579537392,-0.05684487894177437,0.9970721006393433,0.11192149668931961,-1.541083574295044,-1.9625601768493652,2.1523776054382324,4.003664493560791,0.30429524183273315,-0.0779167115688324,-0.11899488419294357,-0.11024122685194016
396,35181,35178,0.006781421601772308,-0.017716657370328903,0.994671642780304,-0.4930625259876251,-0.5042181611061096,-1.965620994567871,2.153101921081543,4.0030951499938965,0.307981014251709,-0.033794037997722626,-0.11669427156448364,-0.15006078779697418
397,35191,35188,-0.022724654525518417,0.06503397971391678,1.05727219581604,0.3896786868572235,1.663596272468567,-1.6861869096755981,2.154491424560547,4.002918243408203,0.3082455098628998,-0.08651431649923325,-0.11400473862886429,-0.17496998608112335
398,35201,35198,-0.04041854292154312,0.03445219621062279,1.0355862379074097,1.3309274911880493,2.2832393646240234,-1.5779173374176025,2.1552340984344482,4.00260591506958,0.3085276484489441,-0.08074188232421875,-0.09873595833778381,-0.20193274319171906
399,35211,35208,-0.005685436073690653,-0.04806143790483475,0.9803959131240845,1.0979894399642944,2.5576248168945312,-1.5697108507156372,2.155672073364258,4.003633975982666,0.3088529706001282,-0.015441672876477242,-0.0754929706454277,-0.16016215085983276
400,35221,35218,0.022114118561148643,-0.03206565976142883,0.9622120261192322,1.1311031579971313,2.213423013687134,-2.1015241146087646,2.1559157371520996,4.004856586456299,0.30932703614234924,-0.059424228966236115,-0.060717176645994186,-0.13257217407226562
401,35231,35228,0.050881173461675644,-0.030503204092383385,0.9364336133003235,1.71342933177948,0.24457554519176483,-2.318955659866333,2.156320571899414,4.006016731262207,0.30963054299354553,-0.17287848889827728,-0.0469106063246727,-0.07496806234121323
402,35241,35238,0.05758741870522499,-0.05580415576696396,0.9221317768096924,2.0115058422088623,-0.7610569000244141,-2.569631576538086,2.1579554080963135,4.005066871643066,0.30985087156295776,-0.16992387175559998,0.050300851464271545,-0.10871751606464386
403,35251,35248,0.050779469311237335,-0.04193020239472389,0.9394730925559998,1.7106558084487915,-1.9658639430999756,-2.320543050765991,2.158792734146118,4.005079746246338,0.30789828300476074,-0.319443941116333,0.06369204819202423,-0.12546052038669586
404,35261,35258,0.060090456157922745,-0.047074563801288605,0.9460077285766602,1.4579722881317139,-3.365065574645996,-2.353713274002075,2.161172866821289,4.004993915557861,0.3077867329120636,-0.20763222873210907,0.07187076658010483,-0.1680506318807602
405,35271,35268,0.024585019797086716,-0.06528055667877197,0.9768383502960205,0.3718094527721405,-4.592563152313232,-2.183227777481079,2.1606903076171875,4.004263877868652,0.3078872263431549,-0.16264283657073975,0.07250505685806274,-0.20422811806201935
406,35281,35278,0.037157461047172546,-0.021164441481232643,0.9618213772773743,-1.754353404045105,-3.2373881340026855,-1.587465524673462,2.1619131565093994,4.00550651550293,0.3075505197048187,-0.17990297079086304,0.052470866590738297,-0.1836307793855667
407,35291,35288,-0.060638606548309326,-0.029216386377811432,1.0039341449737549,-3.416473150253296,-2.5464258193969727,-1.390141248703003,2.1631462574005127,4.0051374435424805,0.3074299097061157,-0.17706024646759033,0.012943534180521965,-0.09540703147649765
408,35301,35298,0.013415109366178513,-0.008987522684037685,0.9870462417602539,-3.8174326419830322,-1.1956102848052979,-1.796939492225647,2.164088726043701,4.008240699768066,0.3072570562362671,-0.09807710349559784,-0.03990427032113075,-0.1008167713880539
409,35311,35308,-0.003917061258107424,-0.015690524131059647,1.0030933618545532,-2.5776443481445312,-3.0509634017944336,-2.27830171585083,2.1639766693115234,4.009315490722656,0.30718475580215454,-0.05043255165219307,-0.019805030897259712,-0.04652637243270874
410,35321,35318,-0.011607004329562187,0.043940942734479904,0.9994090795516968,-1.7359330654144287,0.6360332369804382,-3.013866662979126,2.164050817489624,4.010072708129883,0.3098779618740082,0.06882938742637634,-0.0733480155467987,-0.03554033488035202
411,35331,35328,0.005742194596678019,0.008426755666732788,0.992145299911499,-0.15674470365047455,2.6083340644836426,-3.1130003929138184,2.163499116897583,4.011195182800293,0.3099501132965088,-0.07212920486927032,-0.10132147371768951,0.015894390642642975
412,35341,35338,-0.012088297866284847,-0.024163750931620598,1.009857416152954,0.39928334951400757,3.5916566848754883,-3.117147922515869,2.1655194759368896,4.0111083984375,0.309901624917984,-0.002593371784314513,-0.03311438113451004,-0.01402902789413929
413,35351,35348,0.01119430735707283,-0.006167256738990545,0.9994922280311584,1.0210522413253784,2.5901541709899902,-2.377748489379883,2.165684223175049,4.010352611541748,0.30790114402770996,-0.11449653655290604,-0.11737281829118729,-0.05848906189203262
414,35361,35358,-0.01374011393636465,-0.007675029803067446,0.9918875098228455,1.6546496152877808,1.346752405166626,-1.9516500234603882,2.1674304008483887,4.0107245445251465,0.3077591061592102,-0.21277070045471191,-0.09903982281684875,-0.0825287476181984
415,35371,35368,0.0005286785890348256,-0.03688369691371918,0.99643474817276,0.870521068572998,-0.965502142906189,-1.9821317195892334,2.1679787635803223,4.010354518890381,0.3077239990234375,-0.11789839714765549,-0.07895884662866592,-0.1133168637752533
416,35381,35378,0.0015047906199470162,0.008238626644015312,1.0146483182907104,0.28982603549957275,-3.0052196979522705,-1.4920307397842407,2.1691384315490723,4.010210990905762,0.31145966053009033,-0.0811372771859169,-0.067110575735569,-0.1341971606016159
417,35391,35388,-0.028244532644748688,-0.007301403675228357,1.0009276866912842,-0.7146204113960266,-3.9721174240112305,-1.3190745115280151,2.169818878173828,4.009960174560547,0.31161147356033325,-0.08900853991508484,-0.07159841805696487,-0.16602298617362976
418,35401,35398,0.011958313174545765,-0.03936963155865669,0.9962716102600098,-0.012574711814522743,-3.053055763244629,-1.028296709060669,2.171147108078003,4.010012149810791,0.3117299973964691,0.0732392892241478,-0.08184198290109634,-0.16949592530727386
419,35411,35408,-0.02377425692975521,0.007570401765406132,1.0256986618041992,-0.39970076084136963,-1.621557354927063,-1.1618602275848389,2.1707496643066406,4.01026725769043,0.31004798412323,0.130295991897583,-0.08946023136377335,-0.1809675246477127
420,35421,35418,-0.0008062766282819211,-0.012196452356874943,0.9819208383560181,-0.0794232115149498,1.0225939750671387,-1.7520170211791992,2.1715269088745117,4.011951923370361,0.31014981865882874,0.07562839984893799,-0.09485766291618347,-0.10359463840723038
421,35431,35428,0.027698557823896408,-0.03648269176483154,0.9674165844917297,-0.7617285847663879,4.4219770431518555,-2.479302406311035,2.1727912425994873,4.0114641189575195,0.31021201610565186,-0.015446373261511326,-0.10138195008039474,-0.14547765254974365
422,35441,35438,-0.0184545386582613,-0.08242154866456985,1.030470371246338,-0.27665993571281433,5.766788959503174,-2.434743642807007,2.1746716499328613,4.011526107788086,0.3101699948310852,0.026460999622941017,-0.1067783460021019,-0.1726457178592682
423,35451,35448,-0.0188768208026886,-0.029347991570830345,1.009164571762085,0.10646747797727585,5.791200637817383,-2.5254406929016113,2.174760103225708,4.011145114898682,0.30951130390167236,0.04286615177989006,-0.10759355127811432,-0.20843172073364258
424,35461,35458,0.019058631733059883,-0.022207701578736305,0.9744774103164673,0.6864212155342102,4.3884124755859375,-2.4587199687957764,2.1746904850006104,4.012103080749512,0.30958113074302673,-0.03138502314686775,-0.10235011577606201,-0.1260298490524292
425,35471,35468,-0.0039039342664182186,0.07762511819601059,0.9726120829582214,0.8350400328636169,3.4388210773468018,-3.1250500679016113,2.1760365962982178,4.014016628265381,0.3095986545085907,-0.176351860165596,-0.0902474969625473,-0.11983855813741684
426,35481,35478,-0.008465101011097431,0.02914380468428135,0.9650495648384094,2.392357349395752,-2.6023807525634766,-3.3069841861724854,2.176506996154785,4.016222953796387,0.31107279658317566,-0.12052810937166214,-0.06780796498060226,-0.0748680979013443
427,35491,35488,0.04597684368491173,0.019106274470686913,0.9494830965995789,1.935081124305725,-1.4016852378845215,-3.6602067947387695,2.177194833755493,4.015368938446045,0.3110806345939636,-0.18379570543766022,-0.1935143619775772,-0.12079496681690216
428,35501,35498,0.037284210324287415,0.14610782265663147,0.9701213836669922,2.0996909141540527,-2.032954692840576,-3.3185455799102783,2.1786279678344727,4.0163044929504395,0.3110466003417969,-0.1659626066684723,-0.14792025089263916,-0.17961223423480988
429,35511,35508,0.013501864857971668,0.05422782152891159,0.960973858833313,2.1902353763580322,-1.901909351348877,-2.508985996246338,2.1794593334198,4.015959739685059,0.31099680066108704,-0.059443846344947815,-0.10139856487512589,-0.21583954989910126
430,35521,35518,0.006107186432927847,0.006644861306995153,0.9729804396629333,2.0499656200408936,-0.6356062889099121,-2.117680549621582,2.1799538135528564,4.015797138214111,0.3109419643878937,-0.12110655754804611,-0.058434825390577316,-0.25300949811935425
431,35531,35528,-0.05292670801281929,-0.013205654919147491,1.0210820436477661,1.8315421342849731,0.43475985527038574,-2.164283275604248,2.180732011795044,4.017156600952148,0.31075045466423035,-0.20303195714950562,-0.09721575677394867,-0.17805485427379608
432,35541,35538,-0.06592871993780136,-0.10065259039402008,1.013155460357666,2.7965362071990967,1.0584725141525269,-2.675612449645996,2.1802589893341064,4.017358779907227,0.31079867482185364,-0.1224898025393486,-0.04676446691155434,-0.2010146677494049
433,35551,35548,-0.0032228175550699234,-0.08568671345710754,0.9602598547935486,2.969343900680542,1.7341461181640625,-2.855257987976074,2.181774377822876,4.017533302307129,0.3124549686908722,-0.2107289582490921,-0.06383898854255676,-0.23752929270267487
434,35561,35558,-0.029624108225107193,-0.1225314512848854,1.0149788856506348,3.05051589012146,1.2923237085342407,-2.659014940261841,2.1817173957824707,4.016839027404785,0.3125251829624176,-0.12468352168798447,0.007466848939657211,-0.28608372807502747
435,35571,35568,-0.009691580198705196,-0.02637135423719883,1.0129188299179077,1.9602277278900146,1.9018372297286987,-2.0668747425079346,2.182755947113037,4.016210556030273,0.3124661445617676,-0.1962297558784485,0.06766478717327118,-0.32755160331726074
436,35581,35578,0.015111668035387993,0.03164888545870781,0.9879388809204102,2.616840362548828,0.6751429438591003,-2.053169012069702,2.1827847957611084,4.015698432922363,0.3130558133125305,-0.12043368071317673,0.1174800768494606,-0.3838842809200287
437,35591,35588,-0.0015795174986124039,0.004567344672977924,1.007184386253357,2.223471164703369,-0.31084346771240234,-1.3643494844436646,2.183265209197998,4.015078544616699,0.31309446692466736,-0.1161784827709198,0.16452984511852264,-0.4042724668979645
438,35601,35598,0.018306713551282883,0.037329141050577164,0.994784951210022,0.5483993291854858,-0.6472029685974121,-1.2054519653320312,2.183696746826172,4.014493942260742,0.31312721967697144,-0.10501628369092941,0.19408099353313446,-0.43925896286964417
439,35611,35608,0.0178784541785717,-0.025051826611161232,0.9599655270576477,-0.22106865048408508,-1.3476468324661255,-0.9859533905982971,2.184041976928711,4.0144195556640625,0.3127499222755432,-0.08833009749650955,0.20315490663051605,-0.44934356212615967
440,35621,35618,0.0010572508908808231,-0.041004639118909836,0.9698818325996399,-2.4803273677825928,-0.10659489035606384,-1.2417889833450317,2.1851327419281006,4.013949394226074,0.312691330909729,-0.15417572855949402,0.18132252991199493,-0.48404380679130554
441,35631,35628,-0.03505219519138336,0.040236905217170715,1.0157498121261597,-2.2723445892333984,0.5170029997825623,-1.3244951963424683,2.185818910598755,4.013981342315674,0.3126569092273712,-0.12973032891750336,0.1492319107055664,-0.4966447949409485
442,35641,35638,-0.007914421148598194,0.017546288669109344,0.9938710331916809,-1.7608829736709595,0.4094123840332031,-1.448804497718811,2.1861884593963623,4.013748645782471,0.31206828355789185,-0.11840961873531342,0.11878758668899536,-0.5198416113853455
443,35651,35648,-0.026224415749311447,-0.004167948383837938,0.9816698431968689,-1.177957534790039,1.8790128231048584,-1.320751667022705,2.1862897872924805,4.013841152191162,0.31202611327171326,-0.0391547866165638,0.09477269649505615,-0.526210367679596
444,35661,35658,0.018339306116104126,-0.03848019242286682,0.9630648493766785,-0.39524489641189575,3.7802281379699707,-0.9959598779678345,2.1879913806915283,4.012907981872559,0.3118737041950226,-0.14338859915733337,0.15810039639472961,-0.5631487369537354
445,35671,35668,0.04312035068869591,-0.025860602036118507,0.9666880965232849,0.6688376069068909,3.373839855194092,-1.1364295482635498,2.188406467437744,4.012877464294434,0.3117663264274597,-0.1895906776189804,0.07829350978136063,-0.5682392120361328
446,35681,35678,0.06936575472354889,-0.05733385309576988,0.923502504825592,1.439382791519165,2.4117186069488525,-0.9402392506599426,2.1889493465423584,4.012341499328613,0.31139686703681946,-0.16302132606506348,0.16584210097789764,-0.6317064166069031
447,35691,35688,0.07767482101917267,-0.03595012053847313,0.9188018441200256,1.3631244897842407,0.28828322887420654,-0.6984310746192932,2.189422607421875,4.012243270874023,0.3111782670021057,-0.2134092152118683,0.09908540546894073,-0.6431826949119568
448,35701,35698,0.06652933359146118,0.029495328664779663,0.9463250637054443,1.6334965229034424,-2.085214138031006,-0.7332597374916077,2.190753936767578,4.010898590087891,0.31083565950393677,-0.3104252517223358,0.19405315816402435,-0.6717483401298523
449,35711,35708,0.030538393184542656,-0.006664980202913284,0.9590744376182556,0.8148400783538818,-3.460279703140259,-0.6092810034751892,2.191950559616089,4.010488033294678,0.3109675645828247,-0.3512764573097229,0.2071409672498703,-0.695901095867157
450,35721,35718,-0.01934589073061943,-0.015351567417383194,1.0003092288970947,-1.1567606925964355,-3.9786550998687744,-0.5404064655303955,2.1912240982055664,4.0116963386535645,0.3107835352420807,-0.21477822959423065,0.2043134868144989,-0.643435537815094
451,35731,35728,-0.09011172503232956,-0.019250763580203056,1.0515698194503784,-1.6522257328033447,-4.163862228393555,-0.959274172782898,2.1920971870422363,4.013060569763184,0.3104950785636902,-0.16261008381843567,0.17941565811634064,-0.600235641002655
452,35741,35738,0.039499882608652115,0.02784588187932968,0.9689311981201172,-3.703000068664551,-0.36345019936561584,-1.41238534450531,2.1940255165100098,4.012959003448486,0.31069591641426086,-0.28197386860847473,0.1343889832496643,-0.6081869006156921
453,35751,35748,-0.003014572197571397,-0.06984185427427292,0.9830740094184875,-4.411019802093506,-1.1985111236572266,-1.2802445888519287,2.194709300994873,4.013951301574707,0.3104274272918701,-0.22427362203598022,0.07383446395397186,-0.5863508582115173
454,35761,35758,-0.06337802857160568,-0.019382860511541367,1.0501495599746704,-3.707895517349243,1.7562272548675537,-1.794681429862976,2.1958870887756348,4.014289855957031,0.3100920021533966,-0.1939518004655838,0.009274310432374477,-0.5993532538414001
455,35771,35768,-0.01570860669016838,0.01098476629704237,1.0255954265594482,-2.452300548553467,0.5750856995582581,-1.6939860582351685,2.1977341175079346,4.015070915222168,0.30973559617996216,-0.26944661140441895,0.030400853604078293,-0.5453351140022278
456,35781,35778,0.09586306661367416,0.09184006601572037,0.9830694198608398,-0.11790032684803009,0.7340918779373169,-1.9751793146133423,2.1979856491088867,4.015340805053711,0.3092978596687317,-0.1780564785003662,-0.007269461173564196,-0.4988900125026703
457,35791,35788,0.10317520797252655,0.13501814007759094,1.0067062377929688,1.782824993133545,-0.1475633680820465,-2.352466106414795,2.199085235595703,4.015834331512451,0.30901697278022766,-0.24921877682209015,-0.00946959387511015,-0.5569816827774048
458,35801,35798,0.01441004779189825,0.0010803805198520422,1.0164902210235596,3.068143844604492,-1.4545553922653198,-1.6152085065841675,2.2001559734344482,4.015559196472168,0.308705598115921,-0.22346681356430054,0.02047874592244625,-0.5775673985481262
459,35811,35808,-0.007391474209725857,-0.005161012522876263,1.0204191207885742,2.9358808994293213,-2.096892833709717,-1.2763265371322632,2.1998746395111084,4.015994548797607,0.3097780644893646,-0.10588463395833969,-0.010043495334684849,-0.5952533483505249
460,35821,35818,-0.010719694197177887,-0.03442011773586273,0.9997562766075134,1.5213440656661987,-2.743746042251587,-1.418540358543396,2.2019057273864746,4.016500949859619,0.30951446294784546,-0.21036933362483978,-0.0362558476626873,-0.611503541469574
461,35831,35828,-0.038882676512002945,-0.04263133928179741,1.0067474842071533,0.5060281157493591,-2.4693586826324463,-1.3420311212539673,2.20261549949646,4.014967918395996,0.30945417284965515,-0.1401309072971344,0.1481904238462448,-0.6295842528343201
462,35841,35838,-0.04881700500845909,-0.1102750301361084,0.9676568508148193,-0.6637148857116699,-0.3637393116950989,-1.1580913066864014,2.203260898590088,4.014992713928223,0.3081895709037781,-0.0801309272646904,0.14267407357692719,-0.6439090371131897
463,35851,35848,-0.020035933703184128,-0.038043100386857986,0.9754749536514282,-0.9712325930595398,-0.1517295390367508,-1.177666425704956,2.203970432281494,4.014586925506592,0.3079677224159241,-0.043957989662885666,0.12653757631778717,-0.6804009079933167
464,35861,35858,0.0006679880898445845,-0.045442212373018265,1.0057387351989746,-2.3830888271331787,1.1108765602111816,-1.1284345388412476,2.2054660320281982,4.014169692993164,0.3076399862766266,-0.11552003771066666,0.16848988831043243,-0.684135377407074
465,35871,35868,0.04091167077422142,-0.038448791950941086,1.0089267492294312,-3.6070194244384766,3.0075557231903076,-0.8053528070449829,2.2067039012908936,4.01570463180542,0.3074233829975128,-0.13455043733119965,0.027753256261348724,-0.6630015969276428
466,35881,35878,0.002531245816498995,0.017285052686929703,1.0866564512252808,-3.16766095161438,0.4277201294898987,-1.2676464319229126,2.2066986560821533,4.017712116241455,0.30607205629348755,-0.1345430612564087,-0.026354653760790825,-0.5681178569793701
467,35891,35888,0.02017378993332386,-0.011994772590696812,1.0460175275802612,-2.9177675247192383,0.61036217212677,-1.327070951461792,2.206458806991577,4.016149044036865,0.305836021900177,-0.06402593851089478,-0.08288290351629257,-0.6624846458435059
468,35901,35898,0.00868175644427538,-0.001825519371777773,1.006562352180481,-0.9614235162734985,-1.009960412979126,-0.7708041071891785,2.208936929702759,4.018276691436768,0.3054615259170532,-0.28201431035995483,-0.04241309314966202,-0.5525545477867126
469,35911,35908,-0.013925104402005672,0.007917091250419617,1.009943962097168,1.9939333200454712,-0.48147615790367126,-1.224919319152832,2.2092559337615967,4.0176568031311035,0.30620747804641724,-0.21700923144817352,-0.04442039504647255,-0.49707964062690735
470,35921,35918,0.011816251091659069,0.016368312761187553,1.014097809791565,3.838569164276123,-4.75667142868042,-1.7674298286437988,2.20973539352417,4.018968105316162,0.30609554052352905,-0.08169474452733994,-0.009351769462227821,-0.48291537165641785
471,35931,35928,-0.024835024029016495,0.00953819788992405,1.0252948999404907,3.7769622802734375,-4.576309680938721,-1.664321780204773,2.209902286529541,4.018908977508545,0.30614691972732544,-0.14927531778812408,0.04639357700943947,-0.450274795293808
472,35941,35938,-0.08142443001270294,-0.00013353124086279422,1.0704783201217651,2.18857741355896,-2.3871209621429443,-1.440429925918579,2.2118072509765625,4.019559383392334,0.30670416355133057,0.016262026503682137,0.09190231561660767,-0.47250279784202576
473,35951,35948,0.0011063686106353998,-0.0011928994208574295,1.0261590480804443,0.17538022994995117,-0.8431478142738342,-1.4146848917007446,2.2112534046173096,4.0221757888793945,0.3068118989467621,0.05445094034075737,0.10900645703077316,-0.35607171058654785
474,35961,35958,-0.04050785303115845,-0.05194360762834549,1.0393701791763306,-1.8005194664001465,-0.10704006254673004,-2.612368106842041,2.2116048336029053,4.021470546722412,0.3068821430206299,-0.08465830236673355,0.09355797618627548,-0.38090580701828003
475,35971,35968,-0.08478711545467377,-0.05882219970226288,1.0545111894607544,-2.4414288997650146,-0.20065397024154663,-2.1576755046844482,2.2130911350250244,4.0235443115234375,0.3055475652217865,0.0055122352205216885,0.05513061583042145,-0.2908376157283783
476,35981,35978,-0.09120448678731918,-0.028985334560275078,1.063240647315979,-2.957948923110962,-0.8756415843963623,-2.632286548614502,2.213257312774658,4.023404121398926,0.305685430765152,0.02664639987051487,0.010041727684438229,-0.27254679799079895
