,timestamp_start,timestamp_end,acc.x,acc.y,acc.z,gyro.x,gyro.y,gyro.z,stateEstimate.x,stateEstimate.y,stateEstimate.z,stabilizer.pitch,stabilizer.roll,stabilizer.yaw
0,45175,45164,-0.01411946676671505,-0.04392224922776222,0.9756761789321899,-3.378767728805542,5.121416091918945,-0.5463243722915649,1.7860652208328247,3.8388233184814453,0.17573179304599762,0.7058327198028564,-0.6142600774765015,2.733971357345581
1,45185,45174,0.027198070660233498,0.08444546163082123,1.0598407983779907,-1.4783704280853271,5.156754016876221,-1.2824161052703857,1.7899974584579468,3.8434407711029053,0.1777903288602829,0.6752222776412964,-0.6548970341682434,2.7281432151794434
2,45195,45184,0.02951415441930294,0.04321974143385887,1.0465977191925049,0.8656549453735352,2.316969633102417,-1.442900538444519,1.7905960083007812,3.845336437225342,0.17993061244487762,0.7172492742538452,-0.6590924859046936,2.716305732727051
3,45205,45194,-0.005965607240796089,-0.030727067962288857,1.016173243522644,4.8051228523254395,-2.1945245265960693,-1.5603727102279663,1.792191505432129,3.8471107482910156,0.18234634399414062,0.8811045289039612,-0.6163443326950073,2.6863653659820557
4,45215,45204,0.0299124326556921,-0.03713233023881912,0.9996271729469299,7.932060241699219,-11.407983779907227,-0.5533736944198608,1.7930517196655273,3.8481338024139404,0.18510830402374268,1.0938526391983032,-0.43833863735198975,2.6377344131469727
5,45225,45214,-0.03061109222471714,0.07221928238868713,1.0374422073364258,9.75733470916748,-11.697535514831543,-0.7908016443252563,1.7929226160049438,3.8476741313934326,0.18757210671901703,1.2906420230865479,-0.0907360389828682,2.5792787075042725
6,45235,45224,0.03774695843458176,-0.14609621465206146,1.0034234523773193,7.687992572784424,-6.138240337371826,-0.9382120370864868,1.7929902076721191,3.845827579498291,0.18969687819480896,1.468193769454956,-0.20007970929145813,2.6003432273864746
7,45245,45234,-0.015863340348005295,-0.060921844094991684,1.0320966243743896,1.7015517950057983,0.2883409559726715,-1.542611837387085,1.792482614517212,3.8467018604278564,0.19054816663265228,1.555716633796692,-0.1116115152835846,2.5860133171081543
8,45255,45244,0.007647717837244272,-0.061093538999557495,0.9837894439697266,-2.913841962814331,6.602816581726074,-1.9550343751907349,1.7921475172042847,3.8469033241271973,0.1927112638950348,1.5369038581848145,0.10159499943256378,2.5343260765075684
9,45265,45254,-0.013828212395310402,-0.04142257571220398,1.0149306058883667,-5.924453258514404,11.05948257446289,-1.4265886545181274,1.793205738067627,3.8459341526031494,0.1948828101158142,1.5517191886901855,0.007541328202933073,2.525628089904785
10,45275,45264,0.03780125081539154,-0.06659997999668121,1.0165187120437622,-7.568757057189941,15.856407165527344,-2.519247531890869,1.7925301790237427,3.846137046813965,0.1959933042526245,1.6050442457199097,-0.7885406017303467,2.6570935249328613
11,45285,45274,0.05238545686006546,-0.08752751350402832,1.0282695293426514,-7.081405162811279,16.905723571777344,-3.4973065853118896,1.7925779819488525,3.8516972064971924,0.19843728840351105,1.144201397895813,0.23969905078411102,2.414335250854492
12,45295,45284,0.0002675544819794595,-0.02667086385190487,0.9763953685760498,-1.7425569295883179,20.768957138061523,-4.042021751403809,1.7951874732971191,3.8446080684661865,0.20490677654743195,0.8644002676010132,-0.7114404439926147,2.552536964416504
13,45305,45294,0.002675345167517662,-0.06539907306432724,0.9982165098190308,-1.1045111417770386,21.241113662719727,-4.014204025268555,1.7961010932922363,3.8510656356811523,0.2064393311738968,1.990788459777832,-1.1234928369522095,2.5543270111083984
14,45315,45304,0.04574326425790787,0.06848280876874924,0.9592434167861938,4.378130912780762,11.48183536529541,-4.06475830078125,1.7860161066055298,3.8538787364959717,0.20870476961135864,1.5429054498672485,-1.01715087890625,2.501951217651367
15,45325,45314,0.07959216833114624,-0.010133979842066765,0.9235995411872864,11.281825065612793,14.091645240783691,-3.260265588760376,1.7862797975540161,3.854130744934082,0.21311546862125397,1.4203252792358398,-0.7606036067008972,2.419800281524658
16,45335,45324,-0.015200024470686913,0.022379377856850624,1.006258249282837,17.374277114868164,18.667484283447266,-2.536919116973877,1.7843654155731201,3.855532169342041,0.2162189781665802,1.094559669494629,-0.5567357540130615,2.3819289207458496
17,45345,45334,0.010168717242777348,-0.03513602167367935,0.9673360586166382,20.23885726928711,22.468568801879883,-2.026510000228882,1.7844393253326416,3.856539011001587,0.21681129932403564,0.6925721764564514,-0.2050212025642395,2.343221664428711
18,45355,45344,0.08418387174606323,-0.01580943912267685,0.9688657522201538,19.627531051635742,24.133806228637695,-1.2546910047531128,1.7864089012145996,3.8568856716156006,0.2196207493543625,0.5077852606773376,0.08741547167301178,2.3063430786132812
19,45365,45354,0.021615074947476387,0.1160634309053421,0.9373518824577332,15.078158378601074,22.368738174438477,-1.662947416305542,1.7852171659469604,3.8572871685028076,0.2218928337097168,0.2835317850112915,0.1915629506111145,2.30614972114563
20,45375,45364,-0.02924572303891182,0.10324227809906006,0.9777779579162598,8.168811798095703,20.95644187927246,-1.3941271305084229,1.7835568189620972,3.857233762741089,0.2205093652009964,-0.05801192671060562,0.4379848837852478,2.283576011657715
21,45385,45374,-0.04947715997695923,0.11632373929023743,0.9929409027099609,2.2850639820098877,16.725004196166992,-1.767390489578247,1.7846750020980835,3.8576178550720215,0.222509503364563,-0.3421865403652191,0.48640745878219604,2.2739555835723877
22,45395,45384,0.019458487629890442,-0.013069625943899155,0.9580736756324768,-4.376950740814209,9.972097396850586,-2.026474952697754,1.783645510673523,3.8586442470550537,0.22452102601528168,-0.5393006801605225,0.5098657011985779,2.2575721740722656
23,45405,45394,0.024636508896946907,-0.023938065394759178,0.9527455568313599,-8.071168899536133,4.050118446350098,-1.8614310026168823,1.7838066816329956,3.860581636428833,0.22561411559581757,-0.5451984405517578,0.43298840522766113,2.2403197288513184
24,45415,45404,0.013946129940450191,0.03288378566503525,0.9834967255592346,-8.886322021484375,-0.45131716132164,-1.6735467910766602,1.7825759649276733,3.861478328704834,0.22746813297271729,-0.6863716244697571,0.4610823094844818,2.219329833984375
25,45425,45414,0.03184140846133232,-0.022016912698745728,0.9473652243614197,-7.762587547302246,-1.384324073791504,-2.101393461227417,1.7844737768173218,3.861915349960327,0.22920186817646027,-0.5985183119773865,0.46917393803596497,2.210197925567627
26,45435,45424,-0.006611162330955267,0.06302018463611603,0.9601559638977051,-5.651492118835449,-2.106839418411255,-1.6414343118667603,1.7830978631973267,3.8602466583251953,0.2309301346540451,-0.5627716183662415,0.34131747484207153,2.190354585647583
27,45445,45434,-0.03491337224841118,0.1670655757188797,0.9377474784851074,-2.8246726989746094,-1.3062421083450317,-1.5263150930404663,1.7826358079910278,3.8604423999786377,0.23234450817108154,-0.6032789945602417,0.33187341690063477,2.1753501892089844
28,45455,45444,0.007967718876898289,0.048926252871751785,0.9227994680404663,-0.18070687353610992,2.057595729827881,-1.4665106534957886,1.7827192544937134,3.860501527786255,0.2339877188205719,-0.6664829850196838,0.3565496802330017,2.16079044342041
29,45465,45454,0.015902306884527206,-0.018057486042380333,0.9708404541015625,0.9758614897727966,5.955694675445557,-1.345573902130127,1.7828625440597534,3.8593249320983887,0.23555898666381836,-0.7747591733932495,0.34235644340515137,2.139824628829956
30,45475,45464,-0.003614220069721341,8.2393191405572e-05,0.9856975078582764,1.06572425365448,6.483569622039795,-1.1431217193603516,1.782726764678955,3.85935640335083,0.23760955035686493,-0.728553831577301,0.4857058823108673,2.150038719177246
31,45485,45474,0.089755117893219,-0.004507659003138542,0.9376450777053833,-0.2549360394477844,6.17887020111084,-1.040892243385315,1.7823169231414795,3.8579022884368896,0.23913373053073883,-0.8307393789291382,0.4620833992958069,2.1320550441741943
32,45495,45484,0.026822499930858612,0.016184641048312187,0.9747657179832458,-4.539304256439209,4.3318772315979,-1.0744413137435913,1.7819056510925293,3.8576912879943848,0.24065682291984558,-0.9601081013679504,0.5596534013748169,2.1297762393951416
33,45505,45494,-0.01720011979341507,0.02099968120455742,0.9827165603637695,-7.5296220779418945,1.67220139503479,-0.9265460968017578,1.7815755605697632,3.8569021224975586,0.24268387258052826,-0.8527909517288208,0.49842607975006104,2.1313068866729736
34,45515,45504,0.013420659117400646,0.006823115050792694,0.9785413146018982,-11.036537170410156,-2.6463515758514404,-1.0193969011306763,1.7804346084594727,3.8570477962493896,0.24422067403793335,-0.922946572303772,0.3094707131385803,2.1006510257720947
35,45525,45514,0.010833795182406902,-0.04017828032374382,0.960804283618927,-13.15005874633789,-3.820192337036133,-0.6494049429893494,1.7812293767929077,3.8591256141662598,0.24576492607593536,-0.9295076131820679,0.30551326274871826,2.108166217803955
36,45535,45524,0.0077157411724328995,0.04160647466778755,0.9763909578323364,-12.04477310180664,-4.832719326019287,-0.8876932263374329,1.7822155952453613,3.857780933380127,0.24644026160240173,-0.9081227779388428,0.19196245074272156,2.102036476135254
37,45545,45534,0.003470251802355051,0.04645907133817673,0.9796671867370605,-10.559548377990723,-6.901432991027832,-1.5221713781356812,1.7814313173294067,3.8567988872528076,0.24780622124671936,-0.8673222064971924,0.09558142721652985,2.097153902053833
38,45555,45544,-0.0332360677421093,-0.014045470394194126,0.9781132340431213,-8.314769744873047,-7.635100841522217,-1.7440558671951294,1.7814961671829224,3.8572018146514893,0.24913427233695984,-0.8041514158248901,0.01933836005628109,2.0898120403289795
39,45565,45554,-0.09913693368434906,-0.008088652044534683,0.9654268622398376,-6.191460132598877,-5.883164882659912,-0.753879725933075,1.782275915145874,3.8563740253448486,0.25044941902160645,-0.8168963193893433,-0.020131027325987816,2.0790889263153076
40,45575,45564,-0.07564419507980347,0.01155835296958685,0.9779284000396729,-4.678869247436523,-2.2196407318115234,-0.87104332447052,1.7826943397521973,3.856001377105713,0.24914240837097168,-0.775300920009613,-0.02980729751288891,2.0811686515808105
41,45585,45574,-0.02959347516298294,-0.015275147743523121,0.9755253791809082,-4.574535846710205,-3.7875537872314453,-0.7112587690353394,1.783535122871399,3.855569362640381,0.2502121925354004,-0.7683157324790955,-0.1016518697142601,2.066594362258911
42,45595,45584,0.0021854802034795284,-0.00019339141726959497,0.9729672074317932,-5.513891220092773,-0.6422756910324097,-1.1268882751464844,1.783529281616211,3.8551645278930664,0.2513260841369629,-0.8330312967300415,-0.17082592844963074,2.049722194671631
43,45605,45594,-0.01764395646750927,0.062474414706230164,1.0163207054138184,-6.036922454833984,-2.4409728050231934,-0.8208861351013184,1.7841535806655884,3.855591297149658,0.2501460015773773,-0.8264517188072205,-0.18003042042255402,2.0478317737579346
44,45615,45604,0.0034150592982769012,-0.03599105030298233,0.9593356251716614,-6.416093349456787,-4.14178991317749,-1.215009331703186,1.783747911453247,3.855966567993164,0.25106561183929443,-0.722946047782898,-0.27987542748451233,2.0333805084228516
45,45625,45614,-0.020021459087729454,-0.02533862181007862,0.9977337121963501,-7.549796104431152,-5.289853572845459,-1.1395761966705322,1.7826131582260132,3.85581111907959,0.2520501911640167,-0.6732755303382874,-0.3820347487926483,2.0171735286712646
46,45635,45624,-0.01484268344938755,0.014371485449373722,0.9909613132476807,-7.398244857788086,-6.377602577209473,-1.067036747932434,1.7826521396636963,3.8550398349761963,0.25498875975608826,-0.5968453288078308,-0.5605401992797852,1.9891655445098877
47,45645,45634,-0.009632492437958717,0.001697229570709169,0.9609929323196411,-6.228600978851318,-7.815997123718262,-0.19297651946544647,1.7820414304733276,3.8551206588745117,0.25604477524757385,-0.5785990357398987,-0.4986112415790558,2.002615213394165
48,45655,45644,0.026736928150057793,-0.09380602091550827,0.9388737082481384,-3.4061336517333984,-5.308111190795898,-1.053236961364746,1.7821208238601685,3.853537082672119,0.25707560777664185,-0.47419416904449463,-0.6449572443962097,1.983630657196045
49,45665,45654,-0.017781894654035568,-0.07554139196872711,1.0271908044815063,-1.1865181922912598,-7.26937198638916,-0.00780834536999464,1.7818670272827148,3.85455060005188,0.2580801546573639,-0.6113360524177551,-0.7362997531890869,1.9672484397888184
50,45675,45664,0.047562599182128906,-0.07513652741909027,0.9785380959510803,0.08088492602109909,-5.37691068649292,-0.6794715523719788,1.7834810018539429,3.8550426959991455,0.2611197829246521,-0.49925532937049866,-0.6491970419883728,1.9758342504501343
51,45685,45674,0.04614026099443436,-0.114780493080616,1.0288410186767578,0.9767149686813354,-6.194108009338379,-0.6805517673492432,1.7841649055480957,3.8545632362365723,0.2622477114200592,-0.3970054090023041,-0.690928041934967,1.9615389108657837
52,45695,45684,0.01440468244254589,-0.054987773299217224,0.9969961047172546,1.1309877634048462,-5.873826026916504,-0.5409165024757385,1.7836871147155762,3.854508876800537,0.26335617899894714,-0.3659849464893341,-0.570768415927887,1.972027063369751
53,45705,45694,0.006763774435967207,-0.019501909613609314,0.9934691190719604,0.07200386375188828,-3.4267919063568115,-0.8240729570388794,1.784578800201416,3.853989362716675,0.26531487703323364,-0.2518567740917206,-0.5990797877311707,1.9588147401809692
54,45715,45704,0.019033193588256836,0.022383391857147217,1.0216666460037231,-0.7397066354751587,-6.1640167236328125,-0.6530401110649109,1.784069299697876,3.853858232498169,0.2664881944656372,-0.15813156962394714,-0.6413712501525879,1.9446736574172974
55,45725,45714,0.05732438713312149,-0.027340030297636986,0.9874535799026489,-2.2311501502990723,-5.451645374298096,-0.6186256408691406,1.782889723777771,3.8551673889160156,0.26767730712890625,-0.05365866422653198,-0.701772153377533,1.9276585578918457
56,45735,45724,0.007449097465723753,-0.022228840738534927,0.9793431758880615,-2.2476236820220947,-5.144392013549805,-0.901506245136261,1.7824510335922241,3.8558449745178223,0.26896142959594727,-0.038701727986335754,-0.7695428133010864,1.9193845987319946
57,45745,45734,-0.016171259805560112,-0.04747019708156586,0.9941844344139099,-1.2201554775238037,-1.0791833400726318,-1.4427502155303955,1.7824106216430664,3.855990409851074,0.27023231983184814,0.024275360628962517,-0.8304479122161865,1.906589388847351
58,45755,45744,-0.0017824223032221198,-0.05069827288389206,0.9798142910003662,-0.37713009119033813,2.923924207687378,-1.7014790773391724,1.7815173864364624,3.8567564487457275,0.27137207984924316,0.04533526301383972,-0.8671460151672363,1.8919404745101929
59,45765,45754,0.0544576495885849,0.011695734225213528,0.9644598364830017,2.2472074031829834,3.7870969772338867,-1.547719955444336,1.7807797193527222,3.8575809001922607,0.2724762558937073,-0.03689119592308998,-0.7290323972702026,1.8937957286834717
60,45775,45764,0.07339073717594147,0.07020818442106247,0.9551541805267334,4.811960697174072,-2.1034083366394043,-1.3361635208129883,1.7814743518829346,3.857257604598999,0.27345341444015503,-0.06007824093103409,-0.6977600455284119,1.87848699092865
61,45785,45774,0.05438999459147453,0.021110743284225464,0.9461648464202881,5.863404273986816,-0.3486592769622803,-1.4589102268218994,1.7811557054519653,3.8570048809051514,0.27446526288986206,-0.027285579591989517,-0.6352312564849854,1.8633267879486084
62,45795,45784,-0.07314076274633408,-0.027566121891140938,1.0063308477401733,4.3251423835754395,-0.742613673210144,-1.3811798095703125,1.7807568311691284,3.857543706893921,0.27549034357070923,-0.010253861546516418,-0.5010629892349243,1.8531975746154785
63,45805,45794,-0.02370425872504711,-0.043307825922966,0.9586285352706909,2.5363805294036865,-2.564298152923584,-1.8096216917037964,1.7801587581634521,3.857189893722534,0.2741234302520752,0.018707579001784325,-0.4731703996658325,1.8363423347473145
64,45815,45804,-0.0029778711032122374,-0.02443653531372547,0.9827075004577637,-0.0377376563847065,-2.4302163124084473,-1.5160737037658691,1.7798837423324585,3.8569440841674805,0.2749525010585785,-0.01055071596056223,-0.477099746465683,1.8224796056747437
65,45825,45814,-0.044880274683237076,-0.03923509642481804,0.9829593896865845,-2.747192144393921,-1.292741298675537,-1.8965295553207397,1.781277060508728,3.857895851135254,0.2757631838321686,-0.026676464825868607,-0.5187395215034485,1.8092540502548218
66,45835,45824,-0.010327651165425777,-0.15063700079917908,0.9704527854919434,-3.614973306655884,-4.019750595092773,-1.8627759218215942,1.782551646232605,3.8587121963500977,0.2770879566669464,0.023125996813178062,-0.5212473273277283,1.792949914932251
67,45845,45834,-0.02076680399477482,0.14683492481708527,0.9936070442199707,-3.6690070629119873,-1.7999762296676636,-1.9861592054367065,1.783676266670227,3.860430955886841,0.27789080142974854,-0.04971030354499817,-0.605595588684082,1.782046914100647
68,45855,45844,0.037945982068777084,0.03726555034518242,0.9695514440536499,-1.3270663022994995,-6.025275707244873,-2.092373847961426,1.7845146656036377,3.8612401485443115,0.27869200706481934,-0.03766019269824028,-0.6709731221199036,1.7612721920013428
69,45865,45854,0.04622107744216919,0.0066124736331403255,0.9521609544754028,-0.603790819644928,-6.356707572937012,-1.8843399286270142,1.7849360704421997,3.861424207687378,0.2806542217731476,0.08520594984292984,-0.7074906229972839,1.7371747493743896
70,45875,45864,-7.012478454271331e-05,0.003108158940449357,0.9824825525283813,1.376194715499878,-5.293385982513428,-2.110950469970703,1.784085750579834,3.862245798110962,0.28148239850997925,0.23547273874282837,-0.632992148399353,1.715814471244812
71,45885,45874,-0.09668373316526413,0.0034857497084885836,0.9764237999916077,3.8627519607543945,-5.39670991897583,-0.7121801972389221,1.7835519313812256,3.86177921295166,0.28229016065597534,0.2664991319179535,-0.6058184504508972,1.7019374370574951
72,45895,45884,-0.06556132435798645,-0.04175771772861481,0.9693069458007812,4.136306285858154,-4.986545562744141,-0.605273425579071,1.7835363149642944,3.8616881370544434,0.283072292804718,0.3688420355319977,-0.4833337664604187,1.6913832426071167
73,45905,45894,-0.040613774210214615,0.1046229898929596,0.9881054759025574,3.975445032119751,-1.424094557762146,-0.3845686912536621,1.7826558351516724,3.861111879348755,0.2837640345096588,0.43193694949150085,-0.44173285365104675,1.68485426902771
74,45915,45904,-0.02199377864599228,0.07053549587726593,0.9904244542121887,2.7642486095428467,0.4161170423030853,0.13384641706943512,1.7825276851654053,3.860323190689087,0.28447654843330383,0.44243183732032776,-0.40509966015815735,1.6834423542022705
75,45925,45914,0.00844843965023756,-0.05053504556417465,0.9605370759963989,0.9931991100311279,2.0339059829711914,-0.039465297013521194,1.7818033695220947,3.8609092235565186,0.2851763963699341,0.42263737320899963,-0.39143526554107666,1.687534213066101
76,45935,45924,0.003232141025364399,0.0008622598252259195,1.0010895729064941,-0.02227574959397316,2.3056480884552,-0.5544251203536987,1.781682014465332,3.8613860607147217,0.2844259440898895,0.3860935866832733,-0.40420082211494446,1.6852903366088867
77,45945,45934,-0.0033941431902348995,-0.006767170503735542,0.9892252683639526,-1.6606634855270386,2.368926525115967,-0.5598800778388977,1.7825443744659424,3.8627166748046875,0.2849898338317871,0.3432029187679291,-0.5091971158981323,1.683703064918518
78,45955,45944,0.012255435809493065,-0.0002146657498087734,0.9868081212043762,-1.919901967048645,1.5443891286849976,-0.7235104441642761,1.7824031114578247,3.863550901412964,0.28555557131767273,0.3156689405441284,-0.5452451109886169,1.677642822265625
79,45965,45954,0.032991476356983185,-0.04657108336687088,0.9545409679412842,-0.849905252456665,0.19008997082710266,-0.8865702748298645,1.782293677330017,3.8633084297180176,0.28432759642601013,0.3011406660079956,-0.4939362406730652,1.668959140777588
80,45975,45964,-0.023665711283683777,-0.004405223298817873,1.0176575183868408,0.9881120324134827,-1.0727119445800781,-1.03314208984375,1.7821037769317627,3.863856315612793,0.2847400903701782,0.3113396167755127,-0.5078117847442627,1.6596473455429077
81,45985,45974,-0.0001449496194254607,-0.011704870499670506,0.9935017228126526,3.2341954708099365,-1.5065501928329468,-0.8336819410324097,1.781246542930603,3.8642356395721436,0.28511515259742737,0.33833417296409607,-0.48024865984916687,1.6502052545547485
82,45995,45984,0.0405425950884819,-0.03163938224315643,0.9805105328559875,4.874231338500977,-1.0347585678100586,-0.8902942538261414,1.7812916040420532,3.8646836280822754,0.28550291061401367,0.37452322244644165,-0.4204902648925781,1.641114592552185
83,46005,45994,-0.011338159441947937,-0.027783667668700218,1.0047458410263062,6.816129207611084,-4.086228370666504,-0.33693385124206543,1.7804523706436157,3.864318370819092,0.2856981158256531,0.39626774191856384,-0.3343266546726227,1.6325637102127075
84,46015,46004,-0.002766427816823125,-0.08581048250198364,0.9548443555831909,5.138965606689453,-1.577520728111267,-0.6731245517730713,1.780124306678772,3.863872528076172,0.286039263010025,0.41585806012153625,-0.32405197620391846,1.6400505304336548
85,46025,46014,-0.0801020935177803,0.01947799138724804,0.9987115859985352,1.7280272245407104,1.3942912817001343,-0.42387694120407104,1.7813013792037964,3.8652713298797607,0.2863274812698364,0.40571120381355286,-0.26682475209236145,1.6347312927246094
86,46035,46024,-0.06542984396219254,0.042817454785108566,0.9908703565597534,-0.18015575408935547,2.1042778491973877,-0.013981865718960762,1.7812347412109375,3.8662028312683105,0.2865721583366394,0.3606891632080078,-0.2563196122646332,1.6287648677825928
87,46045,46034,-0.04510802775621414,0.12945879995822906,0.9733282327651978,-2.432180404663086,2.5612077713012695,-0.5495367050170898,1.7818857431411743,3.867953062057495,0.2869563102722168,0.316564679145813,-0.28161826729774475,1.62483811378479
88,46055,46044,0.017131906002759933,-0.09295035153627396,1.0333893299102783,-1.6563305854797363,2.5689964294433594,-0.8345187306404114,1.7819020748138428,3.8689329624176025,0.2872939109802246,0.2714279890060425,-0.3177582919597626,1.6200376749038696
89,46065,46054,0.010527015663683414,-0.11647514998912811,1.0002511739730835,-0.6808480024337769,2.5194342136383057,-0.9892486333847046,1.7818286418914795,3.8691306114196777,0.2868373990058899,0.2019091099500656,-0.339281290769577,1.6096727848052979
90,46075,46064,0.0198393315076828,0.07402515411376953,1.0116268396377563,2.1079013347625732,0.16982465982437134,-1.1342639923095703,1.781636357307434,3.8694381713867188,0.28711795806884766,0.1603870540857315,-0.33101686835289,1.5987472534179688
91,46085,46074,0.03753430396318436,0.040264107286930084,1.020825743675232,3.572667360305786,-0.7312573790550232,-0.6610891819000244,1.7823190689086914,3.8695931434631348,0.28744959831237793,0.17113837599754333,-0.2018129974603653,1.583701729774475
92,46095,46084,-0.009922437369823456,0.004461531061679125,1.0217634439468384,3.322706699371338,1.1653157472610474,0.3589727282524109,1.7828514575958252,3.869478225708008,0.28775519132614136,0.17976318299770355,-0.22047209739685059,1.584394931793213
93,46105,46094,0.026692956686019897,-0.043447013944387436,0.9492723345756531,2.4658501148223877,0.2064419835805893,0.4382309317588806,1.783238410949707,3.869361400604248,0.2896401584148407,0.19281119108200073,-0.3188689649105072,1.5927433967590332
94,46115,46104,0.09941574931144714,-0.028246555477380753,1.0120737552642822,1.6463208198547363,3.2847676277160645,0.6953030824661255,1.7849725484848022,3.872938871383667,0.2900722324848175,0.1899057924747467,-0.26891982555389404,1.595644474029541
95,46125,46114,0.04602405056357384,-0.19727271795272827,1.0293818712234497,2.8734705448150635,7.519470691680908,0.5314604640007019,1.7854430675506592,3.8752918243408203,0.2904931902885437,0.16755633056163788,-0.22736334800720215,1.6004759073257446
96,46135,46124,-0.013555070385336876,-0.033044058829545975,1.0446351766586304,3.123011589050293,17.40622329711914,0.245920330286026,1.7854995727539062,3.87524676322937,0.29145923256874084,-0.05533596873283386,-0.17297793924808502,1.6043064594268799
97,46145,46134,0.0314115546643734,-0.12598539888858795,0.9673213958740234,3.2486424446105957,20.985301971435547,0.4234189987182617,1.7858023643493652,3.8753795623779297,0.2919447422027588,-0.383796364068985,-0.10871774703264236,1.6063737869262695
98,46155,46144,-0.04413633421063423,0.03626694157719612,1.0723514556884766,3.699070453643799,22.41676139831543,0.09182906150817871,1.7866953611373901,3.8752760887145996,0.29238632321357727,-0.5146638751029968,-0.34415414929389954,1.6128125190734863
99,46165,46154,0.012287801131606102,-0.06468820571899414,0.9832865595817566,3.924941062927246,19.776216506958008,-0.1120944693684578,1.7856436967849731,3.877957582473755,0.2941983640193939,-0.8345330357551575,-0.17359967529773712,1.612070083618164
100,46175,46164,-0.023086445406079292,0.0152791328728199,0.9926517009735107,4.811001300811768,15.24379825592041,0.20337173342704773,1.786729335784912,3.8779232501983643,0.2948141396045685,-0.733289361000061,-0.08088771253824234,1.611708164215088
101,46185,46174,0.0016881056362763047,-0.03484291210770607,0.9812521934509277,5.629072666168213,8.528884887695312,0.4988260567188263,1.7842150926589966,3.877124309539795,0.29570209980010986,-0.9355202913284302,-0.05575009807944298,1.613031029701233
102,46195,46184,0.016463931649923325,0.02748473361134529,1.0168259143829346,5.776640892028809,4.83348274230957,-0.5343788266181946,1.7846448421478271,3.8787524700164795,0.2978808283805847,-0.9666082262992859,0.056135762482881546,1.6180840730667114
103,46205,46194,0.037017643451690674,0.038362618535757065,1.0103482007980347,5.314342021942139,1.8071366548538208,-0.22102847695350647,1.7849292755126953,3.8794047832489014,0.2986195981502533,-1.0289795398712158,0.02148512192070484,1.6077357530593872
104,46215,46204,0.015033920295536518,-0.09926825016736984,1.0030994415283203,4.054558753967285,1.2708827257156372,-0.7749022245407104,1.7855266332626343,3.8807454109191895,0.29930853843688965,-1.0384385585784912,0.11693300306797028,1.6062610149383545
105,46225,46214,-0.005738245788961649,0.03778312727808952,1.0391733646392822,4.0736308097839355,0.6525640487670898,-1.4105861186981201,1.7865571975708008,3.880500316619873,0.30004629492759705,-1.0414633750915527,0.20020131766796112,1.601922869682312
106,46235,46224,-0.012924988754093647,0.06972845643758774,1.042080044746399,3.206357479095459,3.4237680435180664,-1.6889336109161377,1.7866215705871582,3.8797457218170166,0.30180707573890686,-1.0648294687271118,0.2696138620376587,1.5973174571990967
107,46245,46234,-0.05968007445335388,0.0649961531162262,0.9970411062240601,1.4076669216156006,4.813252925872803,-0.883149266242981,1.7878755331039429,3.880730390548706,0.30259811878204346,-1.122170090675354,0.3167268633842468,1.5852645635604858
108,46255,46244,-0.0553133524954319,0.05628901347517967,0.9653000235557556,-0.1575779765844345,6.458442211151123,-1.213461995124817,1.7881653308868408,3.8815460205078125,0.3034195005893707,-1.2021690607070923,0.4057857394218445,1.58416748046875
109,46265,46254,0.010428098030388355,-0.053336966782808304,1.0002613067626953,-2.676644802093506,9.321748733520508,-1.9114259481430054,1.7891521453857422,3.8810455799102783,0.3022935688495636,-1.228988528251648,0.3814730644226074,1.5704470872879028
110,46275,46264,0.03906022012233734,-0.050603628158569336,0.9592987298965454,-3.018876552581787,7.45370626449585,-1.8823753595352173,1.788609266281128,3.880861759185791,0.30300143361091614,-1.3331754207611084,0.3334389328956604,1.5479240417480469
111,46285,46274,-0.017484160140156746,0.049843281507492065,1.0044053792953491,-3.347883939743042,6.055263996124268,-1.8889495134353638,1.7892706394195557,3.880831241607666,0.30366653203964233,-1.4202388525009155,0.35069572925567627,1.5400229692459106
112,46295,46284,0.02217946946620941,-0.0023812626022845507,0.9711583852767944,-3.6819369792938232,2.9123902320861816,-1.9766830205917358,1.790160059928894,3.881281614303589,0.3030742406845093,-1.4823473691940308,0.2818935811519623,1.5156711339950562
113,46305,46294,0.015236093662679195,0.01574413850903511,0.9958857893943787,-4.060755252838135,1.0409314632415771,-1.7968024015426636,1.7903928756713867,3.8818702697753906,0.3036237955093384,-1.4951961040496826,0.21027962863445282,1.4937235116958618
114,46315,46304,-0.035867929458618164,0.0421409085392952,1.0035006999969482,-2.317884922027588,0.43182146549224854,-2.017106294631958,1.7906153202056885,3.882833957672119,0.3041840195655823,-1.4853211641311646,0.14974601566791534,1.4717952013015747
115,46325,46314,-0.06196589395403862,0.07474998384714127,0.9997650980949402,-1.0412179231643677,0.8566945195198059,-2.034538745880127,1.7904525995254517,3.883370876312256,0.3047354519367218,-1.4677594900131226,0.12556758522987366,1.4525922536849976
116,46335,46324,-0.07446622103452682,0.1718454211950302,1.0256379842758179,0.8138143420219421,0.9261787533760071,-1.719868540763855,1.7910957336425781,3.883592367172241,0.30504345893859863,-1.51646888256073,-0.020903287455439568,1.4012261629104614
117,46345,46334,0.002819181652739644,0.19477802515029907,0.9843737483024597,3.2306160926818848,0.5517094731330872,-0.8759236931800842,1.7913705110549927,3.8857033252716064,0.30550986528396606,-1.3990862369537354,0.10668028891086578,1.4192341566085815
118,46355,46344,0.060627322643995285,0.14924205839633942,0.9630977511405945,4.873186111450195,-0.7864238619804382,-1.071960210800171,1.7908319234848022,3.8851094245910645,0.3061842620372772,-1.4228309392929077,0.11325473338365555,1.400694727897644
119,46365,46354,0.04307005554437637,0.10414160043001175,0.9947320222854614,5.406896591186523,-3.416623830795288,-1.4362645149230957,1.7911407947540283,3.885582447052002,0.3072815239429474,-1.5016053915023804,0.20769548416137695,1.3891997337341309
120,46375,46364,0.02168121002614498,0.05984795093536377,1.0124247074127197,3.675232410430908,-0.006708802189677954,-2.0312023162841797,1.793218970298767,3.885352373123169,0.30779916048049927,-1.3974268436431885,0.36646419763565063,1.4039961099624634
121,46385,46374,-0.04358559846878052,0.017882881686091423,0.9493594169616699,2.25046706199646,-2.6644093990325928,-1.2395710945129395,1.7931665182113647,3.8844501972198486,0.308373361825943,-1.1907085180282593,0.557212233543396,1.4350857734680176
122,46395,46384,-0.03422870486974716,0.0029916956555098295,0.9528151154518127,-0.3096507489681244,1.0088586807250977,-1.2301863431930542,1.7907390594482422,3.882650852203369,0.30398163199424744,-1.116322636604309,0.5583422780036926,1.4252322912216187
123,46405,46394,-0.0761861801147461,0.05105677247047424,0.9954578280448914,-2.602652072906494,-0.6415445804595947,-0.6430020928382874,1.7904843091964722,3.883258104324341,0.3041768968105316,-1.6940215826034546,0.28965407609939575,1.3127809762954712
124,46415,46404,-0.018889719620347023,0.03198309615254402,0.9407991170883179,-6.586584568023682,2.5969314575195312,0.04499730095267296,1.7966750860214233,3.8862264156341553,0.30443841218948364,-1.6253576278686523,0.21496069431304932,1.3095647096633911
125,46425,46414,0.019369876012206078,-0.045228034257888794,0.9360895156860352,-7.097646236419678,-1.6388455629348755,0.621625542640686,1.7968425750732422,3.8872063159942627,0.3046753704547882,-1.5470519065856934,0.11053736507892609,1.3093867301940918
126,46435,46424,0.02572525665163994,0.0011373781599104404,0.9249444007873535,-4.978482723236084,-6.127364158630371,0.21131274104118347,1.7965868711471558,3.8878471851348877,0.3019474148750305,-1.3339905738830566,0.013426987454295158,1.3193700313568115
127,46445,46434,-0.030693061649799347,-0.07643739879131317,1.0043832063674927,-1.8090585470199585,-7.662816524505615,0.15930746495723724,1.7956148386001587,3.888758420944214,0.3020322918891907,-1.2386866807937622,-0.03564687445759773,1.3207907676696777
128,46455,46444,-0.03269636258482933,-0.06825505942106247,1.0046007633209229,1.597398281097412,-6.244082450866699,0.46328794956207275,1.7959810495376587,3.8895814418792725,0.30193305015563965,-1.0693508386611938,-0.0260813869535923,1.335248351097107
129,46465,46454,-0.005400323309004307,0.0011896949727088213,1.010677695274353,4.32017707824707,-4.10647439956665,0.7549777626991272,1.7953673601150513,3.8896539211273193,0.30223435163497925,-0.9102587103843689,0.1077069416642189,1.371647596359253
130,46475,46464,-0.030327865853905678,-0.12291669100522995,1.043857216835022,5.206422328948975,4.114604949951172,0.27808907628059387,1.7943435907363892,3.888742446899414,0.30221250653266907,-0.9112493395805359,0.414599746465683,1.4292534589767456
131,46485,46474,0.027207139879465103,-0.08842086046934128,0.9690918326377869,3.682161569595337,2.671736001968384,-0.16041533648967743,1.795175313949585,3.8862195014953613,0.3021750748157501,-1.1433742046356201,0.24175243079662323,1.3756203651428223
132,46495,46484,0.014689039438962936,0.04853160306811333,1.015728235244751,-1.4418810606002808,4.943017959594727,0.42951664328575134,1.797236680984497,3.8881850242614746,0.30179640650749207,-1.0035972595214844,0.48399022221565247,1.4307469129562378
133,46505,46494,0.004387600813060999,-0.05567741021513939,0.9991068243980408,-5.152991771697998,3.954664707183838,0.2780705690383911,1.7964297533035278,3.885993480682373,0.30187466740608215,-1.0422353744506836,0.3904164731502533,1.4274746179580688
134,46515,46504,-0.02435382455587387,-0.025623125955462456,1.0406641960144043,-8.91488265991211,3.6479671001434326,0.30608704686164856,1.7972643375396729,3.8868231773376465,0.301864355802536,-1.0537155866622925,0.3223581910133362,1.4319359064102173
135,46525,46514,-0.06951159238815308,0.07020992040634155,1.0444412231445312,-11.604050636291504,1.8786894083023071,0.6789893507957458,1.7969943284988403,3.8866207599639893,0.2994413673877716,-1.654885172843933,-0.17747540771961212,1.325820803642273
136,46535,46524,0.000556025595869869,0.12874040007591248,1.0149120092391968,-9.90258502960205,-1.9786289930343628,1.4818240404129028,1.8037549257278442,3.891096830368042,0.29921451210975647,-1.5527395009994507,-0.347588449716568,1.3339760303497314
137,46545,46534,-0.02888571284711361,-0.01793653890490532,1.0286160707473755,-4.345396041870117,-7.6003031730651855,1.0418713092803955,1.8041387796401978,3.892134189605713,0.29924964904785156,-1.4419221878051758,-0.43758106231689453,1.3494904041290283
138,46555,46544,-0.005753514356911182,-0.03482282906770706,1.019300103187561,3.5010321140289307,-12.692614555358887,0.982423722743988,1.8046640157699585,3.89247989654541,0.29929304122924805,-1.3696975708007812,-0.41007620096206665,1.3613275289535522
139,46565,46554,-0.05092043802142143,-0.023389432579278946,1.0287266969680786,10.572359085083008,-18.120113372802734,1.3000751733779907,1.805946707725525,3.893573045730591,0.2993997037410736,-1.1633081436157227,-0.11460468173027039,1.4143898487091064
140,46575,46564,0.01650947891175747,-0.005545732099562883,1.0196341276168823,14.459883689880371,-15.568913459777832,1.179634928703308,1.8072268962860107,3.8913769721984863,0.2996557056903839,-0.8557349443435669,0.028959229588508606,1.4363391399383545
141,46585,46574,-0.01892966404557228,-0.0039755310863256454,1.039870023727417,13.77433967590332,-14.402400016784668,1.2221283912658691,1.8065080642700195,3.8906877040863037,0.29984161257743835,-0.6669902205467224,0.26649683713912964,1.4710685014724731
142,46595,46584,0.03628111258149147,-0.0379340760409832,1.010581135749817,7.739527225494385,-8.48339557647705,0.7887709736824036,1.8077257871627808,3.8910601139068604,0.3023841083049774,-0.6184449791908264,0.2844623923301697,1.4648274183273315
143,46605,46594,-0.01349551696330309,-0.11708658188581467,1.0178859233856201,0.19948743283748627,-3.272677183151245,1.4027113914489746,1.8094550371170044,3.891510009765625,0.3026188611984253,-0.6579970121383667,0.3466961681842804,1.4769214391708374
144,46615,46604,-0.0005218969308771193,-0.13254760205745697,0.9773921966552734,-5.609874248504639,0.4767168462276459,1.5886651277542114,1.8112154006958008,3.890957832336426,0.302796334028244,-0.6836027503013611,0.2951216399669647,1.4858888387680054
145,46625,46614,0.013910945504903793,-0.09245021641254425,0.972845196723938,-9.67107105255127,1.6373682022094727,1.6595131158828735,1.8127740621566772,3.891787052154541,0.30238252878189087,-0.7392056584358215,0.16341444849967957,1.4940147399902344
146,46635,46624,0.01106420997530222,-0.04742958024144173,0.9949641823768616,-11.302082061767578,1.7690825462341309,1.1821255683898926,1.8143725395202637,3.8924190998077393,0.3024979829788208,-0.7135331630706787,0.06415938585996628,1.5132070779800415
147,46645,46634,-0.029735399410128593,0.05830259248614311,1.0471878051757812,-9.19642448425293,-1.1355347633361816,1.2789103984832764,1.815229058265686,3.893030881881714,0.30271488428115845,-0.6706507205963135,-0.11196292191743851,1.529728889465332
148,46655,46644,0.022990142926573753,-0.02289215661585331,0.9841735363006592,-4.348306179046631,-7.6783270835876465,1.6516180038452148,1.8158293962478638,3.894658327102661,0.3029298484325409,-0.6426948308944702,-0.21937887370586395,1.5438753366470337
149,46665,46654,0.026216115802526474,0.004012872464954853,1.0046944618225098,2.926927089691162,-12.134913444519043,1.7607413530349731,1.8167515993118286,3.8957905769348145,0.30013352632522583,-0.514743983745575,-0.0731813982129097,1.5756843090057373
150,46675,46664,0.008624876849353313,-0.04928925260901451,1.039689302444458,8.28581428527832,-13.484338760375977,2.1355326175689697,1.81736159324646,3.89471697807312,0.30025312304496765,-0.33765554428100586,0.028449157252907753,1.598558783531189
151,46685,46674,-0.022436445578932762,-0.036256883293390274,1.0285125970840454,11.292076110839844,-13.78635025024414,2.2224678993225098,1.8180625438690186,3.894963264465332,0.30038219690322876,-0.2116083949804306,0.19527213275432587,1.6275935173034668
152,46695,46684,-0.014547465369105339,-0.016069047152996063,1.022886037826538,9.242632865905762,-11.090683937072754,2.1328139305114746,1.820340633392334,3.8942723274230957,0.3032083213329315,-0.19403062760829926,0.2835065424442291,1.6451102495193481
153,46705,46694,-0.008174690417945385,0.04906609281897545,1.0243185758590698,4.8609137535095215,-9.301600456237793,2.563706398010254,1.821068286895752,3.8943965435028076,0.30315566062927246,0.0009213240700773895,0.382072389125824,1.6708123683929443
154,46715,46704,-0.004651487339287996,0.06391599774360657,0.9796159863471985,-1.5304532051086426,-4.2672119140625,2.2984797954559326,1.821700096130371,3.8943355083465576,0.3035564124584198,0.06251581758260727,0.3099072575569153,1.6918507814407349
155,46725,46714,-0.016294702887535095,-0.030957059934735298,1.0004358291625977,-7.431640625,0.08635895699262619,3.0653419494628906,1.8228567838668823,3.8952271938323975,0.30292752385139465,0.04444149509072304,0.22829033434391022,1.7153006792068481
156,46735,46724,-0.013263514265418053,0.050959281623363495,0.9843444228172302,-11.40505599975586,3.3130030632019043,3.3581066131591797,1.825738549232483,3.896381378173828,0.3033437430858612,-0.02627653256058693,0.13232770562171936,1.7482948303222656
157,46745,46734,-0.006593956146389246,-0.09000518918037415,0.9557322263717651,-10.237303733825684,2.8809239864349365,3.1742424964904785,1.826940655708313,3.897200584411621,0.3033149540424347,0.04494323953986168,0.09258779138326645,1.7769907712936401
158,46755,46744,-0.02791324071586132,0.03656214103102684,1.0619897842407227,-6.2204508781433105,-0.6295635104179382,3.4526968002319336,1.828574776649475,3.896138906478882,0.3038594424724579,0.05225793272256851,0.013924109749495983,1.8180651664733887
159,46765,46754,0.020478473976254463,-0.027319131419062614,1.0147507190704346,-3.930661916732788,-0.2967136800289154,3.667109251022339,1.8282878398895264,3.8966329097747803,0.3014821708202362,0.13824348151683807,0.07102707773447037,1.8489090204238892
160,46775,46764,0.07843808829784393,-0.029612567275762558,1.0156354904174805,-0.7262665629386902,-4.093912124633789,4.627501964569092,1.8286160230636597,3.8950986862182617,0.3016473650932312,0.06019127741456032,0.014377188868820667,1.8933966159820557
161,46785,46774,0.012448254972696304,-0.15489912033081055,1.0382075309753418,-0.014484146609902382,-3.8136351108551025,4.661874294281006,1.830506443977356,3.8961856365203857,0.3016984462738037,0.12661336362361908,-0.006160659249871969,1.8966872692108154
162,46795,46784,0.009459312073886395,-0.13023914396762848,0.9848616719245911,-0.2975771129131317,-3.3974080085754395,5.322057247161865,1.8307729959487915,3.896395683288574,0.3009527027606964,0.29693862795829773,0.04911865293979645,1.9576574563980103
163,46805,46794,-0.041920583695173264,0.10864173620939255,1.0297808647155762,-2.5434682369232178,-0.4340931177139282,4.996837139129639,1.8317062854766846,3.896780490875244,0.30118802189826965,0.1943535953760147,0.08811338245868683,2.008591651916504
164,46815,46804,0.01859932392835617,-0.002015303121879697,1.0085422992706299,-6.152007579803467,2.5522994995117188,5.004459857940674,1.8330093622207642,3.896423578262329,0.30129554867744446,0.21893258392810822,0.011914525181055069,2.068960666656494
165,46825,46814,-0.018416333943605423,-0.09912728518247604,0.9939021468162537,-8.38194465637207,4.901780128479004,5.379887104034424,1.834147572517395,3.8968071937561035,0.30135583877563477,0.2695363461971283,-0.11389470845460892,2.1276652812957764
166,46835,46824,0.0024973663967102766,-0.060011379420757294,0.9865931272506714,-8.388191223144531,5.205862998962402,5.2344584465026855,1.8346737623214722,3.8972623348236084,0.3015902042388916,0.28606006503105164,-0.2759898006916046,2.19498348236084
167,46845,46834,-0.03971865028142929,-0.07223053276538849,1.0375499725341797,-6.475559234619141,3.992560863494873,4.466761589050293,1.8358296155929565,3.8977346420288086,0.3018580973148346,0.15853670239448547,-0.263212114572525,2.236821413040161
168,46855,46844,-0.05447912961244583,-0.04588701203465462,0.9904854893684387,-3.4711496829986572,6.303563117980957,4.419118404388428,1.8376094102859497,3.8970162868499756,0.3020198345184326,0.16164493560791016,-0.3049522638320923,2.2797131538391113
169,46865,46854,0.05830080434679985,-0.03208114951848984,1.0333268642425537,-1.730059027671814,6.800431728363037,4.7746148109436035,1.8379334211349487,3.8961448669433594,0.30053308606147766,0.1346520334482193,-0.30523741245269775,2.3190081119537354
170,46875,46864,0.016331952065229416,-0.035177044570446014,1.0046255588531494,-0.4338738024234772,3.5827550888061523,4.244549751281738,1.838823676109314,3.8958897590637207,0.3007102310657501,0.10685509443283081,-0.35733839869499207,2.3788974285125732
171,46885,46874,-0.02142961136996746,0.0006309995660558343,1.021138310432434,-1.6171568632125854,7.057161331176758,4.466530799865723,1.8397849798202515,3.896331548690796,0.3008347153663635,-0.060121554881334305,-0.39128708839416504,2.4170870780944824
172,46895,46884,-0.007674721535295248,-0.11827898770570755,0.964002251625061,-2.020535469055176,4.761563777923584,4.013012409210205,1.841356635093689,3.8962111473083496,0.30505767464637756,-0.07395954430103302,-0.43430185317993164,2.462787389755249
173,46905,46894,0.06614144891500473,-0.09332554787397385,1.0201350450515747,-1.27824068069458,2.0874133110046387,4.3758087158203125,1.842105746269226,3.8964364528656006,0.3054571747779846,-0.0733361691236496,-0.327070951461792,2.488389492034912
174,46915,46904,0.052336808294057846,-0.055876657366752625,1.0196588039398193,-0.5335076451301575,1.293231725692749,3.601391553878784,1.8420262336730957,3.895298480987549,0.30592578649520874,-0.037270452827215195,-0.37401190400123596,2.5322937965393066
175,46925,46914,0.0091013228520751,-0.044881660491228104,0.9788337349891663,-0.5483472943305969,1.306398630142212,3.643221855163574,1.8427060842514038,3.8953957557678223,0.3069298565387726,-0.13899901509284973,-0.3313513398170471,2.5770444869995117
176,46935,46924,-5.902052726014517e-05,-0.022588493302464485,0.990057110786438,-0.1471053808927536,2.1316945552825928,2.655064821243286,1.8445481061935425,3.895183563232422,0.3073241412639618,-0.08416451513767242,-0.36265069246292114,2.6121582984924316
177,46945,46934,0.042362913489341736,-0.07366938889026642,0.979983389377594,-1.8998552560806274,0.7997226715087891,2.0207111835479736,1.8453638553619385,3.89514422416687,0.307829350233078,-0.12230266630649567,-0.47103554010391235,2.6626415252685547
178,46955,46944,0.01676620915532112,-0.02534676529467106,0.9992239475250244,-2.681379795074463,2.489478349685669,1.797092318534851,1.8468962907791138,3.8964648246765137,0.3084565997123718,-0.30193203687667847,-0.5114482045173645,2.6944375038146973
179,46965,46954,0.029419979080557823,-0.03843526169657707,0.9615670442581177,-2.076537847518921,2.182711124420166,1.339911699295044,1.8487248420715332,3.8968706130981445,0.3087482154369354,-0.25427547097206116,-0.5632965564727783,2.7073960304260254
180,46975,46964,0.08698093146085739,-0.10498470067977905,1.006248950958252,-0.5167573094367981,2.4715964794158936,0.7174443602561951,1.8488399982452393,3.8969004154205322,0.3092288672924042,-0.2903393805027008,-0.5268603563308716,2.7260026931762695
181,46985,46974,0.047948434948921204,-0.08705887943506241,1.0146362781524658,2.5363106727600098,1.1657140254974365,1.162224531173706,1.8493947982788086,3.897057056427002,0.309606671333313,-0.3190169036388397,-0.45859915018081665,2.726816415786743
182,46995,46984,0.01404496282339096,-0.08500028401613235,0.9705740809440613,4.919894695281982,-1.6850680112838745,1.492962121963501,1.8502960205078125,3.8964312076568604,0.31067875027656555,-0.32358112931251526,-0.428657591342926,2.7430591583251953
183,47005,46994,0.01457958947867155,-0.0398196317255497,1.0148653984069824,4.431962013244629,-4.129271507263184,1.7001690864562988,1.851811170578003,3.8968191146850586,0.31108468770980835,-0.3593171238899231,-0.3713310956954956,2.7811760902404785
184,47015,47004,0.026742149144411087,-0.022803356871008873,0.9809572696685791,3.514369249343872,-4.326507091522217,0.5802727341651917,1.8535171747207642,3.8976075649261475,0.3114730417728424,-0.20527048408985138,-0.3172197639942169,2.782778739929199
185,47025,47014,0.009148183278739452,-0.08024432510137558,1.027758002281189,1.2967840433120728,-2.3597030639648438,0.39107397198677063,1.8534427881240845,3.8970487117767334,0.3156611919403076,-0.14122238755226135,-0.2858918309211731,2.807880163192749
186,47035,47024,0.03156762197613716,-0.12608502805233002,0.9423074722290039,-1.761330485343933,-1.6238592863082886,1.4271700382232666,1.8536478281021118,3.8977508544921875,0.3163183927536011,-0.18396583199501038,-0.28527894616127014,2.8042805194854736
187,47045,47034,0.03558512032032013,-0.06788420677185059,0.9081918597221375,-3.1721513271331787,-1.4681146144866943,2.2257537841796875,1.8552273511886597,3.8977694511413574,0.3169304132461548,-0.1601894199848175,-0.32923734188079834,2.815692901611328
188,47055,47044,0.03366515040397644,-0.10889621078968048,0.962732195854187,-2.865065813064575,1.0196701288223267,2.002732753753662,1.855650544166565,3.898052453994751,0.31671229004859924,-0.05249641463160515,-0.39388757944107056,2.849592447280884
189,47065,47054,-0.015676822513341904,-0.08553004264831543,1.0140236616134644,-3.5649783611297607,-0.059939462691545486,2.2275147438049316,1.856032133102417,3.8989572525024414,0.31721675395965576,-0.10948456078767776,-0.45222723484039307,2.865544080734253
190,47075,47064,-0.03766300529241562,-0.02709043025970459,0.9558645486831665,-2.837437152862549,2.3805325031280518,2.2468996047973633,1.8574936389923096,3.8992419242858887,0.317633718252182,-0.1072530448436737,-0.5086316466331482,2.8932456970214844
191,47085,47074,-0.09512673318386078,0.11031725257635117,0.916655421257019,0.27281826734542847,1.0732598304748535,2.680783987045288,1.857740879058838,3.899285078048706,0.3180866539478302,-0.058106157928705215,-0.5438750386238098,2.911440372467041
192,47095,47084,-0.018643977120518684,0.11271759867668152,0.9302710294723511,4.8683929443359375,-5.510653018951416,2.5077826976776123,1.8584171533584595,3.899365186691284,0.3188392221927643,-0.1436641812324524,-0.532460629940033,2.9400835037231445
193,47105,47094,-0.02461056038737297,0.05736461281776428,0.9661813974380493,6.485664367675781,-2.8825695514678955,3.75848388671875,1.86017644405365,3.8994765281677246,0.31914907693862915,-0.09058341383934021,-0.4615404009819031,2.9622325897216797
194,47115,47104,-0.08877599239349365,-0.03786955773830414,0.9864794015884399,6.789702415466309,-0.7463124990463257,3.9363017082214355,1.8609658479690552,3.8990554809570312,0.3194616436958313,-0.04506003111600876,-0.35637152194976807,2.9948363304138184
195,47125,47114,0.017255224287509918,-0.09413526207208633,0.9621110558509827,6.078810214996338,1.701636552810669,4.164392948150635,1.8615214824676514,3.89863657951355,0.3163747787475586,-0.11605796962976456,-0.32703807950019836,3.050078868865967
196,47135,47124,0.04554572328925133,-0.07084238529205322,0.9441946148872375,4.1618428230285645,0.7496208548545837,4.334836959838867,1.8629041910171509,3.8992843627929688,0.3164030611515045,-0.13038834929466248,-0.23242636024951935,3.0829622745513916
197,47145,47134,0.003884949255734682,-0.011681689880788326,0.9693700671195984,1.8223167657852173,-1.9935963153839111,4.37162446975708,1.8633776903152466,3.898761510848999,0.3163919746875763,-0.11162657290697098,-0.24538832902908325,3.128560781478882
198,47155,47144,0.009768863208591938,-0.053075168281793594,1.0045454502105713,-1.7452315092086792,-2.2667300701141357,4.1131439208984375,1.8639932870864868,3.899381160736084,0.31223776936531067,-0.06658463925123215,-0.21922221779823303,3.174334764480591
199,47165,47154,-0.06438098847866058,-0.0810340940952301,1.0623893737792969,-3.25679612159729,-0.5837149620056152,3.5006966590881348,1.8645437955856323,3.8998544216156006,0.3119562268257141,0.06153951957821846,-0.23528464138507843,3.211364269256592
200,47175,47164,-0.06716014444828033,0.057518120855093,1.0319150686264038,-4.385706901550293,-1.2317399978637695,4.364750385284424,1.8641053438186646,3.899904727935791,0.3117784559726715,0.1429150104522705,-0.2845870852470398,3.251162052154541
201,47185,47174,-0.01944255828857422,0.1022028923034668,0.9301377534866333,-5.407848834991455,0.9356953501701355,4.160646438598633,1.8643320798873901,3.900451183319092,0.3116133213043213,0.06000478193163872,-0.354461669921875,3.2980034351348877
202,47195,47184,0.006128414534032345,0.018388858065009117,1.0031280517578125,-5.4206342697143555,2.1791510581970215,5.059967041015625,1.8653173446655273,3.900916576385498,0.3118225038051605,0.04950583353638649,-0.43221890926361084,3.342229127883911
203,47205,47194,-0.012238215655088425,-0.0114698875695467,1.0034211874008179,-5.473812103271484,3.2851717472076416,4.6994829177856445,1.8662415742874146,3.901496648788452,0.3115605413913727,0.028870955109596252,-0.509124219417572,3.4127984046936035
204,47215,47204,0.0026402424555271864,-0.01127046998590231,1.0078836679458618,-5.121302127838135,4.353514671325684,4.577115058898926,1.8671839237213135,3.9022626876831055,0.3113287091255188,0.044682737439870834,-0.5830521583557129,3.461158275604248
205,47225,47214,-0.003290018765255809,-0.021146968007087708,0.9717270731925964,-4.433183193206787,5.556405544281006,3.7898197174072266,1.8678739070892334,3.9030370712280273,0.3106992244720459,-0.043038398027420044,-0.6544475555419922,3.5124356746673584
206,47235,47224,0.00966621469706297,-0.002689402550458908,1.0273451805114746,-1.204703450202942,5.2729315757751465,3.2130818367004395,1.8683358430862427,3.9033477306365967,0.3103768825531006,-0.06726070493459702,-0.6946232914924622,3.5548510551452637
207,47245,47234,0.0028567577246576548,-0.004227753262966871,1.0238596200942993,4.583449363708496,2.7703278064727783,3.3395378589630127,1.868813157081604,3.9031779766082764,0.3101186454296112,-0.07689837366342545,-0.6714897751808167,3.5881764888763428
208,47255,47244,-0.12822556495666504,-0.014145547524094582,1.0123471021652222,7.533015727996826,0.5927049517631531,2.830167055130005,1.868925929069519,3.9037458896636963,0.3123096525669098,-0.12804719805717468,-0.5722489953041077,3.6199638843536377
209,47265,47254,0.0007558149518445134,-0.03199156001210213,0.988547682762146,7.394026756286621,-2.1112871170043945,3.2402992248535156,1.8694528341293335,3.9035634994506836,0.31224119663238525,-0.1455892026424408,-0.5127931833267212,3.6502578258514404
210,47275,47264,-0.021362999454140663,-0.15494215488433838,1.016998291015625,4.9362874031066895,-0.1445586085319519,2.4618849754333496,1.870049238204956,3.9040424823760986,0.31219324469566345,-0.14106470346450806,-0.3870023787021637,3.681138753890991
211,47285,47274,-0.040059927850961685,-0.12847009301185608,1.0421069860458374,2.6818795204162598,0.9296053647994995,2.3829596042633057,1.8704701662063599,3.9037981033325195,0.3117576241493225,-0.0643855556845665,-0.4441034495830536,3.733079433441162
212,47295,47284,-0.038346659392118454,0.11287901550531387,1.032516598701477,-1.0540053844451904,0.5145747661590576,1.8150591850280762,1.8700809478759766,3.905714750289917,0.3117620348930359,-0.08782241493463516,-0.39150142669677734,3.7571451663970947
213,47305,47294,-0.05612059310078621,-0.014229425229132175,1.0313260555267334,-1.1302404403686523,1.3579250574111938,1.830444097518921,1.8706258535385132,3.905966281890869,0.31173592805862427,-0.12118218094110489,-0.5377120971679688,3.787938117980957
214,47315,47304,-0.03232317790389061,-0.008734987117350101,0.9752464294433594,-1.216542363166809,4.618040561676025,2.5482118129730225,1.8711336851119995,3.907836437225342,0.31169864535331726,-0.08335120230913162,-0.528872549533844,3.7970402240753174
215,47325,47314,-0.021161174401640892,0.022287264466285706,0.9366937279701233,2.894322633743286,6.096679210662842,2.5176761150360107,1.8710020780563354,3.9076147079467773,0.3097783029079437,-0.08532699197530746,-0.4992539882659912,3.8610851764678955
216,47335,47324,-0.012876635417342186,0.035196542739868164,1.0109872817993164,8.911431312561035,4.8229804039001465,3.139671564102173,1.872174620628357,3.9089670181274414,0.30967336893081665,-0.28006839752197266,-0.4042578935623169,3.8793375492095947
217,47345,47334,0.05585940182209015,-0.04805696755647659,1.0360677242279053,14.86081600189209,3.700521469116211,2.7973430156707764,1.8741004467010498,3.908181667327881,0.30945679545402527,-0.37052881717681885,-0.36957427859306335,3.92787504196167
218,47355,47344,-0.07573200762271881,0.06844817847013474,1.0279262065887451,18.26969337463379,0.05232252925634384,2.854703903198242,1.8748284578323364,3.9094624519348145,0.31022393703460693,-0.26125088334083557,-0.23355208337306976,3.948617458343506
219,47365,47354,-0.04029200226068497,-0.005054328590631485,0.9941882491111755,16.9411678314209,-3.186659812927246,3.2097132205963135,1.8742495775222778,3.909912347793579,0.3103086054325104,-0.2692551016807556,0.03701085224747658,3.977919816970825
220,47375,47364,-0.027183428406715393,-0.09872747957706451,0.9769488573074341,12.05512523651123,-6.8064680099487305,2.945944309234619,1.8749303817749023,3.9095945358276367,0.31028398871421814,-0.23204365372657776,0.02629009447991848,4.0115814208984375
221,47385,47374,-0.024862131103873253,0.021108947694301605,1.0498242378234863,3.8904385566711426,-2.275749921798706,2.444208860397339,1.8749065399169922,3.9115610122680664,0.310518741607666,-0.07694215327501297,0.17639687657356262,4.033730983734131
222,47395,47384,-0.04816178232431412,0.03259605914354324,1.0394916534423828,-3.1426751613616943,0.5495524406433105,2.478693962097168,1.8747576475143433,3.91188645362854,0.3105752766132355,-0.1490527093410492,0.09901757538318634,4.085477828979492
223,47405,47394,-0.0825808197259903,0.05371028557419777,1.010666847229004,-6.529451847076416,2.9117233753204346,1.934988021850586,1.875889539718628,3.914214611053467,0.31053975224494934,-0.09565716236829758,0.07856220752000809,4.112644672393799
224,47415,47404,-0.013438941910862923,0.06693805754184723,1.0460654497146606,-7.316586494445801,8.167159080505371,1.076704978942871,1.8759821653366089,3.914870023727417,0.3106393814086914,-0.10357295721769333,0.014543821103870869,4.1335225105285645
225,47425,47414,0.029477424919605255,-0.06195797026157379,1.0327438116073608,-3.7703487873077393,8.466176986694336,1.2894835472106934,1.876206398010254,3.915316104888916,0.30942219495773315,-0.24008837342262268,-0.11104529350996017,4.179152965545654
226,47435,47424,0.008271809667348862,-0.05072934553027153,1.0067609548568726,-0.4892841875553131,9.624683380126953,0.2541535198688507,1.8781163692474365,3.9174344539642334,0.3093721270561218,-0.418378621339798,-0.09735757857561111,4.179372310638428
227,47445,47434,0.05380728840827942,0.015455521643161774,0.9779062867164612,6.223516464233398,11.93685531616211,0.055773165076971054,1.8796406984329224,3.917847156524658,0.30936551094055176,-0.558871865272522,-0.10216804593801498,4.177350044250488
228,47455,47444,-0.03848879039287567,-0.06815976649522781,1.0372822284698486,11.523879051208496,13.678129196166992,-0.1676884889602661,1.8801642656326294,3.9178457260131836,0.3074910342693329,-0.6897475719451904,0.08750931918621063,4.173859119415283
229,47465,47454,-0.01156423706561327,-0.031144864857196808,1.0045796632766724,16.06833839416504,10.94279670715332,-1.057858943939209,1.8806370496749878,3.9171886444091797,0.3074646294116974,-0.746521532535553,0.21388743817806244,4.170864582061768
230,47475,47464,0.015827324241399765,0.06672429293394089,0.9414170980453491,16.385221481323242,4.668804168701172,-1.9181710481643677,1.8803244829177856,3.917726516723633,0.3075019419193268,-0.9148697257041931,0.44299793243408203,4.167516231536865
231,47485,47474,0.05825250595808029,-0.03900548443198204,1.0416089296340942,13.10394287109375,1.5791915655136108,-2.93725848197937,1.8820157051086426,3.917708396911621,0.30936357378959656,-0.8903723955154419,0.43723031878471375,4.136619567871094
232,47495,47484,0.02740371599793434,-0.07152876257896423,0.9715875387191772,7.187369346618652,-1.1398353576660156,-4.055395603179932,1.882105827331543,3.9195306301116943,0.3094489276409149,-0.8314629197120667,0.5193610787391663,4.142267227172852
233,47505,47494,-0.016643300652503967,0.01046883873641491,0.9909263253211975,1.4450076818466187,-3.813805341720581,-5.4755096435546875,1.8826831579208374,3.9214577674865723,0.3095476031303406,-0.8037371635437012,0.6514741778373718,4.138851642608643
234,47515,47504,-0.03664077818393707,-0.009551946073770523,1.005556583404541,-1.2448889017105103,-3.9930825233459473,-5.168503761291504,1.8830443620681763,3.922462224960327,0.30957990884780884,-0.880474328994751,0.551026463508606,4.081274509429932
235,47525,47514,0.01756582036614418,-0.1554873138666153,0.9825406670570374,-2.1122889518737793,-3.8098318576812744,-5.652199745178223,1.8850595951080322,3.9244625568389893,0.3089175224304199,-0.7376340627670288,0.5755473971366882,4.0375776290893555
236,47535,47524,-0.018490564078092575,-0.011544719338417053,0.9977906346321106,-0.8784346580505371,-3.475409746170044,-5.952942848205566,1.885213851928711,3.924732208251953,0.3090484142303467,-0.6058232188224792,0.5943334698677063,3.9858169555664062
237,47545,47534,-0.03929777443408966,0.03315526247024536,0.9917834997177124,0.683265745639801,-1.0965861082077026,-6.009407043457031,1.8852458000183105,3.925227403640747,0.30912622809410095,-0.6424533724784851,0.5575262904167175,3.91611385345459
238,47555,47544,-0.04612691327929497,-0.0723404660820961,1.0096219778060913,1.1660076379776,1.192655324935913,-6.707132339477539,1.8871172666549683,3.925961971282959,0.3083462119102478,-0.7253063917160034,0.6235179305076599,3.839647054672241
239,47565,47554,-0.02654084376990795,-0.02336246520280838,1.002748966217041,-0.15607613325119019,2.1990761756896973,-6.424184322357178,1.8885271549224854,3.925565481185913,0.3082544505596161,-0.6732059121131897,0.6735163331031799,3.783447265625
240,47575,47564,-0.005853276699781418,-0.03714333847165108,0.9760347008705139,-1.7529845237731934,2.0342016220092773,-6.2922892570495605,1.888767957687378,3.9255218505859375,0.30829328298568726,-0.7862581014633179,0.6905109286308289,3.702011823654175
241,47585,47574,-0.024811092764139175,-0.09152652323246002,1.0193907022476196,-4.794827938079834,2.259572982788086,-6.4016499519348145,1.890699863433838,3.925593614578247,0.3077249825000763,-0.7441826462745667,0.5884729027748108,3.6386067867279053
242,47595,47584,0.00210753851570189,-0.0712609812617302,0.9809293746948242,-7.609533786773682,2.8888301849365234,-6.66519021987915,1.8908220529556274,3.9265334606170654,0.3077004849910736,-0.7727619409561157,0.5236778855323792,3.640462875366211
243,47605,47594,-0.016053499653935432,-0.012085206806659698,0.9945236444473267,-6.363260269165039,0.09848245233297348,-6.771912574768066,1.8917769193649292,3.9289212226867676,0.3075709342956543,-0.7309554815292358,0.4361334443092346,3.584123134613037
244,47615,47604,0.029245739802718163,-0.08421003818511963,1.0063447952270508,-4.502231597900391,3.8233585357666016,-7.558821678161621,1.8923715353012085,3.9293503761291504,0.30770987272262573,-0.6681357622146606,0.37475094199180603,3.5500431060791016
245,47625,47614,0.013840609230101109,0.019477250054478645,0.9773215055465698,2.0785136222839355,-2.954984188079834,-6.45015287399292,1.8929340839385986,3.9311366081237793,0.30766862630844116,-0.8035966753959656,0.4031035602092743,3.472844123840332
246,47635,47624,-0.013917081989347935,0.14973081648349762,1.015261173248291,7.20159912109375,-4.6167378425598145,-6.17690372467041,1.8948382139205933,3.9315788745880127,0.3075028955936432,-0.7301087379455566,0.43192872405052185,3.42118501663208
247,47645,47634,0.0009123847703449428,0.0036330821458250284,1.0913636684417725,12.163695335388184,-4.705962657928467,-5.997889518737793,1.8948472738265991,3.931941270828247,0.30750930309295654,-0.5816075801849365,0.6306676864624023,3.3827097415924072
248,47655,47644,0.010760094039142132,-0.15762721002101898,1.0772656202316284,13.246587753295898,-4.079687595367432,-6.187102794647217,1.8948826789855957,3.9314630031585693,0.30779778957366943,-0.8173474073410034,0.6203194260597229,3.270843267440796
249,47665,47654,0.035447344183921814,-0.11831370741128922,1.0528194904327393,13.210013389587402,-3.7532076835632324,-6.440891265869141,1.8982436656951904,3.932258129119873,0.30774226784706116,-0.644267737865448,0.804778516292572,3.2258310317993164
250,47675,47664,0.024035604670643806,-0.06091001629829407,0.9869805574417114,8.556446075439453,-2.530670166015625,-6.812779903411865,1.8978140354156494,3.932467222213745,0.3080565333366394,-0.7796510457992554,0.9351532459259033,3.156654119491577
251,47685,47674,0.02635307051241398,-0.02123328484594822,1.0018295049667358,3.716787099838257,-2.6330726146698,-6.043033599853516,1.900266408920288,3.933100461959839,0.31086352467536926,-0.7851938009262085,0.9047672748565674,3.07971453666687
252,47695,47684,-0.011256604455411434,-0.04644235596060753,1.0022169351577759,-2.409148693084717,-2.6479430198669434,-5.858529567718506,1.9015073776245117,3.9342381954193115,0.3111494481563568,-0.6989369988441467,0.9348679780960083,3.0262649059295654
253,47705,47694,-0.027226660400629044,0.02769029326736927,1.0312221050262451,-6.167981147766113,-4.097398281097412,-6.120337963104248,1.90240478515625,3.934657335281372,0.31155773997306824,-0.6064659953117371,0.8894274234771729,2.9758517742156982
254,47715,47704,0.022271014750003815,-0.07566548138856888,0.9615449905395508,-7.666416645050049,-6.500515460968018,-5.875396251678467,1.9034531116485596,3.9347612857818604,0.31140974164009094,-0.5459734797477722,0.8041881322860718,2.9236114025115967
255,47725,47714,-0.03717353194952011,0.06927885115146637,0.9492522478103638,-7.9771342277526855,-4.205776214599609,-5.478686809539795,1.9042699337005615,3.935692071914673,0.3117043375968933,-0.5173234343528748,0.7703685164451599,2.8781657218933105
256,47735,47724,-0.024169370532035828,0.018471751362085342,0.9593009948730469,-5.650575160980225,-2.530081272125244,-4.930206298828125,1.905367374420166,3.935796022415161,0.31194305419921875,-0.576360285282135,0.6802390813827515,2.8147025108337402
257,47745,47734,-0.02697456069290638,-3.799587284447625e-05,1.0278725624084473,-2.006845235824585,-2.0576839447021484,-5.338089466094971,1.9076265096664429,3.93637752532959,0.31204941868782043,-0.44716405868530273,0.6383041739463806,2.7733306884765625
258,47755,47744,0.013274342752993107,-0.1742679476737976,0.9741416573524475,2.245443344116211,-2.705700397491455,-5.378085136413574,1.9077253341674805,3.9365456104278564,0.3123307228088379,-0.37230184674263,0.6683365106582642,2.708550453186035
259,47765,47754,-0.0444299653172493,-0.0475800447165966,1.0013712644577026,4.32926082611084,-2.4813833236694336,-4.847507953643799,1.9083640575408936,3.9360899925231934,0.31261777877807617,-0.3788008689880371,0.7463843822479248,2.685091972351074
260,47775,47764,-0.024123074486851692,-0.01875842548906803,0.9860340356826782,5.358660697937012,-2.1563632488250732,-5.560693740844727,1.9093900918960571,3.9364564418792725,0.31285232305526733,-0.23274119198322296,0.8415428400039673,2.6282193660736084
261,47785,47774,0.026145733892917633,-0.041245974600315094,0.9664568305015564,5.30713415145874,-2.123481512069702,-4.882291793823242,1.9092148542404175,3.9355592727661133,0.3111098110675812,-0.3278559446334839,0.8634348511695862,2.5559422969818115
262,47795,47784,-0.012958424165844917,-0.000895107164978981,0.9723045825958252,5.643161296844482,-3.182072877883911,-4.243580341339111,1.911760687828064,3.935941696166992,0.31113526225090027,-0.17542664706707,0.8817141652107239,2.515375852584839
263,47805,47794,-0.02429182268679142,0.009645280428230762,0.9973378777503967,1.3343185186386108,-3.985832929611206,-3.779564142227173,1.9117324352264404,3.935997724533081,0.3113422393798828,-0.3345724642276764,0.8719475865364075,2.4406638145446777
264,47815,47804,0.006648422684520483,-0.014545278623700142,0.926744818687439,-5.6962432861328125,-5.243657112121582,-3.1080329418182373,1.9147210121154785,3.9369306564331055,0.3115229308605194,-0.1253761649131775,0.8366721868515015,2.459502696990967
265,47825,47814,0.0340186282992363,-0.16829365491867065,0.9489561915397644,-10.860920906066895,-4.725855350494385,-3.2294039726257324,1.9141418933868408,3.938011884689331,0.31167280673980713,-0.08586148172616959,0.6997949481010437,2.4174225330352783
266,47835,47824,-0.04449755698442459,0.023153336718678474,1.041248083114624,-13.278647422790527,-4.051485538482666,-3.579624891281128,1.9150052070617676,3.938422441482544,0.3116437494754791,0.08608508855104446,0.6568508744239807,2.402407169342041
267,47845,47834,0.02941771037876606,-0.03339475020766258,0.9702507853507996,-13.157430648803711,-3.8376927375793457,-3.092924118041992,1.9152237176895142,3.9380905628204346,0.31044384837150574,0.022878294810652733,0.43295302987098694,2.365243673324585
268,47855,47844,-0.019687984138727188,0.023785855621099472,1.0305265188217163,-10.016080856323242,-1.6767677068710327,-1.6679637432098389,1.9170303344726562,3.939373254776001,0.31031548976898193,0.01423973310738802,0.4101307690143585,2.3378541469573975
269,47865,47854,-0.01494537852704525,-0.11778531223535538,1.0388760566711426,-4.766483306884766,1.6293351650238037,-1.337550163269043,1.9184998273849487,3.9387335777282715,0.31024810671806335,-0.03357267752289772,0.38046717643737793,2.305593967437744
270,47875,47864,0.013526811264455318,-0.10810556262731552,1.0117859840393066,-1.0004059076309204,3.765098810195923,-0.5454912781715393,1.9199225902557373,3.9381158351898193,0.3101751506328583,0.015349510125815868,0.3328631520271301,2.361287832260132
271,47885,47874,-0.005349321756511927,0.038227807730436325,1.0073156356811523,2.6637320518493652,3.157459020614624,-0.6985358595848083,1.9197118282318115,3.939476251602173,0.311552494764328,-0.07051577419042587,0.35539308190345764,2.36828351020813
272,47895,47884,-0.042607929557561874,0.05393563583493233,0.9750072360038757,3.7415010929107666,1.8226141929626465,-0.9016044735908508,1.921748161315918,3.939988136291504,0.3115577697753906,0.015540508553385735,0.34589463472366333,2.395921468734741
273,47905,47894,-0.07620562613010406,0.07866349816322327,0.9879207611083984,1.1381170749664307,1.042917251586914,-1.8682279586791992,1.922147274017334,3.9411327838897705,0.31174010038375854,-0.05426923930644989,0.3922254145145416,2.3612256050109863
274,47915,47904,0.015259569510817528,-0.020324377343058586,0.9917590022087097,-0.4551475942134857,1.5776015520095825,-1.9358106851577759,1.923708200454712,3.9410340785980225,0.31287556886672974,-0.14467987418174744,0.39312371611595154,2.336441993713379
275,47925,47914,-0.012503535486757755,0.06579867005348206,1.0188322067260742,-1.3411774635314941,-2.230675458908081,-2.009459972381592,1.9253281354904175,3.9407522678375244,0.3129138946533203,-0.05519212782382965,0.3019008934497833,2.3452980518341064
276,47935,47924,0.03214814141392708,-0.039978452026844025,0.9668895602226257,-3.363140344619751,-6.85847806930542,-1.3061693906784058,1.925546646118164,3.9419896602630615,0.31316378712654114,-0.02566956914961338,0.25821805000305176,2.312098264694214
277,47945,47934,0.017676401883363724,-0.08414584398269653,1.0544300079345703,-5.584723949432373,-8.686338424682617,-0.9524195790290833,1.9264805316925049,3.9417757987976074,0.3128337860107422,0.0633709654211998,0.18473424017429352,2.305518627166748
278,47955,47944,0.05051682889461517,-0.16505521535873413,1.0102953910827637,-5.0666704177856445,-8.986712455749512,-0.7202394604682922,1.927072286605835,3.942159414291382,0.31297215819358826,0.1815885454416275,0.10620858520269394,2.2843315601348877
279,47965,47954,-0.03454934433102608,0.03394144028425217,0.9990478157997131,-3.9105472564697266,-3.374337673187256,-1.3465640544891357,1.9272949695587158,3.9428422451019287,0.31319957971572876,0.2253010869026184,0.19568361341953278,2.2880332469940186
280,47975,47964,-0.037218544632196426,-0.03618229925632477,0.9966544508934021,-2.351548910140991,-1.7485594749450684,-0.8739155530929565,1.9285902976989746,3.941612958908081,0.31338196992874146,0.1312655657529831,0.14052340388298035,2.2607436180114746
281,47985,47974,0.0018347750883549452,-0.06859759241342545,0.9632049798965454,-2.049229860305786,0.47084468603134155,-1.7468252182006836,1.930487871170044,3.941746234893799,0.30841290950775146,0.2503814101219177,0.11139840632677078,2.2484076023101807
282,47995,47984,-0.017417913302779198,-0.016508592292666435,0.9965327978134155,-5.6757612228393555,1.0918949842453003,-1.1829750537872314,1.9302473068237305,3.94169282913208,0.30835580825805664,0.3325483500957489,0.21123266220092773,2.237210273742676
283,48005,47994,-0.018533091992139816,0.007210690528154373,1.023507833480835,-8.721840858459473,2.27453875541687,-1.6414644718170166,1.9304007291793823,3.940345287322998,0.3082824647426605,0.2403631955385208,0.07567659765481949,2.2240939140319824
284,48015,48004,0.011055751703679562,-0.06484872847795486,0.9917374849319458,-12.375605583190918,1.528520107269287,-2.9097986221313477,1.9313243627548218,3.9411866664886475,0.30588608980178833,0.2997470498085022,-0.11901203542947769,2.216804265975952
285,48025,48014,0.05738680809736252,-0.024538910016417503,0.970595121383667,-13.090039253234863,-5.024143218994141,-4.91384220123291,1.9322866201400757,3.9421732425689697,0.3053613305091858,0.2351202368736267,-0.18595603108406067,2.1697428226470947
286,48035,48024,-0.00897363480180502,0.044334057718515396,1.0270893573760986,-11.069807052612305,-2.050384044647217,-7.152087211608887,1.9329549074172974,3.941192865371704,0.3053472340106964,0.3056536018848419,-0.324179083108902,2.1241202354431152
287,48045,48034,-0.0888141542673111,-0.003768911585211754,1.0935505628585815,-5.62760591506958,0.3634462058544159,-9.671125411987305,1.9341118335723877,3.9419593811035156,0.30343347787857056,0.3294649124145508,-0.4671728014945984,2.0511293411254883
288,48055,48044,-0.04119247570633888,-0.01669147238135338,1.0226471424102783,2.625946521759033,4.83581018447876,-11.127523422241211,1.93378484249115,3.942220449447632,0.30342912673950195,0.20531775057315826,-0.41348838806152344,1.961364507675171
289,48065,48054,-0.032896652817726135,0.08119804412126541,0.996566116809845,11.738516807556152,7.68950080871582,-12.123077392578125,1.9357218742370605,3.942355155944824,0.30315637588500977,0.1906053125858307,-0.270891934633255,1.8156522512435913
290,48075,48064,-0.006355593912303448,-0.022334756329655647,1.0078924894332886,14.827580451965332,7.275417327880859,-12.699737548828125,1.9362828731536865,3.9416518211364746,0.3029792308807373,0.17553739249706268,-0.04750015586614609,1.6846659183502197
291,48085,48074,0.024892563000321388,-0.03468314930796623,1.0288751125335693,12.584898948669434,7.806056499481201,-12.472417831420898,1.9366962909698486,3.94027042388916,0.3021697700023651,0.12401115149259567,-0.06121806800365448,1.570723056793213
292,48095,48084,-0.03386414051055908,0.036304838955402374,1.060080885887146,8.622756004333496,7.863128662109375,-13.296963691711426,1.936711311340332,3.9418492317199707,0.30198174715042114,-0.0111868716776371,0.10451161861419678,1.4252952337265015
293,48105,48094,0.009368839673697948,-0.03983553126454353,1.0039571523666382,6.20270299911499,2.688890218734741,-13.01789379119873,1.9378657341003418,3.9410693645477295,0.30172470211982727,-0.00948303285986185,0.14102983474731445,1.292037010192871
294,48115,48104,0.021093325689435005,-0.07193230837583542,0.97320157289505,1.093213677406311,-3.4284510612487793,-11.702651023864746,1.9379745721817017,3.941277503967285,0.30242687463760376,0.007424823008477688,0.046030957251787186,1.166551947593689
295,48125,48114,0.020160609856247902,-0.0697735846042633,1.0337255001068115,-4.895167827606201,-7.274052143096924,-12.114047050476074,1.93941330909729,3.9423892498016357,0.30237042903900146,0.18877853453159332,0.009052560664713383,1.0204914808273315
296,48135,48124,0.013563013635575771,-0.01243315264582634,1.0481950044631958,-7.290478706359863,-8.382654190063477,-11.375,1.939078688621521,3.9425973892211914,0.3023402988910675,0.17150674760341644,0.06189769133925438,0.8956758379936218
297,48145,48134,-0.0051652234978973866,-0.009930677711963654,1.0289663076400757,-7.908475875854492,-7.430429935455322,-10.519600868225098,1.9407367706298828,3.9413251876831055,0.301828533411026,0.2276640683412552,-0.06912311911582947,0.7996889352798462
298,48155,48144,-0.043733298778533936,0.04476951062679291,0.9904166460037231,-8.346260070800781,-5.833910942077637,-9.357627868652344,1.9413012266159058,3.9416635036468506,0.30175521969795227,0.3349478244781494,-0.1913214772939682,0.6942908763885498
299,48165,48154,-0.0815885066986084,0.08712899684906006,1.04434335231781,-7.921648979187012,-5.076995849609375,-8.709859848022461,1.9420214891433716,3.9425976276397705,0.3017140030860901,0.41443949937820435,-0.242104634642601,0.5893234014511108
300,48175,48164,-0.04053658992052078,0.03398076444864273,1.0268715620040894,-4.963099002838135,0.19084088504314423,-7.40790319442749,1.9423195123672485,3.94215726852417,0.30169904232025146,0.3956737518310547,-0.3396703004837036,0.48095157742500305
301,48185,48174,-0.054379791021347046,0.04572751745581627,1.0280171632766724,0.7179936766624451,8.648439407348633,-7.4648661613464355,1.9435255527496338,3.942225933074951,0.3059656620025635,0.38198617100715637,-0.3602674603462219,0.4707062542438507
302,48195,48184,0.005593284498900175,-0.006763017736375332,1.041821837425232,7.896943092346191,16.38585662841797,-7.122515678405762,1.9444328546524048,3.94317889213562,0.3062518239021301,0.23663407564163208,-0.2710266411304474,0.37703752517700195
303,48205,48194,-0.012728157453238964,-0.02046584151685238,1.051511526107788,15.892618179321289,21.685688018798828,-5.310863494873047,1.9454562664031982,3.9426705837249756,0.3065945506095886,0.0026658859569579363,-0.03222382068634033,0.30962294340133667
304,48215,48204,-0.011650178581476212,0.009970062412321568,1.0705573558807373,18.26235008239746,22.80961036682129,-3.3706729412078857,1.9466005563735962,3.941807270050049,0.30898627638816833,-0.22441332042217255,0.18755759298801422,0.29228416085243225
305,48225,48214,-0.05235220864415169,-0.0008419029181823134,0.9893629550933838,17.534555435180664,17.572893142700195,-2.801710367202759,1.9478862285614014,3.942035675048828,0.30955034494400024,-0.490989089012146,0.25666871666908264,0.30251213908195496
306,48235,48224,0.014004325494170189,0.012352432124316692,1.004647135734558,16.60436248779297,5.6767425537109375,-1.5028926134109497,1.9491552114486694,3.9428882598876953,0.3101145625114441,-0.46792203187942505,0.3874027729034424,0.3035503327846527
307,48245,48234,0.02465084195137024,-0.07731164991855621,0.9787186980247498,15.468811988830566,-8.779056549072266,-0.06510546803474426,1.9486432075500488,3.9443161487579346,0.309638112783432,-0.34513887763023376,0.6621991991996765,0.2794133126735687
308,48255,48244,0.018371500074863434,-0.05961335450410843,1.03445303440094,12.86581039428711,-16.24150848388672,1.3727389574050903,1.948405146598816,3.9433083534240723,0.3102312684059143,-0.27202165126800537,0.6695643663406372,0.31642356514930725
309,48265,48254,0.004512319806963205,-0.11252251267433167,0.9789667725563049,8.884520530700684,-14.106719970703125,2.733574628829956,1.9496625661849976,3.944854259490967,0.31080707907676697,-0.01664690673351288,0.704095721244812,0.34509262442588806
310,48275,48264,-0.046530913561582565,-0.09728220105171204,0.9932012557983398,4.600104331970215,-4.382007122039795,3.441394090652466,1.9501084089279175,3.945976972579956,0.31165313720703125,-0.037773724645376205,0.8243867754936218,0.3639756739139557
311,48285,48274,0.017190169543027878,0.030764156952500343,0.98558109998703,1.040322184562683,4.107187747955322,4.124704360961914,1.9515166282653809,3.945265293121338,0.31215500831604004,-0.14502237737178802,0.7952017188072205,0.3985685408115387
312,48295,48284,-0.0034928240347653627,0.1287611722946167,0.9969719052314758,-2.461972951889038,12.327507972717285,4.231101989746094,1.9526127576828003,3.94562029838562,0.3126744329929352,-0.21480989456176758,0.7917908430099487,0.3943122625350952
313,48305,48294,0.0002913351927418262,-0.009854489006102085,0.964184582233429,-6.405603885650635,15.776338577270508,4.021947860717773,1.9523215293884277,3.9442412853240967,0.3131367564201355,-0.35896041989326477,0.724895179271698,0.42907172441482544
314,48315,48304,-0.047546397894620895,0.026249928399920464,0.9591380953788757,-5.998108863830566,12.963460922241211,4.549929618835449,1.9525560140609741,3.944652795791626,0.3102625012397766,-0.5343621373176575,0.6288853287696838,0.46398475766181946
315,48325,48314,-0.07844914495944977,0.0648893192410469,0.9461755156517029,-1.986214280128479,1.2498735189437866,4.144137382507324,1.9533026218414307,3.9447569847106934,0.3105089068412781,-0.5537458062171936,0.5708768367767334,0.508871853351593
316,48335,48324,-0.04656502977013588,0.10850757360458374,1.0127699375152588,3.3388171195983887,-8.114194869995117,5.221893310546875,1.9535109996795654,3.945028066635132,0.3108002841472626,-0.39285680651664734,0.6095369458198547,0.5942414402961731
317,48345,48334,-0.004415624774992466,0.05411515757441521,1.033002495765686,5.396697521209717,-14.795206069946289,5.023016452789307,1.9532766342163086,3.9449238777160645,0.3107573986053467,-0.1921924352645874,0.7854666113853455,0.6534350514411926
318,48355,48344,-0.016679273918271065,-0.015520283952355385,1.0058649778366089,2.223149299621582,-16.310455322265625,5.3289971351623535,1.9533339738845825,3.9440720081329346,0.3110303580760956,-0.009568475186824799,0.7739267349243164,0.7018588781356812
319,48365,48354,-0.07882912456989288,0.07863292098045349,1.0011448860168457,-0.4390900433063507,-9.439068794250488,4.810415744781494,1.9534802436828613,3.9450488090515137,0.3112543225288391,0.0356624610722065,0.8521988391876221,0.7693045735359192
320,48375,48364,-0.0164189450442791,0.0041529955342411995,0.9887686967849731,0.570984959602356,-0.5929352045059204,5.52365255355835,1.9552172422409058,3.9448916912078857,0.31097444891929626,0.1720205545425415,0.8498291969299316,0.8339146375656128
321,48385,48374,-0.03740106150507927,-0.03665141016244888,1.009268879890442,0.23050369322299957,7.5525898933410645,6.889766216278076,1.955333948135376,3.945103168487549,0.3111949861049652,0.0009587047970853746,0.8518477082252502,0.8961499929428101
322,48395,48384,-0.03885069116950035,-0.03767351806163788,0.9928246736526489,-1.2573131322860718,15.448349952697754,8.209152221679688,1.9570107460021973,3.944622278213501,0.311377614736557,-0.1501612365245819,0.8272466063499451,0.9920501112937927
323,48405,48394,0.005404766649007797,-0.052567679435014725,1.0335439443588257,-1.678557276725769,18.71245765686035,9.28446102142334,1.9576730728149414,3.944971799850464,0.31167182326316833,-0.39286530017852783,0.7890781164169312,1.0803006887435913
324,48415,48404,0.059783145785331726,-0.07742803543806076,1.0027821063995361,-4.751931190490723,17.937667846679688,10.674141883850098,1.9582566022872925,3.945420503616333,0.31084856390953064,-0.6395692229270935,0.7240781784057617,1.1797925233840942
325,48425,48414,0.019002411514520645,-0.08490343391895294,0.9334973096847534,-7.023656845092773,9.742670059204102,10.86372184753418,1.9597827196121216,3.945744037628174,0.31099754571914673,-0.7080965638160706,0.6111022233963013,1.3054691553115845
326,48435,48424,0.003880805568769574,-0.0941595658659935,0.9852416515350342,-4.314667224884033,2.933257579803467,11.031561851501465,1.9600365161895752,3.946282386779785,0.3112659156322479,-0.6813241243362427,0.6587985754013062,1.5299913883209229
327,48445,48434,-0.008386068046092987,-0.00044087329297326505,1.0197304487228394,-2.4532878398895264,-9.883317947387695,10.278926849365234,1.9601612091064453,3.946957588195801,0.31128862500190735,-0.4909978210926056,0.6812514662742615,1.6221660375595093
328,48455,48444,0.08949385583400726,0.044407982379198074,0.9401510953903198,-0.6107833981513977,-13.35477352142334,10.59884262084961,1.9599298238754272,3.9462757110595703,0.3115188479423523,-0.2178840935230255,0.646647036075592,1.760216474533081
329,48465,48454,-0.0308359507471323,0.10866214334964752,0.9959354996681213,2.095435857772827,-11.99898910522461,10.49157428741455,1.9586076736450195,3.946634531021118,0.3117358684539795,-0.17475616931915283,0.652106523513794,1.8720085620880127
330,48475,48464,-0.04595905542373657,0.0029991953633725643,0.9851855039596558,4.173348426818848,-7.309232234954834,9.560091972351074,1.959888219833374,3.9467153549194336,0.3125208914279938,-0.10747717320919037,0.7707509994506836,1.9707980155944824
331,48485,48474,-0.048567935824394226,-0.0002782711817417294,1.025775671005249,4.890686511993408,-1.1241850852966309,9.317056655883789,1.9604796171188354,3.9458181858062744,0.31260520219802856,-0.08042967319488525,0.8226720094680786,2.0676066875457764
332,48495,48484,-0.05207030102610588,0.06765726953744888,0.9601706862449646,-0.3761115074157715,3.7018487453460693,8.229316711425781,1.9609510898590088,3.945504903793335,0.3126910924911499,-0.09616682678461075,0.8126119375228882,2.15107798576355
333,48505,48494,0.04070121794939041,0.04563726857304573,0.9936619997024536,-8.39266586303711,7.603280067443848,7.723796844482422,1.961409330368042,3.9454216957092285,0.31286507844924927,-0.21177764236927032,0.691701352596283,2.2808022499084473
334,48515,48504,0.11705431342124939,-0.05325731262564659,0.9548789858818054,-17.454038619995117,11.586488723754883,6.622435569763184,1.962356448173523,3.946718692779541,0.31368011236190796,-0.3289920389652252,0.509662926197052,2.3855504989624023
335,48525,48514,0.16320060193538666,-0.05650965869426727,0.9545435309410095,-25.117006301879883,9.783995628356934,5.228378772735596,1.9632714986801147,3.947006940841675,0.3137880265712738,-0.420025497674942,0.3444053530693054,2.474820613861084
336,48535,48524,-0.053908463567495346,0.06999169290065765,0.9997760057449341,-27.61055564880371,5.769002914428711,3.2501697540283203,1.9646087884902954,3.947368860244751,0.3138183355331421,-0.4101303517818451,0.08551507443189621,2.51946759223938
337,48545,48534,-0.07134382426738739,0.08446396142244339,1.054731845855713,-25.62352180480957,4.533796787261963,1.4748451709747314,1.9643393754959106,3.947237491607666,0.3142774999141693,-0.44693687558174133,-0.1684609353542328,2.5347983837127686
338,48555,48544,-0.12198295444250107,0.06084108352661133,1.0086145401000977,-16.72956657409668,3.731152057647705,1.5045846700668335,1.9645625352859497,3.946537733078003,0.3143618106842041,-0.47977402806282043,-0.3079651892185211,2.6171271800994873
339,48565,48554,-0.019147267565131187,0.0996650829911232,1.0370864868164062,-8.681740760803223,2.8694419860839844,0.17291361093521118,1.9657844305038452,3.94679594039917,0.31447330117225647,-0.5803958177566528,-0.3893873691558838,2.606509208679199
340,48575,48564,0.10793950408697128,0.0415009967982769,1.042801856994629,-3.0597915649414062,1.9854353666305542,-0.4396549463272095,1.9666739702224731,3.9457526206970215,0.31602007150650024,-0.5482044816017151,-0.4363800883293152,2.6266496181488037
341,48585,48574,0.046333011239767075,-0.032334111630916595,1.0405336618423462,0.05521583929657936,4.016551971435547,-1.6829782724380493,1.9665987491607666,3.9456536769866943,0.3163256347179413,-0.5181812644004822,-0.48438748717308044,2.657214641571045
342,48595,48584,0.0645376592874527,-0.17195872962474823,1.009987235069275,-0.2828997075557709,5.013963222503662,-3.1923487186431885,1.9670003652572632,3.9463422298431396,0.31665870547294617,-0.544195294380188,-0.45210397243499756,2.626577138900757
343,48605,48594,0.013378681614995003,-0.02336941845715046,1.0769917964935303,-1.2482120990753174,7.030368328094482,-2.740724802017212,1.9672434329986572,3.9457249641418457,0.3156953752040863,-0.6676921844482422,-0.5003051161766052,2.603522539138794
344,48615,48604,-0.07374682277441025,0.07466644048690796,1.0532703399658203,-4.168989658355713,6.710226535797119,-3.57830810546875,1.969007968902588,3.945937156677246,0.31594961881637573,-0.7084769010543823,-0.4349835515022278,2.5496716499328613
345,48625,48614,-0.045800041407346725,0.016117827966809273,1.0481104850769043,-7.001970291137695,5.555308818817139,-3.498065233230591,1.969457983970642,3.944376230239868,0.3162919580936432,-0.7496697306632996,-0.4860176146030426,2.5020933151245117
346,48635,48624,-0.08455154299736023,0.10078401118516922,0.9752436876296997,-13.705672264099121,4.880334377288818,-3.2361056804656982,1.9697766304016113,3.9438650608062744,0.31668078899383545,-0.8662465810775757,-0.7251266837120056,2.457015037536621
347,48645,48634,-0.08714912831783295,0.07995199412107468,0.9371025562286377,-16.912738800048828,4.20724630355835,-3.427032470703125,1.97042715549469,3.944087266921997,0.31457552313804626,-0.9688314199447632,-0.8719474077224731,2.417832612991333
348,48655,48644,0.07794073969125748,-0.014782020822167397,0.9147659540176392,-15.217002868652344,3.434443712234497,-3.1208183765411377,1.9719889163970947,3.94409441947937,0.3147256672382355,-0.9532642364501953,-0.9391510486602783,2.3918826580047607
349,48665,48654,-0.022722583264112473,0.050777994096279144,1.0188424587249756,-10.584369659423828,4.147891998291016,-3.6274750232696533,1.9726024866104126,3.9429168701171875,0.31501248478889465,-0.9611420035362244,-1.0303215980529785,2.3359200954437256
350,48675,48664,-0.025760812684893608,0.0052929953671991825,1.0183565616607666,-6.380914211273193,5.095884799957275,-4.156381607055664,1.9730029106140137,3.941830635070801,0.3174384832382202,-1.0500564575195312,-1.127187967300415,2.282036781311035
351,48685,48674,-0.028002643957734108,-0.038827475160360336,0.9884886741638184,0.33587267994880676,6.934103965759277,-4.662508010864258,1.973915457725525,3.941276788711548,0.31768426299095154,-1.080244779586792,-1.1235891580581665,2.2403082847595215
352,48695,48684,-0.02873176895081997,-0.08268321305513382,1.0042840242385864,6.685636520385742,8.069962501525879,-5.465310573577881,1.9748538732528687,3.9406416416168213,0.3180191218852997,-1.2321285009384155,-1.085937738418579,2.2103612422943115
353,48705,48694,0.06999634951353073,0.01273076981306076,0.9395620226860046,10.445906639099121,4.678224563598633,-5.9535369873046875,1.9763420820236206,3.940866231918335,0.31745851039886475,-1.1540288925170898,-0.9594088792800903,2.119840621948242
354,48715,48704,-0.038801781833171844,0.0967465415596962,0.9752474427223206,10.662910461425781,6.584437370300293,-6.587924957275391,1.976383924484253,3.939887285232544,0.3177926242351532,-1.265435814857483,-0.9679378867149353,2.071115732192993
355,48725,48714,-0.052149269729852676,0.16366632282733917,0.9649341106414795,5.5015740394592285,5.920955657958984,-7.735021591186523,1.9778422117233276,3.9406561851501465,0.317984014749527,-1.3591688871383667,-0.8650645017623901,2.0386955738067627
356,48735,48724,0.03469313308596611,-0.12964297831058502,0.9414380788803101,0.9023889303207397,2.397634506225586,-9.452312469482422,1.9787020683288574,3.941110610961914,0.3180983364582062,-1.329249620437622,-0.9230347275733948,1.9481967687606812
357,48745,48734,-0.027171779423952103,-0.007222187705338001,1.0185606479644775,-3.490764617919922,0.41219115257263184,-9.793862342834473,1.9788554906845093,3.941972017288208,0.32164767384529114,-1.2693265676498413,-0.9699022769927979,1.8279367685317993
358,48755,48744,0.09134027361869812,-0.03285543620586395,0.9164428114891052,-4.852309703826904,-0.23771509528160095,-10.110360145568848,1.9785932302474976,3.9418890476226807,0.32202714681625366,-1.3239107131958008,-0.9767987728118896,1.7632954120635986
359,48765,48754,-0.028163881972432137,0.09361580014228821,0.9481503367424011,-2.6924023628234863,2.4436163902282715,-9.3495512008667,1.9800083637237549,3.9418141841888428,0.3222399353981018,-1.3572781085968018,-1.0492146015167236,1.6641442775726318
360,48775,48764,0.051883064210414886,-0.10447636246681213,0.9608017802238464,0.7565903067588806,1.765781283378601,-9.248610496520996,1.9806560277938843,3.941648483276367,0.32092469930648804,-1.3049368858337402,-1.0622010231018066,1.5554291009902954
361,48785,48774,0.03910338133573532,0.03787527233362198,0.9723800420761108,3.501723527908325,-2.5365772247314453,-9.763993263244629,1.9805991649627686,3.941866159439087,0.32103946805000305,-1.3534435033798218,-1.0190116167068481,1.4675875902175903
362,48795,48784,0.0004083312232978642,-0.0345565527677536,0.9501160979270935,5.984065055847168,-5.44453763961792,-10.158329963684082,1.9815925359725952,3.941545248031616,0.3209924101829529,-1.3305851221084595,-0.9388371109962463,1.3611531257629395
363,48805,48794,-0.02667621523141861,0.0310115497559309,0.9995120763778687,10.322595596313477,-10.666525840759277,-9.9082670211792,1.9835987091064453,3.940847873687744,0.31875473260879517,-1.22400963306427,-0.8645131587982178,1.2473183870315552
364,48815,48804,-0.061580270528793335,-0.06822815537452698,0.953212559223175,11.835827827453613,-9.044434547424316,-9.751158714294434,1.98292875289917,3.940696954727173,0.31878581643104553,-1.1024394035339355,-0.8200070858001709,1.1292750835418701
365,48825,48814,-0.08342135697603226,-0.052688296884298325,0.9576960206031799,12.659476280212402,-8.596379280090332,-9.328701972961426,1.9836899042129517,3.941072702407837,0.3185703754425049,-1.0266798734664917,-0.8046749830245972,1.1375350952148438
366,48835,48824,-0.005970493424683809,-0.02597738616168499,0.9555327892303467,13.022134780883789,-11.857828140258789,-9.086737632751465,1.9838385581970215,3.941636323928833,0.31822657585144043,-1.1667661666870117,-0.8165097832679749,1.0853544473648071
367,48845,48834,-0.002472476800903678,2.070170194201637e-05,0.9907642602920532,11.835284233093262,-15.868664741516113,-9.296185493469238,1.9863656759262085,3.942924737930298,0.3177780210971832,-0.8299095034599304,-0.5711742043495178,0.9603132605552673
368,48855,48844,-0.023094337433576584,-0.030823808163404465,0.9939894676208496,9.588286399841309,-20.248994827270508,-8.818929672241211,1.9858810901641846,3.9425995349884033,0.31769126653671265,-0.7617096304893494,-0.43917199969291687,0.8540146946907043
369,48865,48854,-0.013135009445250034,-0.13262833654880524,1.0082764625549316,2.7170002460479736,-21.366317749023438,-9.611217498779297,1.9875744581222534,3.9421656131744385,0.31730180978775024,-0.6214043498039246,-0.3655739426612854,0.7303826808929443
370,48875,48864,-0.02323008142411709,-0.18069957196712494,0.9925040602684021,-3.3968751430511475,-15.432826042175293,-10.670697212219238,1.988813877105713,3.941983222961426,0.3190302848815918,-0.3378296196460724,-0.39677590131759644,0.6529377698898315
371,48885,48874,-0.012648439034819603,-0.08674217760562897,1.0106539726257324,-8.309727668762207,-3.5314836502075195,-12.080976486206055,1.9898761510849,3.9434728622436523,0.31886595487594604,-0.2417624294757843,-0.44280806183815,0.5252103805541992
372,48895,48884,0.04982129856944084,-0.048343218863010406,0.9665654897689819,-6.611473560333252,0.7561610341072083,-11.975467681884766,1.9915801286697388,3.9434165954589844,0.3186109662055969,-0.12453042715787888,-0.453103244304657,0.4109055697917938
373,48905,48894,0.08777503669261932,0.002424576785415411,1.0078206062316895,-2.884324789047241,4.948209285736084,-12.046364784240723,1.9922945499420166,3.9431822299957275,0.319978266954422,-0.11805512756109238,-0.5254319906234741,0.2988988161087036
374,48915,48904,-0.01762770488858223,-0.052263565361499786,0.9888136386871338,5.099277019500732,6.498211860656738,-11.589083671569824,1.9931339025497437,3.94335675239563,0.3198324739933014,-0.08825446665287018,-0.5147790908813477,0.1518176943063736
375,48925,48914,-0.03883790597319603,0.043939009308815,1.0281870365142822,11.763213157653809,6.248721122741699,-11.298370361328125,1.9938151836395264,3.9429996013641357,0.31974345445632935,-0.3217291533946991,-0.5453468561172485,0.06446484476327896
376,48935,48924,-0.03697269782423973,0.0509963221848011,1.0454331636428833,17.75214195251465,5.88089656829834,-10.734371185302734,1.9956984519958496,3.9438042640686035,0.3170372247695923,-0.30501458048820496,-0.37726616859436035,-0.07012692093849182
377,48945,48934,-0.019437626004219055,-0.010753128677606583,0.9758870005607605,17.921236038208008,2.0418107509613037,-10.371769905090332,1.9959843158721924,3.9431140422821045,0.31685736775398254,-0.34443894028663635,-0.21689601242542267,-0.1815236508846283
378,48955,48944,-0.0003364681906532496,-0.01709243841469288,1.0013813972473145,13.875100135803223,-4.491940498352051,-10.354053497314453,1.996842384338379,3.943349599838257,0.3166438937187195,-0.31617435812950134,-0.06679490953683853,-0.24665164947509766
379,48965,48954,0.004840497393161058,-0.014514371752738953,1.0100128650665283,8.293184280395508,-9.596681594848633,-10.647921562194824,1.9977800846099854,3.9446094036102295,0.31645819544792175,-0.3524935245513916,0.17234471440315247,-0.34166258573532104
380,48975,48964,-0.004063818138092756,-0.002801548922434449,1.0188261270523071,-0.015420559793710709,-16.50130271911621,-10.457180976867676,1.9994757175445557,3.944016933441162,0.31817179918289185,-0.20909303426742554,0.06910384446382523,-0.4762396514415741
381,48985,48974,-0.01565578207373619,0.024559883400797844,1.0521628856658936,-5.640884876251221,-20.271615982055664,-10.047992706298828,2.000504493713379,3.945817232131958,0.31817564368247986,-0.20406515896320343,0.09731844067573547,-0.6078052520751953
382,48995,48984,0.015628626570105553,-0.09967910498380661,1.035642147064209,-7.498518466949463,-21.200132369995117,-8.892939567565918,2.0029358863830566,3.9456310272216797,0.31798914074897766,0.17945000529289246,0.04000762104988098,-0.6978154182434082
383,49005,48994,0.03205880895256996,-0.12135402113199234,1.0146993398666382,-5.187176704406738,-17.484405517578125,-7.857098579406738,2.002424478530884,3.946413040161133,0.31977659463882446,0.15576352179050446,-0.026987649500370026,-0.7431239485740662
384,49015,49004,0.06412167102098465,-0.1200074627995491,1.0169360637664795,0.3324376046657562,-10.13478946685791,-6.999234199523926,2.005962371826172,3.9473276138305664,0.319796621799469,0.29778382182121277,-0.045241255313158035,-0.8228296637535095
385,49025,49014,-0.13410645723342896,-0.05519193783402443,1.0770342350006104,3.987304449081421,-2.4264416694641113,-5.79811429977417,2.0072081089019775,3.94722318649292,0.3199102580547333,0.4847694933414459,0.010477197356522083,-0.9117180109024048
386,49035,49024,-0.016866110265254974,0.0034078219905495644,1.0347466468811035,5.974344253540039,3.838026762008667,-4.86916971206665,2.008021116256714,3.946770429611206,0.31552743911743164,0.39796480536460876,0.04042099416255951,-0.9410285949707031
387,49045,49034,-0.044783614575862885,0.018542863428592682,1.0446637868881226,6.466167449951172,6.926590919494629,-5.280786037445068,2.010568618774414,3.9475643634796143,0.31540003418922424,0.3873344361782074,0.1755634993314743,-1.0106333494186401
388,49055,49044,-0.012901605106890202,-0.041056178510189056,0.9898898601531982,10.685505867004395,8.06568717956543,-6.6465229988098145,2.0116121768951416,3.946863889694214,0.31539714336395264,0.3984171450138092,0.2583613693714142,-1.0674221515655518
389,49065,49054,-0.02264336682856083,-0.026105578988790512,0.9847667813301086,17.207847595214844,6.3899407386779785,-7.725402355194092,2.0120737552642822,3.946800708770752,0.3154860734939575,0.39722394943237305,0.26508158445358276,-1.109178900718689
390,49075,49064,-0.04269260913133621,-0.004322604276239872,1.008074164390564,21.074682235717773,3.9570112228393555,-6.9963836669921875,2.012401580810547,3.9479804039001465,0.3133856952190399,0.3388989567756653,0.5189691781997681,-1.19355309009552
391,49085,49074,-0.010240184143185616,0.006957985460758209,0.9909132122993469,20.797937393188477,1.5379530191421509,-5.139717102050781,2.0135772228240967,3.947328567504883,0.3133171796798706,0.39407938718795776,0.7352254390716553,-1.2884973287582397
392,49095,49084,-0.0075481971725821495,-0.056879922747612,0.9510883092880249,12.45427131652832,-1.6219470500946045,-4.1214141845703125,2.013894557952881,3.947110891342163,0.3133182227611542,0.18176983296871185,0.83222496509552,-1.3325990438461304
393,49105,49094,-0.04116659238934517,-0.0933154821395874,0.9640948176383972,-1.0402768850326538,-3.817582845687866,-4.152251720428467,2.0167202949523926,3.9483907222747803,0.3151389956474304,0.33244284987449646,1.0077762603759766,-1.4073388576507568
394,49115,49104,0.02369200438261032,-0.08812417834997177,0.9899057745933533,-12.48753833770752,-9.017203330993652,-4.089415073394775,2.016411542892456,3.9475667476654053,0.3152328431606293,0.3708915114402771,0.8967642188072205,-1.4382543563842773
395,49125,49114,0.03125007823109627,-0.08444925397634506,0.979802131652832,-18.987314224243164,-10.777101516723633,-4.879140853881836,2.0175390243530273,3.9493327140808105,0.31523656845092773,0.47063127160072327,0.8514912724494934,-1.5007009506225586
396,49135,49124,0.005792356561869383,-0.029469192028045654,0.9901953935623169,-20.37010955810547,-7.433011531829834,-5.979525089263916,2.0189383029937744,3.949115037918091,0.31547364592552185,0.4993947446346283,0.5659462809562683,-1.6032074689865112
397,49145,49134,-0.010207184590399265,-0.04552068933844566,0.9757603406906128,-14.349675178527832,-4.24571418762207,-5.7339582443237305,2.0207972526550293,3.9494340419769287,0.31534630060195923,0.48926687240600586,0.6008957028388977,-1.6851558685302734
398,49155,49144,-0.01133875921368599,-0.018684571608901024,0.9959832429885864,-5.797263145446777,-0.01005492266267538,-5.837090969085693,2.022430896759033,3.9476242065429688,0.3153400421142578,0.5856478214263916,0.40355977416038513,-1.765610933303833
399,49165,49154,-0.004380008205771446,0.005787873640656471,1.0088204145431519,2.979609727859497,2.7031092643737793,-3.690188407897949,2.0228137969970703,3.9475960731506348,0.3168201744556427,0.6782926917076111,0.3589231073856354,-1.8416461944580078
400,49175,49164,-0.011864219792187214,0.08551924675703049,1.0171749591827393,6.0514397621154785,8.259028434753418,-1.9093414545059204,2.022838830947876,3.9470407962799072,0.31690752506256104,0.5978942513465881,0.4273797273635864,-1.9064042568206787
401,49185,49174,0.0336717888712883,0.0455981120467186,0.943907618522644,8.598068237304688,7.746240615844727,-0.9309440851211548,2.0243189334869385,3.9464926719665527,0.3169354796409607,0.5803119540214539,0.5411152243614197,-1.9791935682296753
402,49195,49184,0.002040783641859889,-0.0075364490039646626,0.9891682267189026,8.514739036560059,7.696481704711914,-0.3512081503868103,2.02484130859375,3.945871353149414,0.3169892430305481,0.5588130354881287,0.5293039083480835,-1.956096887588501
403,49205,49194,-0.03012479841709137,-0.09704969078302383,1.017311692237854,6.636608600616455,10.085493087768555,-0.0797954872250557,2.0253958702087402,3.9462296962738037,0.3180938959121704,0.37301984429359436,0.5962802171707153,-1.9398469924926758
404,49215,49204,-0.0018875886453315616,-0.03153534233570099,1.0008690357208252,1.562371015548706,10.396424293518066,-0.23321674764156342,2.0274858474731445,3.946514844894409,0.31810814142227173,0.3061829209327698,0.6904317736625671,-1.9506773948669434
405,49225,49214,0.027013884857296944,0.0639512687921524,0.9574680924415588,-4.2445549964904785,8.852869033813477,-0.3201364278793335,2.0283684730529785,3.9465885162353516,0.31821200251579285,0.23480550944805145,0.6985101699829102,-1.9047924280166626
406,49235,49224,0.02426789700984955,-0.0068645779974758625,0.9597145915031433,-9.315234184265137,7.100914001464844,-0.9955559968948364,2.029470443725586,3.9474942684173584,0.3152000606060028,0.18640947341918945,0.6177157163619995,-1.9103344678878784
407,49245,49234,0.016459476202726364,0.0016114817699417472,0.9897552728652954,-12.237707138061523,4.277929782867432,-0.8654735088348389,2.0300779342651367,3.9483137130737305,0.31508907675743103,0.08751404285430908,0.5408182740211487,-1.919030785560608
408,49255,49244,-0.022890886291861534,-0.013572012074291706,0.9771571159362793,-8.701882362365723,-1.1737217903137207,-0.5110897421836853,2.0311079025268555,3.9478561878204346,0.31491580605506897,-0.10683690011501312,0.4449526071548462,-1.923828125
409,49265,49254,0.029112957417964935,0.08524264395236969,0.9530531167984009,-0.9627462029457092,-9.522016525268555,0.426240473985672,2.0324459075927734,3.9477033615112305,0.3144710958003998,0.038176584988832474,0.415557324886322,-1.9153063297271729
410,49275,49264,-0.02219887636601925,-0.04581023380160332,0.9933565258979797,5.9730095863342285,-15.052544593811035,0.48361724615097046,2.032102108001709,3.947295904159546,0.31461143493652344,0.009800302796065807,0.4221057891845703,-1.8755826950073242
411,49285,49274,-0.03322101756930351,0.023154381662607193,1.012123942375183,6.646702289581299,-17.999597549438477,-0.23826175928115845,2.0341758728027344,3.9475395679473877,0.31426888704299927,0.2205277681350708,0.4336104691028595,-1.8858321905136108
412,49295,49284,-0.05607832595705986,0.0033333348110318184,1.0261452198028564,1.3163028955459595,-13.995696067810059,-0.8139596581459045,2.0347208976745605,3.948026180267334,0.3141132593154907,0.3734414279460907,0.513607919216156,-1.84469735622406
413,49305,49294,0.019907422363758087,-0.05537028610706329,0.9671627283096313,-2.7495980262756348,-8.039451599121094,-1.3883466720581055,2.0358123779296875,3.947965621948242,0.31282374262809753,0.45583394169807434,0.5191338062286377,-1.8859423398971558
414,49315,49304,-0.01468615885823965,-0.008117341436445713,1.013209342956543,-5.692718029022217,-0.9151692390441895,-2.212841272354126,2.037520408630371,3.9474778175354004,0.3124874532222748,0.6655324101448059,0.45832258462905884,-1.919780969619751
415,49325,49314,-0.030724503099918365,-0.1002250611782074,1.014499306678772,-3.1367969512939453,0.9956791400909424,-1.7943084239959717,2.0372629165649414,3.9475491046905518,0.31226104497909546,0.5419480204582214,0.38307520747184753,-1.9367820024490356
416,49335,49324,-0.029236111789941788,-0.14276935160160065,1.021331787109375,1.2648910284042358,3.5713257789611816,-1.3044036626815796,2.0394375324249268,3.9478468894958496,0.3129679262638092,0.6133403182029724,0.4272703230381012,-1.9920181035995483
417,49345,49334,-0.015503295697271824,0.0046892547979950905,1.0282478332519531,3.944610834121704,6.729589462280273,-1.260250449180603,2.039599895477295,3.9471449851989746,0.3128247559070587,0.6404264569282532,0.4465353786945343,-1.978353500366211
418,49355,49344,-0.009283884428441525,-0.02032127045094967,0.9617601037025452,6.072943687438965,9.763253211975098,-0.9125593304634094,2.039577007293701,3.946544647216797,0.3126802444458008,0.6123360991477966,0.43521010875701904,-1.9874193668365479
419,49365,49354,-0.007874896749854088,0.0034197564236819744,0.9887287020683289,7.046548366546631,8.915539741516113,-0.24647797644138336,2.0399086475372314,3.946608543395996,0.3099616467952728,0.4636348783969879,0.5331640839576721,-1.996899127960205
420,49375,49364,-0.02911253459751606,-0.012284188531339169,1.011885166168213,9.276619911193848,5.433856010437012,0.0432853065431118,2.0414745807647705,3.9462647438049316,0.30954933166503906,0.40630683302879333,0.6516521573066711,-2.050154209136963
421,49385,49374,-0.007151283789426088,0.019838377833366394,0.9808831810951233,10.213655471801758,-5.291705131530762,1.687813401222229,2.0417397022247314,3.9449844360351562,0.30919191241264343,0.2844444811344147,0.6386603116989136,-2.0497865676879883
422,49395,49384,0.011473646387457848,-0.012990009039640427,0.9958680868148804,8.020014762878418,-14.978594779968262,2.784925937652588,2.0427048206329346,3.9456608295440674,0.3088505268096924,0.41153138875961304,0.7881277203559875,-2.067777156829834
423,49405,49394,-0.021381894126534462,0.012486647814512253,1.034866452217102,3.1492388248443604,-20.64312171936035,4.209600925445557,2.0427796840667725,3.94480037689209,0.30928710103034973,0.4528813660144806,0.8867415189743042,-2.063110828399658
424,49415,49404,-0.0628378614783287,-0.07488064467906952,1.0431056022644043,-3.162851572036743,-14.39617919921875,4.421664237976074,2.044326066970825,3.944382429122925,0.30892857909202576,0.8786699175834656,0.8986853957176208,-2.0080912113189697
425,49425,49414,-0.08177617192268372,-0.051098283380270004,1.0834248065948486,-11.58850383758545,-1.4329731464385986,4.907983303070068,2.043299436569214,3.944613456726074,0.3087577819824219,0.8915861248970032,0.863644540309906,-1.9915908575057983
426,49435,49424,-0.05064454302191734,-0.027087848633527756,1.021061897277832,-15.49392318725586,10.936094284057617,5.729959487915039,2.0456018447875977,3.944223165512085,0.3072896897792816,0.8658139705657959,0.7199423313140869,-1.960060715675354
427,49445,49434,-0.01838923990726471,0.02258767932653427,0.9724125266075134,-14.768275260925293,19.362991333007812,6.1679840087890625,2.0469889640808105,3.9442331790924072,0.30704832077026367,0.8071979284286499,0.5314847230911255,-1.9354569911956787
428,49455,49444,-0.04678083956241608,0.014952093362808228,1.0421900749206543,-13.347332000732422,21.631628036499023,8.098559379577637,2.047706127166748,3.943972110748291,0.3068449795246124,0.47738322615623474,0.5052657127380371,-1.950729250907898
429,49465,49454,-0.05423213914036751,0.10983522981405258,1.0207562446594238,-7.189702033996582,20.479820251464844,10.171257972717285,2.049701690673828,3.94205379486084,0.3066844344139099,0.34568914771080017,0.35152679681777954,-1.805240273475647
430,49475,49464,-0.0028193057514727116,0.0542592778801918,1.0044759511947632,-3.6759393215179443,19.27625846862793,8.996318817138672,2.0501675605773926,3.942589282989502,0.30657050013542175,0.1653653234243393,0.29865238070487976,-1.6726458072662354
431,49485,49474,-0.04810982942581177,-0.08164506405591965,1.0287622213363647,-0.5881568193435669,13.197232246398926,9.001593589782715,2.0503897666931152,3.9424288272857666,0.30641984939575195,-0.04248105362057686,0.22613364458084106,-1.5938056707382202
432,49495,49484,-0.03635746240615845,-0.08018606901168823,1.037064552307129,1.1297158002853394,6.046481609344482,7.400647163391113,2.0511064529418945,3.942248582839966,0.30627506971359253,0.0043680788949131966,0.27772653102874756,-1.4907448291778564
433,49505,49494,-0.02402191422879696,0.00593606336042285,1.023757815361023,-2.841416835784912,-2.486666679382324,4.949743747711182,2.050715684890747,3.941617965698242,0.30730801820755005,0.009808770380914211,0.23849178850650787,-1.4295775890350342
434,49515,49504,-0.09565956890583038,-0.010367021895945072,1.050158977508545,-8.801651954650879,-8.98258113861084,3.397597551345825,2.05063533782959,3.9414899349212646,0.30737748742103577,-0.0037850819062441587,0.2108452022075653,-1.3292843103408813
435,49525,49514,-0.11609464883804321,-0.006465993355959654,1.0005567073822021,-17.82032012939453,-8.982488632202148,1.688467025756836,2.0520694255828857,3.9420337677001953,0.30736589431762695,0.13465151190757751,0.06049191206693649,-1.3379240036010742
436,49535,49524,-0.02072691172361374,0.011199763044714928,1.014405369758606,-25.338191986083984,-3.7223875522613525,0.8983933925628662,2.052208662033081,3.941678047180176,0.3059616684913635,0.15179786086082458,-0.15068449079990387,-1.3461350202560425
437,49545,49534,-0.04644642025232315,-0.022735968232154846,1.0360283851623535,-25.6043758392334,2.214308977127075,-0.46888354420661926,2.0531704425811768,3.9413177967071533,0.30593541264533997,0.23922917246818542,-0.28454601764678955,-1.3546251058578491
438,49555,49544,-0.03214103728532791,0.0264537762850523,1.0265161991119385,-21.70131492614746,10.514431953430176,-0.7808599472045898,2.05354642868042,3.940030574798584,0.30605608224868774,0.2082405537366867,-0.5647943615913391,-1.3781927824020386
439,49565,49554,-0.02317056618630886,-0.02771828882396221,0.9933042526245117,-16.17568016052246,20.17116928100586,-1.0636553764343262,2.0542125701904297,3.9397637844085693,0.30432066321372986,0.03159602731466293,-0.6916469931602478,-1.3979398012161255
440,49575,49564,0.007420515641570091,-0.039236754179000854,0.9839632511138916,-10.653172492980957,24.26637077331543,-0.8376217484474182,2.055135726928711,3.938546895980835,0.30426666140556335,-0.18751390278339386,-0.7292167544364929,-1.40549635887146
441,49585,49574,-0.019109342247247696,0.006825560703873634,1.0396020412445068,-6.7211151123046875,25.223051071166992,-2.8419487476348877,2.0564563274383545,3.9369776248931885,0.3042479157447815,-0.45259130001068115,-0.9310920834541321,-1.3402024507522583
442,49595,49584,-0.02336384728550911,-0.036673784255981445,1.0095806121826172,-1.4587658643722534,25.214134216308594,-4.759389877319336,2.0580532550811768,3.9387738704681396,0.3014284670352936,-0.7574849724769592,-0.9768645167350769,-1.454097867012024
443,49605,49594,-0.004129070322960615,0.1468944400548935,0.987080991268158,4.845130920410156,18.25225067138672,-4.663410186767578,2.0586273670196533,3.936967611312866,0.3012072443962097,-0.9094448685646057,-0.9981145858764648,-1.5437474250793457
444,49615,49604,0.0177876316010952,-0.019118977710604668,0.9487619996070862,10.862774848937988,6.880765438079834,-4.132161617279053,2.0586812496185303,3.936319589614868,0.30112794041633606,-1.0761274099349976,-0.9018962383270264,-1.5421499013900757
445,49625,49614,-0.028075488284230232,0.044282760471105576,1.0439542531967163,14.791142463684082,-5.885995864868164,-4.083195209503174,2.0595943927764893,3.936354637145996,0.3009183704853058,-0.9642345905303955,-0.728939414024353,-1.6066265106201172
446,49635,49624,-0.017060434445738792,-0.20779737830162048,1.0186079740524292,16.02640151977539,-11.200821876525879,-4.193235397338867,2.0583369731903076,3.9353678226470947,0.2998530864715576,-0.9361376762390137,-0.6644889712333679,-1.612290859222412
447,49645,49634,-0.03533323481678963,-0.09799468517303467,1.063003420829773,11.870222091674805,-10.713644981384277,-5.256011486053467,2.0593018531799316,3.936262845993042,0.2996285557746887,-0.7712845802307129,-0.5247963070869446,-1.6425687074661255
448,49655,49644,-0.006487999111413956,-0.11639422923326492,0.9661243557929993,2.782745838165283,-5.756178379058838,-5.189399242401123,2.059433937072754,3.936411142349243,0.29950541257858276,-0.6554643511772156,-0.4205259084701538,-1.7402173280715942
449,49665,49654,-0.0055367122404277325,-0.03957092761993408,0.993276059627533,-7.936158657073975,3.582965612411499,-5.669443130493164,2.059792995452881,3.935455560684204,0.3001462519168854,-0.7346094846725464,-0.47952157258987427,-1.7634533643722534
450,49675,49664,-0.019577516242861748,0.08690504729747772,1.0027917623519897,-11.850275039672852,6.988560676574707,-6.291717052459717,2.0608973503112793,3.9360849857330322,0.299977570772171,-0.7392855882644653,-0.6561160087585449,-1.8554506301879883
451,49685,49674,-0.002943939296528697,-0.02803708054125309,0.9793524146080017,-10.17517375946045,4.58009147644043,-6.001672267913818,2.061267137527466,3.9363527297973633,0.2998368740081787,-0.7749691009521484,-0.7111415266990662,-1.9114848375320435
452,49695,49684,-0.014747556298971176,-0.06574273854494095,1.0248327255249023,-6.03919792175293,3.0133635997772217,-6.923952579498291,2.06136417388916,3.9357922077178955,0.2994708716869354,-0.8668289184570312,-0.7873433232307434,-1.9251563549041748
453,49705,49694,-0.02763684280216694,-0.00581693509593606,1.0057015419006348,2.3363265991210938,-2.605940580368042,-6.818965435028076,2.0624494552612305,3.936087131500244,0.2992982864379883,-0.8797546029090881,-0.8308529853820801,-2.032590389251709
454,49715,49704,0.011651662178337574,0.0020056776702404022,0.9990065097808838,6.8950066566467285,-6.221945762634277,-5.838811874389648,2.0629358291625977,3.936004877090454,0.29914194345474243,-0.9787484407424927,-0.766790509223938,-2.040766716003418
455,49725,49714,-0.030924560502171516,0.07588417828083038,1.0080903768539429,7.734900951385498,-3.0328824520111084,-4.8688554763793945,2.0643486976623535,3.9354922771453857,0.29888466000556946,-0.8066039681434631,-0.6539985537528992,-2.117910385131836
456,49735,49724,-0.0516824871301651,0.01618797332048416,1.0412399768829346,5.874973773956299,-1.1624298095703125,-2.8088362216949463,2.0639474391937256,3.93475341796875,0.29919564723968506,-0.6813520193099976,-0.6303198933601379,-2.2022287845611572
457,49745,49734,0.019851619377732277,-0.007226340472698212,1.0018260478973389,3.1627821922302246,-0.10844925791025162,-0.3862862288951874,2.063896417617798,3.9346916675567627,0.299141526222229,-0.847384512424469,-0.6391716599464417,-2.2138054370880127
458,49755,49744,0.15102502703666687,-0.06950961798429489,0.9951504468917847,-0.6648723483085632,3.115499258041382,0.33795642852783203,2.0658280849456787,3.935100555419922,0.2989449203014374,-0.7932120561599731,-0.6196810007095337,-2.274097442626953
459,49765,49754,0.020409082993865013,-0.044755320996046066,1.0051829814910889,-5.503671169281006,3.250396490097046,1.3933358192443848,2.065962553024292,3.9352991580963135,0.29890498518943787,-0.9264066815376282,-0.6666275858879089,-2.2505056858062744
460,49775,49764,-0.052686214447021484,-0.07668475061655045,1.0303120613098145,-11.645936012268066,4.839549541473389,1.6087663173675537,2.066239833831787,3.934544324874878,0.2986830174922943,-0.9066661596298218,-0.6506808996200562,-2.2029759883880615
461,49785,49774,-0.12948429584503174,-0.06218941882252693,1.0646085739135742,-17.365236282348633,5.99343729019165,0.8114114999771118,2.066305160522461,3.934257984161377,0.2986815273761749,-0.9924806356430054,-0.9009602665901184,-2.2042999267578125
462,49795,49784,-0.015130792744457722,0.020185396075248718,1.041277289390564,-18.687339782714844,5.970553398132324,0.45894354581832886,2.0671820640563965,3.9351751804351807,0.29975399374961853,-1.0543322563171387,-1.1143219470977783,-2.249525547027588
463,49805,49794,-0.042933423072099686,-0.05070677027106285,1.033426284790039,-16.318126678466797,6.85493803024292,-0.023795776069164276,2.0683975219726562,3.934985637664795,0.2997947931289673,-1.2981882095336914,-1.2491405010223389,-2.238478660583496
464,49815,49804,-0.001208739122375846,0.006080483086407185,0.9799337387084961,-9.885702133178711,-1.3200907707214355,-0.17146071791648865,2.0699517726898193,3.9342520236968994,0.29966726899147034,-1.3169959783554077,-1.3850847482681274,-2.287811279296875
465,49825,49814,-0.04394960030913353,0.0488814078271389,1.031632900238037,-1.1528692245483398,-11.172016143798828,-1.929141879081726,2.0700502395629883,3.933684825897217,0.2998708188533783,-1.1552740335464478,-1.4711869955062866,-2.415489912033081
466,49835,49824,-0.07346014678478241,0.08203210681676865,1.0689749717712402,4.627504348754883,-20.370468139648438,-1.757951259613037,2.069143533706665,3.9318273067474365,0.3025208115577698,-1.007155418395996,-1.4400181770324707,-2.3927390575408936
467,49845,49834,-0.08052710443735123,-0.094084233045578,1.0936520099639893,10.02122688293457,-14.604394912719727,-4.601387977600098,2.0696017742156982,3.932269334793091,0.30292096734046936,-0.6849564909934998,-1.3087176084518433,-2.520131826400757
468,49855,49844,-0.04480107128620148,-0.18785405158996582,1.0409836769104004,11.889455795288086,-8.111315727233887,-4.577585220336914,2.0685689449310303,3.930323362350464,0.3034740686416626,-0.6841478943824768,-1.1993610858917236,-2.492995262145996
469,49865,49854,-0.030684253200888634,0.03388978913426399,1.0129534006118774,13.176450729370117,4.169737815856934,-5.789735794067383,2.0710113048553467,3.930931568145752,0.3057921826839447,-0.6686751246452332,-1.1278345584869385,-2.5274624824523926
470,49875,49864,-0.08139863610267639,0.040013622492551804,1.0181360244750977,11.781615257263184,13.29152774810791,-6.291627407073975,2.072681188583374,3.9312551021575928,0.3063906133174896,-0.684413492679596,-0.9019952416419983,-2.6589057445526123
471,49885,49874,0.01042445283383131,0.02425334043800831,0.9874675273895264,9.476146697998047,15.177803039550781,-5.340357780456543,2.07241153717041,3.9294090270996094,0.3070532977581024,-1.099753737449646,-0.8575514554977417,-2.590604782104492
472,49895,49884,-0.040342848747968674,-0.05858950316905975,0.9675549864768982,3.8404273986816406,12.155790328979492,-5.714966297149658,2.07615065574646,3.9316139221191406,0.3075595200061798,-1.1188302040100098,-0.7968423366546631,-2.6631736755371094
473,49905,49894,-0.06220113858580589,-0.08448963612318039,1.0046604871749878,-2.5067203044891357,1.2199941873550415,-4.551346302032471,2.076185941696167,3.9320173263549805,0.3084213137626648,-1.1995174884796143,-0.8372895121574402,-2.750858783721924
474,49915,49904,-0.013499593362212181,-0.003831078764051199,0.968963623046875,-3.0810279846191406,-11.038493156433105,-2.9936482906341553,2.077606678009033,3.932537317276001,0.3090588450431824,-1.149051308631897,-0.9250443577766418,-2.849281072616577
475,49925,49914,-0.027230611070990562,-0.005679480731487274,0.9810042381286621,1.226865530014038,-22.091611862182617,-2.5210418701171875,2.078256845474243,3.932779312133789,0.3097696602344513,-0.9695507287979126,-0.904354453086853,-2.904944658279419
476,49935,49924,-0.01829591393470764,-0.006281749811023474,0.9743017554283142,7.548852443695068,-26.84151840209961,-1.1225749254226685,2.0791268348693848,3.9329376220703125,0.31088727712631226,-0.5931622385978699,-0.8020334839820862,-2.8529441356658936
477,49945,49934,0.002677926793694496,-0.0937189906835556,0.9596829414367676,15.091208457946777,-29.884096145629883,-0.3454802632331848,2.0790889263153076,3.9330220222473145,0.3117457330226898,-0.5417830348014832,-0.6671867966651917,-2.9317169189453125
478,49955,49944,0.04017041251063347,-0.23458042740821838,0.9376171827316284,21.018659591674805,-28.337596893310547,1.3890104293823242,2.081390857696533,3.931201696395874,0.3121432065963745,-0.2164454162120819,-0.42480212450027466,-3.0019690990448
479,49965,49954,-0.08273068815469742,-0.10446183383464813,1.0112916231155396,19.81496810913086,-18.097896575927734,1.4939258098602295,2.082155466079712,3.930403470993042,0.3109317421913147,0.14840956032276154,-0.21893171966075897,-3.0397772789001465
480,49975,49964,-0.04404029622673988,0.02893422544002533,1.0247222185134888,13.190743446350098,-6.738587379455566,1.517943263053894,2.0817694664001465,3.9290473461151123,0.3113939166069031,0.12110765278339386,-0.14475971460342407,-3.124202013015747
