,timestamp_start,timestamp_end,acc.x,acc.y,acc.z,gyro.x,gyro.y,gyro.z,stateEstimate.x,stateEstimate.y,stateEstimate.z,stabilizer.pitch,stabilizer.roll,stabilizer.yaw
0,33129,33127,0.0108944904,0.0193184577,1.0016868114,5.5092601776,10.1306257248,-0.2731691599,1.6859561205,3.8774523735,0.1918526143,6.04083834332414E-05,-1.0614905357,3.0055916309
1,33139,33137,-0.0340809375,-0.04784666,1.03627491,7.3192062378,3.9825742245,-0.2502627671,1.6890176535,3.879240036,0.1931868941,-0.1648674458,-1.033616066,3.0170140266
2,33149,33147,-0.0004971756,-0.0242317319,1.0267679691,8.3392601013,-3.6797170639,-0.2463153899,1.6924278736,3.8815689087,0.1948033273,-0.1968874633,-0.8994179368,3.0124857426
3,33159,33157,-0.0076590888,-0.0287279096,1.0076911449,8.1189279556,-7.9452309608,0.2957098186,1.6899449825,3.8831686974,0.197000131,0.3143258989,-0.9021821618,2.9461069107
4,33169,33167,0.0021173994,-0.1082655713,0.9738076925,6.7582297325,-7.2778558731,1.5192410946,1.6929028034,3.8826472759,0.1993398219,0.0156809483,-0.7533004284,3.0028412342
5,33179,33177,-0.001533114,-0.0400688201,1.0153861046,6.1523861885,-3.5921645164,0.7118097544,1.6874785423,3.881282568,0.2044045627,0.7991400957,-0.423458308,2.9047071934
6,33189,33187,-0.0095819579,-0.0604253188,0.9916958213,3.5023674965,2.4867544174,2.1256566048,1.6873877048,3.8797850609,0.2065185755,0.7199441195,-0.2900283337,2.9253265858
7,33199,33197,0.0248502214,-0.0198485833,1.0007666349,-1.8355544806,14.5823278427,1.338866353,1.6894727945,3.879509449,0.2091256231,0.4618741274,-0.3580724001,2.9714269638
8,33209,33207,-0.0027535595,0.0048468886,1.0226248503,-5.983982563,19.7190170288,1.3443052769,1.6888924837,3.8787238598,0.2118928879,0.198658064,-0.5013364553,2.997781992
9,33219,33217,0.0351035856,-0.0860684291,0.995170176,-8.5270814896,23.4828357697,0.6710823178,1.6946570873,3.88133955,0.2140230983,-0.2114599943,-0.6178342104,3.0252952576
10,33229,33227,0.0584412552,-0.0669538379,0.9571590424,-7.77389431,18.676404953,1.2892364264,1.6940784454,3.8814105988,0.2160055488,-0.4853707254,-0.7583218217,3.0331552029
11,33239,33237,-0.0201638471,-0.01330839,1.0383229256,-4.3965878487,16.0771579742,1.446721673,1.6949532032,3.8839666843,0.2194695622,-0.6746156812,-0.6461570263,3.0437572002
12,33249,33247,-0.0285615157,0.0016315747,1.0084153414,2.4283833504,4.0122022629,0.802136302,1.6944983006,3.8846275806,0.2215150297,-0.9094520211,-0.8407614231,3.0506196022
13,33259,33257,-0.0208976734,0.018316647,0.9879093766,7.5949077606,-7.1106686592,0.5756827593,1.6850754023,3.8898618221,0.2239247262,-0.8700191975,-0.6230739355,3.0644433498
14,33269,33267,-0.0498206727,-0.0167499185,0.9763528109,10.8997840881,-14.7776594162,0.5715875626,1.6863075495,3.8868846893,0.2260535061,-0.75238657,-0.3513675034,3.0845682621
15,33279,33277,-0.0863917693,0.0841415301,0.9707433581,10.0859355927,-14.8769836426,0.5073120594,1.6850575209,3.8858809471,0.2288393974,-0.5316730738,-0.2019140273,3.0912451744
16,33289,33287,0.0149196796,0.0007676224,0.9558604956,5.4416069984,-12.5624952316,0.7334740758,1.6853526831,3.8901064396,0.2310367972,-0.3282697201,-0.1591907144,3.0920989513
17,33299,33297,-0.0169899054,-0.2480384558,0.9275642037,-0.8311879039,-8.2487211227,0.2029265463,1.6857489347,3.8851027489,0.2333100885,-0.1693673134,-0.3990153074,3.0735816956
18,33309,33307,-0.0365315527,-0.1469570547,0.9436234236,-7.2329177856,-0.7317403555,0.3275443017,1.6908423901,3.8853781223,0.2370065302,-0.817209661,-0.5145899057,3.0834975243
19,33319,33317,-0.008149677,-0.0227659903,0.943025887,-8.0092515945,2.8150036335,0.1561550796,1.6815122366,3.8778927326,0.2416572273,0.2919023335,-0.0449316092,3.1206316948
20,33329,33327,0.0145170279,-0.0167448372,0.9124344587,-8.4354038239,6.0769681931,0.3930846453,1.6779536009,3.8843324184,0.2442492247,0.5138792396,-0.9185860157,3.0443882942
21,33339,33337,-0.0527600609,0.0180548765,0.9708519578,-5.1968426704,11.419672966,0.460303545,1.6789550781,3.884680748,0.2485577762,0.3484251499,-0.9993369579,3.0486428738
22,33349,33347,-0.071905382,0.0388609171,0.9791974425,0.642835021,20.5569705963,0.3710765541,1.6802423,3.8845231533,0.2512667775,0.0075016967,-1.0045017004,3.0556871891
23,33359,33357,-0.0363570787,0.0789474696,0.9492263198,10.5021219254,23.3327159882,0.375957787,1.682612896,3.8860754967,0.2536359131,-0.284190774,-0.8890811801,3.0626747608
24,33369,33367,0.0150521966,-0.0173205081,0.9161550999,16.3645744324,21.9909801483,0.394187063,1.6838414669,3.8877031803,0.2548066378,-0.6628681421,-0.8535141945,3.0604681969
25,33379,33377,0.0182001702,-0.030901948,0.9221704006,18.4042778015,17.6659832001,0.1799209714,1.6875314713,3.8906424046,0.2568271756,-0.9826532006,-0.6540948153,3.065808773
26,33389,33387,0.0434271656,-0.0320507325,0.9291586876,20.2059211731,5.8655309677,-0.9476226568,1.6888165474,3.8903794289,0.2589109242,-1.1766217947,-0.2776992917,3.0813920498
27,33399,33397,0.0224748272,-0.0246329159,0.8874692917,16.7516593933,-4.3323154449,-1.5164840221,1.6918188334,3.890737772,0.2607200444,-1.2682865858,-0.0627419949,3.0747320652
28,33409,33407,0.0181228146,-0.0378943719,0.9040449858,11.579117775,-12.3674345016,-1.636479497,1.6908471584,3.8935513496,0.2632954717,-1.1864365339,-0.1291134804,3.0295901299
29,33419,33417,-0.0284889024,0.0138233751,0.936847806,5.8222222328,-16.6590137482,-1.8829866648,1.690505743,3.894097805,0.2650733888,-0.9853058457,0.0220250152,3.0170931816
30,33429,33427,0.0252276249,-0.0247677248,0.8728157282,2.1128363609,-17.4360771179,-2.3092498779,1.6893820763,3.8930613995,0.2667731345,-0.7442876697,0.1549061984,3.0064499378
31,33439,33437,0.0302696452,0.0044495049,0.8930883408,-0.4196064472,-14.6029233932,-2.2845880985,1.6915384531,3.893671751,0.2673496604,-0.7935484052,0.0823703483,2.9690856934
32,33449,33447,0.0346953869,-0.0237233695,0.8764771819,0.0468887538,-9.5237646103,-2.1143393517,1.6899117231,3.8937630653,0.2687696517,-0.587644577,0.1248464435,2.9546608925
33,33459,33457,0.0210208297,-0.0457759425,0.881898284,1.6939967871,-4.3012032509,-1.8847767115,1.6920944452,3.8950920105,0.2700327039,-0.6193718314,0.1037544608,2.9290904999
34,33469,33467,0.0003115791,-0.0156029258,0.9082275033,3.1681139469,0.5705718398,-1.6460975409,1.6939647198,3.8955919743,0.2735572457,-0.6440325379,0.1150225401,2.9074728489
35,33479,33477,0.1832867265,-0.0380357243,0.8612148166,5.3904385567,5.3820466995,-1.7015548944,1.6955938339,3.8968830109,0.2747575641,-0.6842142344,0.1583196074,2.891453743
36,33489,33487,0.0830785632,-0.0451290719,0.8893104196,7.192574501,0.1230472624,-1.5723524094,1.6968873739,3.8971822262,0.2757746279,-0.8701640368,0.1616844684,2.8597621918
37,33499,33497,-0.0213799067,0.0119688772,0.9155054688,9.1663389206,-5.774471283,-1.460490942,1.6968528032,3.8964164257,0.2768345773,-0.8286130428,0.3431588113,2.8628849983
38,33509,33507,-0.0343199521,-0.0478492714,0.9144875407,6.8499898911,-0.7018891573,-1.8225809336,1.6973098516,3.8954803944,0.277064532,-0.7999905348,0.4566135406,2.850553751
39,33519,33517,0.0252388511,-0.0477815717,0.9107265472,4.5719285011,4.4894833565,-2.2319381237,1.6981295347,3.8958902359,0.2778736949,-0.7660652995,0.4628255367,2.8230805397
40,33529,33527,-0.0151584176,0.0251269322,0.9245857,3.3363969326,5.3930373192,-2.041400671,1.6981709003,3.8968715668,0.2785944343,-0.8121781349,0.5125015378,2.8006634712
41,33539,33537,-0.0147058265,0.0168451499,0.9175462723,1.447822094,9.4626207352,-2.0054626465,1.7022579908,3.8965055943,0.281298399,-1.1198095083,0.6004573703,2.7716407776
42,33549,33547,0.0195409004,-0.01312951,0.9414499402,-0.5173121095,10.1719665527,-2.5874733925,1.7019795179,3.8968572617,0.2820590734,-1.1506909132,0.5772532821,2.7533922195
43,33559,33557,0.0175777879,-0.0339251794,0.9098690748,-2.0958502293,6.2746415138,-2.4087617397,1.7028927803,3.8979377747,0.2828243673,-1.1791971922,0.6006893516,2.7393598557
44,33569,33567,0.0474691279,0.0440789834,0.9899170399,-2.4559795856,7.8579993248,-2.7351374626,1.7027221918,3.9003794193,0.2838254571,-1.2273117304,0.2361619622,2.6547930241
45,33579,33577,-0.0209064186,0.0773308277,0.9822750688,3.4655539989,-0.4542126954,-2.388676405,1.7027131319,3.9005746841,0.2845260799,-1.2410777807,0.2332356274,2.6312625408
46,33589,33587,0.0140601881,-0.0166626498,0.9469015598,8.8014593124,-3.0346617699,-2.2223784924,1.7039512396,3.9001703262,0.2851977944,-1.2405748367,0.4040602148,2.6261069775
47,33599,33597,0.0222393814,-0.0291491617,0.9404096603,11.2840137482,0.5428708196,-2.1625211239,1.7037234306,3.8992323875,0.2843017578,-1.1338539124,0.6313740015,2.6346724033
48,33609,33607,0.0479088761,-0.0738107488,0.934527576,11.8500051498,-4.4307441711,-1.9480904341,1.7039003372,3.9000239372,0.2846765816,-1.1882684231,0.6550754309,2.5875558853
49,33619,33617,-0.0109173618,-0.022511987,0.9495843649,9.0134954453,-3.676810503,-1.5212152004,1.703150034,3.9001178741,0.2850333154,-1.1294951439,0.7415396571,2.5669102669
50,33629,33627,-0.0196153447,-0.0231039114,0.9730081558,6.1686758995,-2.3161370754,-1.8354847431,1.7039860487,3.9003221989,0.2853804529,-1.0892118216,0.924482584,2.5699300766
51,33639,33637,0.0061141555,-0.0115614487,0.9374466538,2.8129694462,-0.3575750887,-2.011298418,1.7051656246,3.9029307365,0.2888708115,-1.0818617344,0.8289712667,2.5223941803
52,33649,33647,-0.0109202117,-0.0398045704,0.9667512774,-0.2679098248,-0.1979000419,-2.311630249,1.7055302858,3.902790308,0.2893126309,-1.0864619017,0.9118659496,2.5113830566
53,33659,33657,0.0252477881,-0.0475165583,0.9697405696,-2.2247171402,-0.4029219747,-1.8851327896,1.7055879831,3.9013261795,0.2897753716,-1.0149073601,1.0145212412,2.5171692371
54,33669,33667,0.0733892098,-0.0756523237,0.9569443464,-3.0942206383,-1.1236557961,-2.6785411835,1.7070612907,3.9010589123,0.2916809916,-1.160877943,1.0070129633,2.4746191502
55,33679,33677,-0.0058795707,-0.0204420742,0.9919484854,-3.8401155472,-0.9088478088,-2.4912106991,1.7097651958,3.902752161,0.2919811308,-1.2843466997,0.9112824202,2.4174466133
56,33689,33687,0.0008366391,-0.0892795175,0.9682279229,-3.3661720753,-4.4276270866,-2.4110968113,1.7104549408,3.9010622501,0.2922753394,-1.2964049578,0.8841740489,2.3878247738
57,33699,33697,0.0064408313,-0.0552534834,0.9976170659,-1.5531110764,-4.3677120209,-2.6866760254,1.7110567093,3.9007437229,0.2943068147,-1.2838995457,0.8675057888,2.3586263657
58,33709,33707,0.0158289876,-0.0321724266,0.944640398,0.1021411717,-7.3764166832,-2.5741505623,1.7127076387,3.9005038738,0.2952353656,-1.1612108946,0.8805041909,2.3446824551
59,33719,33717,-0.0127611607,-0.0067956573,0.9827745557,1.7375348806,-10.2020797729,-2.5632576942,1.7134582996,3.9001069069,0.2952592373,-1.0745235682,0.9160408974,2.3237452507
60,33729,33727,0.0076827751,-0.0321914107,0.9524713755,1.3023289442,-11.8973455429,-2.5434651375,1.7146905661,3.9017131329,0.2957735062,-0.8690095544,0.8915661573,2.3048415184
61,33739,33737,-0.0403003022,0.0210224334,0.9968755245,0.6143659949,-13.8511238098,-2.5931611061,1.7150278091,3.9014351368,0.2975510657,-0.6511887908,0.931624949,2.2982385159
62,33749,33747,-0.0187155176,0.0426148064,0.9781668782,-1.858763814,-9.1376590729,-2.2350926399,1.7186689377,3.9016735554,0.2978193462,-0.823797822,0.940063417,2.2293798923
63,33759,33757,-0.0201952886,-0.0024179469,0.9697539806,-4.1067233086,-6.4688034058,-2.0643436909,1.7190350294,3.9011399746,0.2983683944,-0.6506360769,0.9099369645,2.2212224007
64,33769,33767,0.0041097919,-0.0446636193,0.9632837772,-5.9928135872,-5.4573378563,-2.0174529552,1.7200635672,3.9011144638,0.3019155264,-0.5179741383,0.9164946079,2.2182247639
65,33779,33777,0.017539978,0.1492904425,0.9667520523,-5.9161801338,-5.1131906509,-2.3700284958,1.7208695412,3.9019496441,0.3024562001,-0.4886113107,0.8908474445,2.1995630264
66,33789,33787,0.0098074302,0.010012107,0.9593174458,-4.6892828941,-4.703250885,-2.2324602604,1.7240797281,3.9020736217,0.3030118942,-0.4511951804,0.8030508757,2.168078661
67,33799,33797,-0.0233464204,-0.0059801145,0.9726247787,-5.019431591,-4.8267769814,-2.3844957352,1.7255533934,3.9034574032,0.3043983877,-0.2735913694,0.7167189717,2.1623802185
68,33809,33807,0.0098020537,-0.0084614083,0.9531565309,-5.5700879097,-4.4200429916,-2.3352949619,1.7282109261,3.9029021263,0.3048328757,-0.4015413225,0.6381852627,2.1073930264
69,33819,33817,-0.0282561425,0.0365667865,0.9371196628,-5.6370668411,-3.3861548901,-2.5218369961,1.7297962904,3.9009139538,0.3052980304,-0.3767277598,0.6958803535,2.0910215378
70,33829,33827,-0.0575751215,0.0474543236,0.9767913818,-4.8944740295,-5.3252830505,-2.0355837345,1.730502367,3.9014158249,0.3061973751,-0.2691940963,0.604300499,2.073536396
71,33839,33837,-0.0092598759,0.0013645511,0.9470809102,-5.1030030251,-5.4409947395,-2.1016004086,1.7311422825,3.9006764889,0.3071767688,-0.222280845,0.5923582911,2.0553679466
72,33849,33847,0.023986686,-0.020180352,0.9457410574,-4.8634772301,-4.9907956123,-2.2077000141,1.7333981991,3.9018161297,0.307616353,-0.1001744121,0.5756038427,2.0471627712
73,33859,33857,-0.0085437559,0.015897464,0.9662147164,-4.2705254555,-3.3350703716,-2.1049232483,1.7342320681,3.9017899036,0.308088094,0.0793546811,0.4815829396,2.0409445763
74,33869,33867,0.0124540329,-0.0295409542,0.9328215718,-3.6850364208,-1.0400272608,-2.3707346916,1.7357962132,3.9019486904,0.3099162579,-0.085153833,0.4082165658,1.9919048548
75,33879,33877,-0.014520824,-0.0101381028,0.9545243382,-2.6528153419,1.1817088127,-1.6798166037,1.7365647554,3.9010312557,0.3104065955,0.0269700252,0.4173013866,1.9848765135
76,33889,33887,-0.0146054272,-0.0217264406,0.9381147027,-2.9880580902,1.8703393936,-1.9172860384,1.738856554,3.8993031979,0.3107566237,0.0249023419,0.4367066324,1.9627510309
77,33899,33897,-0.0268566348,-0.0094353072,0.960278511,-3.3210630417,-0.3450929224,-1.7249673605,1.7414604425,3.9004228115,0.3116543889,-0.0608717091,0.3720599711,1.9365357161
78,33909,33907,-0.013205857,0.0830923542,0.9107480049,-4.3120150566,0.8221695423,-1.1481684446,1.7426931858,3.8998565674,0.3119206727,-0.0469381846,0.3683064282,1.9247723818
79,33919,33917,0.0241374802,0.0112493513,0.9586786628,-5.2365040779,-0.4094743431,-1.0852187872,1.7425276041,3.8998615742,0.3122197688,0.0468377322,0.3497794271,1.9232343435
80,33929,33927,-0.0137084527,0.0307174716,0.9730173349,-5.9189219475,-0.8095021248,-1.2993642092,1.7423542738,3.9016861916,0.3154683709,0.0708387271,0.2256263494,1.9212332964
81,33939,33937,0.0207092166,-0.049906522,0.9183416367,-5.0089330673,-1.6179068089,-1.3143041134,1.7444578409,3.9011068344,0.3158112466,0.1035448387,0.1941865236,1.9007256031
82,33949,33947,-0.0164973941,-0.0138960313,0.9611701965,-4.8664617538,0.0002669325,-1.2224885225,1.7459330559,3.9005699158,0.3161163628,0.204422757,0.1575113088,1.894182086
83,33959,33957,0.0027405599,-0.0019421828,0.9547168016,-4.5558419228,1.1979798079,-1.0026900768,1.7497195005,3.8993601799,0.3161975443,-0.0243686326,0.1360200942,1.8608462811
84,33969,33967,-0.0008856218,-0.0065381164,0.9438692927,-4.0992546082,1.2089985609,-1.5982052088,1.7488620281,3.8995599747,0.3159196973,-0.0187657624,0.037452735,1.8529043198
85,33979,33977,-0.0626825392,-0.0045072637,0.9455544353,-5.052423954,-0.0674124286,-1.4267749786,1.7493047714,3.8993065357,0.316049844,0.0775439143,-0.0584996268,1.8459513187
86,33989,33987,-0.029745426,0.0029641916,0.9525898099,-4.4780130386,-0.6812356114,-1.3819007874,1.7521049976,3.8986170292,0.3159664869,-0.0554865636,-0.0025225678,1.8211500645
87,33999,33997,0.0297612622,-0.0439883024,0.9335542321,-3.195420742,-0.8739400506,-0.8218722939,1.7519413233,3.8991336823,0.3183848858,0.0571284443,-0.0904067978,1.8158825636
88,34009,34007,-0.0348479971,0.0162209999,0.9873225093,-2.2996842861,-2.2910425663,-0.4722033441,1.7527208328,3.898365736,0.318451196,0.0860652849,-0.0863705054,1.8044826984
89,34019,34017,-0.0426413864,-0.0433642566,0.9574450254,-2.2551221848,-0.6477647424,-0.727545321,1.754057169,3.899566412,0.3184702992,0.1223260239,-0.1449858993,1.8003959656
90,34029,34027,-0.0064537199,-0.0180486459,0.9752483368,-2.2366473675,2.7488081455,-1.2925345898,1.7557687759,3.900800705,0.3203162849,0.202143833,-0.2001661807,1.7932925224
91,34039,34037,-0.0233997926,0.0259008426,0.9771027565,-1.0179436207,1.7330863476,-1.3665204048,1.7563760281,3.8986933231,0.3203780651,0.1489156783,-0.1681551039,1.777361393
92,34049,34047,0.0133086052,-0.0009386651,0.9480829239,-0.5171994567,0.6858430505,-1.4071946144,1.7562121153,3.8989493847,0.3204556704,0.1177295595,-0.1997080147,1.7648540735
93,34059,34057,0.0338989682,-0.0460012257,0.9437895417,-1.0042463541,4.2326812744,-0.9662914276,1.7572951317,3.9001176357,0.3204545975,0.0706295893,-0.2333955765,1.7531274557
94,34069,34067,-0.0382483862,0.0235903654,0.9812597632,-0.2857502103,0.7562312484,-0.7488501668,1.7576626539,3.8991656303,0.32099545,0.1045198143,-0.1887461096,1.7394939661
95,34079,34077,-0.0277678538,0.0876189023,0.9312840104,-0.4471599162,2.1571464539,-0.5803940296,1.7588214874,3.899872303,0.3209459186,0.165001139,-0.2069150805,1.7398525476
96,34089,34087,0.0181219205,-0.0384676531,0.9194278121,-0.1853809655,3.1004624367,-0.5703068376,1.7602570057,3.8997616768,0.320866555,0.121801503,-0.1531410366,1.7302638292
97,34099,34097,-0.0345076546,0.0115326755,0.9844664335,-0.3567207158,5.4900822639,-0.7548161745,1.7620655298,3.8998126984,0.3224691749,-0.0096392697,-0.1810218841,1.7287766933
98,34109,34107,0.0024197027,-0.0386660732,0.9485254884,-1.0399729013,4.9905033112,-1.0175542831,1.7620915174,3.8993225098,0.3224282265,-0.0625330061,-0.2168649584,1.7113326788
99,34119,34117,0.0035764899,0.010226395,0.956926465,-2.0110757351,5.0391163826,-1.0112823248,1.7647123337,3.9011666775,0.3222612143,-0.0981673226,-0.2430414855,1.7138744593
100,34129,34127,0.0117957639,-0.018928675,0.9522313476,-2.9409239292,4.1213054657,-1.674413085,1.7659080029,3.9021470547,0.3237842023,-0.0260715652,-0.2904812992,1.7017503977
101,34139,34137,-0.0097833173,0.0191731025,0.9672345519,-3.1627724171,-0.4151626825,-1.1027952433,1.7657631636,3.9004688263,0.3237450123,0.0581887923,-0.1964113414,1.6749098301
102,34149,34147,-0.028417686,0.0146686072,0.97779423,-3.2208602428,-0.8310047984,-1.1482667923,1.7694891691,3.90279603,0.3234906495,-0.1937681735,-0.270694375,1.6787670851
103,34159,34157,0.0039816848,-0.0300946068,0.9357380867,-2.7466444969,-0.6925442815,-1.11614573,1.769523859,3.9039740562,0.3233310878,-0.1740117818,-0.3383037448,1.6696069241
104,34169,34167,-0.0052354611,-0.0041446453,0.982706964,-2.6137945652,-0.7807643414,-1.4134972095,1.770391345,3.9039959908,0.324721694,-0.1555754989,-0.3974159658,1.6592415571
105,34179,34177,-0.0256578512,0.0028099965,0.9705141187,-0.440389812,-0.6383012533,-1.3598065376,1.7724745274,3.903860569,0.3244113028,-0.2878554463,-0.4487356544,1.6555029154
106,34189,34187,0.010282632,-0.024576284,0.9602576494,1.7083892822,-0.0421557389,-1.4468026161,1.7717266083,3.9024517536,0.3244128227,-0.112540327,-0.3853488863,1.6283974648
107,34199,34197,-0.0031892476,0.0094369808,0.9668629766,3.6557068825,-2.0969240665,-1.2355729342,1.7727031708,3.9023461342,0.3258728087,-0.1102095991,-0.3711375296,1.614833951
108,34209,34207,0.0312175639,-0.0299352035,0.9373008609,3.6913406849,-1.4232492447,-0.7131634951,1.7729407549,3.9019591808,0.325745821,-0.0220818408,-0.3262531161,1.5986920595
109,34219,34217,0.0252071638,0.0132245477,0.9294071198,1.6723573208,3.4756474495,-0.5702090859,1.7741744518,3.9017441273,0.3255028725,-0.0363943279,-0.2848082781,1.5915486813
110,34229,34227,0.048253417,-0.086703591,0.9407904148,-0.2624286711,6.1355085373,-0.2160504013,1.7747855186,3.9017896652,0.3255112767,-0.0123004066,-0.2686894238,1.5836045742
111,34239,34237,0.0255868621,-0.0670113042,0.9482332468,-1.9629420042,2.9992554188,-0.3534832299,1.7751955986,3.9017410278,0.3252221644,-0.0355145745,-0.2839500904,1.5799930096
112,34249,34247,0.0089763515,0.0253691282,0.9695838094,-3.4285547733,5.3704180717,-0.3000975549,1.7755652666,3.9024839401,0.3248816729,-0.0396648496,-0.3298548162,1.5755912066
113,34259,34257,-0.0377708487,0.0104509853,0.9886178374,-3.4135653973,5.7686057091,-0.498386085,1.7776497602,3.9016625881,0.3244739771,-0.1432462633,-0.3177568316,1.5745970011
114,34269,34267,0.0092952847,-0.0429228097,0.9561176896,-1.5900844336,6.1124796867,-0.132332623,1.7780315876,3.9032251835,0.3238970935,-0.2517410219,-0.3830096126,1.5820770264
115,34279,34277,0.0028002521,0.0135934027,0.9636134505,0.3990172744,4.190407753,-0.2267258018,1.7784837484,3.9026136398,0.3234491646,-0.2758512795,-0.4153724611,1.5722078085
116,34289,34287,0.0052020014,-0.0373334959,0.9567145109,2.2405347824,3.4395918846,-0.2029350847,1.7791830301,3.9026041031,0.3229346573,-0.3586016893,-0.4137376845,1.5729962587
117,34299,34297,-0.0166860614,-0.0078014187,0.9779875875,3.3526415825,1.264608264,-0.4505470991,1.7806037664,3.90204072,0.3247699142,-0.4160681665,-0.3795349598,1.5712965727
118,34309,34307,0.0199480895,-0.0077869445,0.9656549096,2.7717943192,-0.0017586792,-0.1002175435,1.7803052664,3.9015953541,0.324475795,-0.2852971256,-0.3315471709,1.5576423407
119,34319,34317,1.40216104682622E-06,-0.0345133021,0.9694071412,1.8452659845,-0.7306277752,-0.2844987214,1.7814782858,3.901599884,0.3239997923,-0.3780460358,-0.2921166122,1.5618208647
120,34329,34327,-0.0050238408,-0.0135475667,0.9729472399,1.4278745651,-2.917547226,0.1598420143,1.7819551229,3.9019823074,0.3264607191,-0.304920584,-0.2691678703,1.5537437201
121,34339,34337,0.0153229181,-0.0946208164,0.9895957708,-0.3304327428,-0.60904634,-0.2832629383,1.782700181,3.9018878937,0.3261119425,-0.3043752909,-0.2638385594,1.5517319441
122,34349,34347,-0.0327266157,-0.0488351658,0.9825615287,-1.2674261332,2.1098616123,-0.648340404,1.786749959,3.9023263454,0.3256723285,-0.4798894823,-0.3575714529,1.5491626263
123,34359,34357,-0.0080978647,-0.000581024,0.9947900176,-0.332207799,3.5879299641,-0.4149577618,1.7865235806,3.9016828537,0.3249228001,-0.4379430115,-0.3708864152,1.5318071842
124,34369,34367,0.029871719,-0.0210224409,0.9424298406,0.1670105159,6.6674785614,-0.3752526641,1.7875645161,3.9024207592,0.3245430589,-0.4173106551,-0.3718580902,1.5240057707
125,34379,34377,0.0412336178,-0.0119579937,0.9383333921,2.4383299351,1.8598165512,0.070416376,1.7878649235,3.9033029079,0.3241694868,-0.3992416263,-0.3480659723,1.5342537165
126,34389,34387,0.0369617157,-0.0210378915,0.9306532145,4.5723404884,-0.8976261616,0.1255076677,1.7894091606,3.9039139748,0.3236533105,-0.4161592722,-0.2932531834,1.5356011391
127,34399,34397,-0.0056945356,0.0034861297,0.9720366001,5.0124974251,-3.169703722,0.299334228,1.7913234234,3.9055473804,0.325568229,-0.4074748158,-0.3711837232,1.5400227308
128,34409,34407,-0.0429661945,0.0143646682,1.0135387182,3.6856882572,-0.6464658976,0.6560364962,1.7928879261,3.9052507877,0.3250856996,-0.4621263444,-0.283528477,1.5487856865
129,34419,34417,0.0023904662,0.0079376288,0.9631130695,3.0950374603,0.1640246809,0.9730926752,1.7929532528,3.9051122665,0.3246869445,-0.3760472238,-0.2141387761,1.5514247417
130,34429,34427,0.0067004692,-0.0308027901,0.9592467546,3.6926441193,0.0289706308,1.4529730082,1.7945183516,3.9049947262,0.3244339824,-0.4546060562,-0.2263178229,1.5567250252
131,34439,34437,-0.0156102628,-0.0256027989,0.9839781523,3.4474945068,-0.1763347387,1.3617049456,1.7952371836,3.9055452347,0.3239982128,-0.3687365949,-0.1509464085,1.5674085617
132,34449,34447,0.0241257269,0.0831600949,0.9828407764,4.7482481003,-2.8169186115,0.7294214964,1.7963984013,3.9055616856,0.323541522,-0.3035240173,-0.0888953507,1.5705440044
133,34459,34457,-0.0243183021,-0.0344308876,0.9712123871,1.5875831842,0.4270071983,1.4400824308,1.7988983393,3.9070174694,0.3236154914,-0.449632287,-0.1755880266,1.5797293186
134,34469,34467,0.0354450457,-0.0124441758,0.9716364145,1.86203444,-0.0511793494,0.9399713278,1.7980984449,3.9071726799,0.32313779,-0.451610744,-0.1284752041,1.5921709538
135,34479,34477,-0.0479851514,0.0598083325,0.9579119086,1.1225728989,0.7402119637,1.3173818588,1.799646616,3.90691185,0.3226057887,-0.4610501826,-0.0871125236,1.6017473936
136,34489,34487,-0.011752164,-0.0384634361,0.9906551838,0.6300399899,-1.080478549,1.1176326275,1.8001585007,3.9071354866,0.3220014274,-0.5452826619,-0.0592566915,1.6215327978
137,34499,34497,-0.0006398612,-0.0816886127,0.9788094759,-1.2115963697,-0.4551530778,0.7258229852,1.8004426956,3.9070770741,0.3214683235,-0.4582449496,-0.0557218529,1.6281946898
138,34509,34507,-0.0023116558,0.0031911172,1.0010006428,0.5228120685,-5.5154738426,0.5603970885,1.8013643026,3.9067919254,0.3208765686,-0.4388018847,-0.0614450239,1.6275473833
139,34519,34517,0.0113210557,-0.0298171416,0.9655421376,-0.5972678065,-1.4606925249,0.9298391342,1.8024427891,3.9073371887,0.3201949596,-0.4281242192,-0.0464615524,1.6428034306
140,34529,34527,-0.0026871909,-0.0705744624,0.9711682796,0.2755686343,-5.6570906639,0.9173887372,1.8037550449,3.9076628685,0.323458463,-0.4185578525,-0.1093321741,1.6432440281
141,34539,34537,-0.0153285163,0.0156992488,1.0080246925,1.0114439726,-4.5233306885,1.0788319111,1.8055876493,3.9086549282,0.3229932487,-0.3856491745,-0.0848866105,1.6651703119
142,34549,34547,0.0201549083,-0.063823469,0.9853681326,2.2967269421,-2.6023793221,0.6350787282,1.8063340187,3.9084484577,0.3226710856,-0.2256920934,-0.0524837077,1.6741520166
143,34559,34557,-0.0105933622,-0.0652331859,0.9772059321,2.936496973,0.1465838701,0.1132000536,1.8069727421,3.9075431824,0.321834445,-0.1808747351,-0.0026684781,1.6741863489
144,34569,34567,-0.0030558216,0.0596269704,0.9991905689,2.2902414799,3.8506424427,-0.1961746216,1.8072063923,3.9073367119,0.321398139,-0.0970204547,0.0554044358,1.676025629
145,34579,34577,0.0293868016,0.0471146442,0.9194605947,2.0580251217,1.5727723837,-0.2489660382,1.8086143732,3.9068505764,0.3208650649,-0.208766371,0.1030735001,1.6705070734
146,34589,34587,-0.0180475824,0.0067953691,0.998839736,0.9456375837,3.4920291901,-0.2618084252,1.8116793633,3.9084737301,0.320227623,-0.3581105173,0.0009389575,1.6676667929
147,34599,34597,0.0023234305,-0.0329407118,0.9868074059,-0.4288125038,1.1178338528,-1.2156552076,1.8118292093,3.9074454308,0.3234158754,-0.3066185117,0.033455804,1.6529927254
148,34609,34607,-0.0149801169,-0.0289463438,0.9662889242,-1.6743813753,-1.4778020382,-1.3697735071,1.8133759499,3.9075574875,0.3229946196,-0.3853946328,0.0406071879,1.6422735453
149,34619,34617,-0.0319738276,-0.0044082627,1.0064098835,-2.7701544762,-4.9510269165,-1.5082677603,1.813603878,3.9066755772,0.3227649331,-0.2581246197,0.1003288627,1.6296759844
150,34629,34627,0.0552157424,0.0093857255,0.9570657611,-3.2698845863,-7.5268411636,-1.1744948626,1.8145965338,3.90726614,0.323466599,-0.2270099968,-0.0118493298,1.6057864428
151,34639,34637,0.022345826,-0.0175829437,0.9621500969,-2.3972289562,-7.4486479759,-1.9109485149,1.8156648874,3.9076566696,0.3231145442,-0.1591624469,-0.0495975837,1.5922734737
152,34649,34647,-0.0080385488,-0.0920523629,0.9512079358,-0.6430340409,-4.9653987885,-1.2751543522,1.8173706532,3.9075520039,0.3227454424,-0.0333069302,-0.0718296468,1.5760141611
153,34659,34657,-0.0282322224,0.0357450023,1.0154217482,3.2896585464,-2.2834539413,-0.9333543777,1.8184078932,3.9077041149,0.3218600452,-0.0231185444,-0.0542459227,1.563221097
154,34669,34667,0.0316935293,-0.0409412161,0.9315428138,5.7868227959,-0.6763656735,-1.1245903969,1.818690896,3.9075312614,0.3214867711,0.100773178,0.0187197924,1.5608059168
155,34679,34677,-0.0344111659,0.0606608093,1.0139636993,6.6233315468,2.5131480694,-1.4634671211,1.8193444014,3.9067983627,0.3210107088,0.1092735678,0.1280368268,1.5410852432
156,34689,34687,0.0014615493,0.0093059326,0.9434232712,5.2028746605,4.5256762505,-1.6028641462,1.8211253881,3.9080653191,0.3229578137,-0.0993081033,0.0887612179,1.5276674032
157,34699,34697,0.0168874376,0.0647399053,0.9889927506,4.3017158508,2.3200721741,-1.7801909447,1.8212418556,3.9069445133,0.3226223588,-0.0906988904,0.1826224476,1.5093408823
158,34709,34707,0.0300641265,-0.0007937785,0.9541178346,3.1273713112,1.700070858,-2.0652215481,1.8219025135,3.9081058502,0.3222663105,-0.0537871793,0.1832216531,1.4841972589
159,34719,34717,0.0446465239,-0.0624066815,0.9649806023,0.7495315671,-0.0475433432,-1.7111599445,1.8227874041,3.9075152874,0.3218377531,-0.0630351156,0.237115413,1.4649009705
160,34729,34727,0.0419621877,-0.0702042803,0.9611831903,-0.5485134721,-2.4032814503,-2.0403804779,1.8241343498,3.9078621864,0.3238519132,-0.0524703935,0.1836004853,1.4397683144
161,34739,34737,-0.0038442165,0.025555253,0.9767550826,-2.2069280148,-4.2734103203,-2.2595150471,1.8254659176,3.9071378708,0.3234618306,-0.0976476669,0.2556178272,1.4173747301
162,34749,34747,0.0561090745,-0.1138277203,0.9322026372,-0.6365507841,-6.1226334572,-2.9132797718,1.8265939951,3.9068388939,0.3230326176,-0.0923364311,0.23595272,1.388894558
163,34759,34757,-0.0267999619,-0.0119648492,1.0106707811,1.2499793768,-6.7998805046,-3.3284270763,1.825932622,3.9070611,0.3242310584,0.1015476659,0.240673542,1.3639088869
164,34769,34767,0.0159177817,-0.0039226119,0.9149958491,3.5536358356,-6.8706026077,-3.6725585461,1.8269990683,3.90807724,0.3238036335,-0.0246133432,0.1957795769,1.336841464
165,34779,34777,-0.0131268697,0.0384332947,1.0121303797,4.1017389297,-7.9637522697,-3.8442065716,1.8258570433,3.9067773819,0.3235217035,0.1823400557,0.2647349536,1.2848409414
166,34789,34787,-0.0259331223,0.0426343642,1.000108242,1.3468971252,-9.8684120178,-4.9751315117,1.8264422417,3.906837225,0.3254437745,0.3231614232,0.3268075585,1.2461122274
167,34799,34797,-0.0150673045,-0.0380776897,0.9692088962,-1.5312012434,-10.2774534225,-4.9802994728,1.8284205198,3.9066717625,0.3251449764,0.3352803886,0.3458078206,1.2048637867
168,34809,34807,-0.0198374819,-0.0190282892,0.9792608023,-4.0739183426,-7.5674295425,-5.1037211418,1.8290432692,3.9078037739,0.3248705268,0.4983021319,0.3185570836,1.1451538801
169,34819,34817,-0.0044688839,0.0028478806,0.9927862287,-6.0340161324,-4.7397828102,-5.2003030777,1.8320688009,3.9079015255,0.3244993091,0.3917753994,0.2517125607,1.0920404196
170,34829,34827,0.0124917347,-0.0368085951,0.9850242734,-6.4858899117,-2.1066401005,-5.7125701904,1.8316246271,3.9078149796,0.3278819919,0.5448642373,0.1610079855,1.0444303751
171,34839,34837,-0.0221095122,-0.0379021093,1.0018806458,-6.4093947411,-0.4212664068,-6.0691695213,1.8324584961,3.9082984924,0.32775262,0.5613702536,0.0644093677,0.9911800027
172,34849,34847,-0.0090481648,-0.0260273721,0.9822220206,-3.7431616783,0.1113996133,-6.1540265083,1.833370924,3.9073872566,0.3276215494,0.4871407449,0.0546577424,0.9134040475
173,34859,34857,0.0061059478,-0.0068828301,0.9698502421,0.1908017099,0.4403903186,-6.6474599838,1.8335431814,3.9082560539,0.3283454776,0.5664835572,0.0093813976,0.8639960289
174,34869,34867,-0.0317818411,-0.0297299121,0.9992581606,2.4877076149,0.8886576891,-7.4023051262,1.8348076344,3.9080998898,0.3282332122,0.5662154555,0.0208508652,0.7936965227
175,34879,34877,0.0135703981,0.0784423053,0.9691259265,4.5293765068,2.1027853489,-7.9470500946,1.834512949,3.9072875977,0.3281594217,0.6274029016,0.0737790838,0.700273037
176,34889,34887,0.0327949375,0.0600735024,0.9202057719,5.0725269318,4.124437809,-8.565112114,1.8365861177,3.9073958397,0.3304070234,0.5735087991,0.1538812518,0.6230120063
177,34899,34897,-0.0594902709,0.0480896756,0.9974294901,2.3394422531,6.6881957054,-8.6555013657,1.8373523951,3.9073431492,0.3303616047,0.5506492257,0.1526383907,0.541431725
178,34909,34907,-0.0623014942,0.0711281076,0.9986686707,-0.0696281195,12.1720457077,-8.0453166962,1.8381448984,3.907610178,0.3303009272,0.4764242768,0.1786615402,0.4562216699
179,34919,34917,-0.0165444054,-0.1408819258,0.9367004633,-1.8120983839,13.6298837662,-6.8846373558,1.8393915892,3.9067211151,0.3318438828,0.3607652485,0.2420732528,0.3606223762
180,34929,34927,0.0323481299,-0.1251945496,0.9273549318,-1.5939933062,8.8657751083,-5.8452439308,1.8398214579,3.9071395397,0.3318716288,0.2336870134,0.207011506,0.2892030776
181,34939,34937,0.0266615935,0.0056802128,0.943205893,0.8530709743,7.4171142578,-5.8318934441,1.8409348726,3.9072911739,0.3318223059,0.1528332978,0.1835702211,0.2421266139
182,34949,34947,-0.0047256202,-0.0044691884,0.934276402,7.0868926048,2.1013274193,-5.6179718971,1.8405863047,3.9058785439,0.3317546248,0.1796841025,0.2129389942,0.1748290807
183,34959,34957,-0.0967978537,-0.0039881459,0.979421258,10.401140213,2.754585743,-5.1111984253,1.8410052061,3.9058983326,0.3330668211,0.152635023,0.328245014,0.1073878855
184,34969,34967,0.0433186404,0.0042889216,0.9229551554,12.3572616577,6.0580196381,-4.6060414314,1.8394449949,3.9055521488,0.3329796493,0.196858719,0.4235060811,0.0654637739
185,34979,34977,0.0114192767,-0.0006620181,0.9304245114,8.0528097153,9.498093605,-4.7967209816,1.8401433229,3.9057052135,0.3327996731,0.0484338738,0.5306611657,0.0207161605
186,34989,34987,-0.0554362163,-0.0144379912,0.9363572598,1.886505127,3.1235563755,-4.3640232086,1.8413386345,3.9067647457,0.333058089,-0.0498427153,0.5626841187,-0.0088728704
187,34999,34997,-0.1462884694,-0.0116295079,0.9879280925,-7.5149216652,8.228012085,-3.6463444233,1.8414191008,3.9064025879,0.3327827156,-0.1285339892,0.5568922758,-0.055303134
188,35009,35007,-0.0039521423,0.0104954122,0.9437246323,-12.2538089752,5.6785058975,-3.4566493034,1.8400452137,3.9076421261,0.3326247334,-0.0657406151,0.4228847027,-0.0788087621
189,35019,35017,0.0107371574,0.0091764657,0.9419305325,-13.6135177612,2.0531065464,-3.3690588474,1.8414506912,3.9080944061,0.3308112919,-0.1966307759,0.2975995839,-0.1107198
190,35029,35027,-0.0260392502,-0.001932538,0.9609571695,-9.5674581528,-7.9002132416,-2.942882061,1.8415054083,3.9081981182,0.3303130269,-0.2410659641,0.2406282127,-0.1367566139
191,35039,35037,-0.0290748924,0.0043147807,0.9635238051,-0.631991446,-5.4836525917,-2.5631289482,1.8420995474,3.9080483913,0.3298171461,-0.1181986704,0.1799414158,-0.1482217163
192,35049,35047,0.0550309196,-0.0184620377,0.9226502776,10.8648042679,-4.4826545715,-1.0415701866,1.842784524,3.9073724747,0.329186976,-0.1269173175,0.1822595745,-0.191976279
193,35059,35057,0.0700293481,-0.0269768108,0.9199407697,16.2218914032,-2.9652280807,0.8206602335,1.8436181545,3.9069070816,0.3259344399,-0.0515855961,0.3617387414,-0.2001357079
194,35069,35067,0.1828401834,-0.0200356953,0.8788045645,18.9836387634,-7.3038783073,2.2696406841,1.8441932201,3.9068331718,0.3251115978,0.0526454262,0.4895275235,-0.1882498413
195,35079,35077,0.0629005358,-0.0166997276,0.9373570085,13.7361907959,2.9462652206,3.2335453033,1.845564127,3.9068861008,0.3240788579,0.053063117,0.7024098635,-0.1904350817
196,35089,35087,-0.0046744435,0.0426933691,0.9776670933,4.5070362091,6.3721561432,4.6519527435,1.8467570543,3.9067754745,0.3250725567,-0.0593645982,0.731790185,-0.1610264033
197,35099,35097,-0.0088158948,0.0466161408,0.9770972729,-6.9882407188,13.8423089981,4.574719429,1.8481119871,3.9073867798,0.3239900172,-0.1728658527,0.6744875312,-0.121114403
198,35109,35107,-0.021730328,-0.0216497779,0.9089794159,-13.7607860565,15.0217981339,4.9249558449,1.8482037783,3.9076623917,0.3228878975,-0.2926429808,0.58565557,-0.0672465414
199,35119,35117,0.0223825555,-0.007971799,0.9571749568,-15.9758462906,14.2912406921,5.7116055489,1.8497872353,3.9075191021,0.3250272274,-0.4897871912,0.4815770388,-0.0133889047
200,35129,35127,0.00775707,0.0057006287,0.9884698391,-10.9662132263,9.3332271576,6.416009903,1.8509018421,3.9069874287,0.3240686059,-0.6423794031,0.374299705,0.029408399
201,35139,35137,-0.0289618,0.0337889679,1.0133897066,-4.9768671989,3.0188217163,7.6694946289,1.8518265486,3.9077768326,0.3231298923,-0.6998755932,0.2050088942,0.1074327677
202,35149,35147,0.0140382433,0.0215940718,0.9536629319,1.3280185461,0.7576580644,8.7671871185,1.8510828018,3.9064223766,0.322257936,-0.6604062319,0.2273387313,0.1771172434
203,35159,35157,-0.072499834,0.1089748889,1.0056215525,4.2163043022,-0.2120923847,10.3835859299,1.8533014059,3.9064862728,0.3229058683,-0.7562955618,0.2542079091,0.2601189315
204,35169,35167,0.0015232981,0.0710721985,0.94591856,3.7998831272,2.4957351685,12.0038490295,1.8533841372,3.9054355621,0.3220340908,-0.7182539105,0.3059889078,0.3589978516
205,35179,35177,-0.048517745,0.0804731399,1.0144654512,3.0875926018,-2.7582650185,12.6012125015,1.8536971807,3.9056563377,0.3211688399,-0.6953904033,0.3423733413,0.4900251627
206,35189,35187,0.0204272307,-0.0096436068,0.973020196,-2.5906310081,-0.3318921626,13.0080490112,1.8545581102,3.9066839218,0.3180743158,-0.7055359483,0.3465254009,0.6421123147
207,35199,35197,0.0084643383,-0.0227157939,0.9792889357,-8.9093227386,-0.2079514563,13.2872886658,1.8547286987,3.9060018063,0.3170040846,-0.7123593688,0.3223653138,0.7642982602
208,35209,35207,-0.0261416174,0.019233359,0.964941144,-13.1461677551,3.1500556469,13.6568498611,1.8543170691,3.9059221745,0.315985769,-0.6475701928,0.2045260221,0.8980743289
209,35219,35217,-0.0479265228,0.0750560611,1.0097587109,-11.1594810486,3.2367999554,13.8331041336,1.8544297218,3.9058992863,0.3198496699,-0.6416211128,0.0529955775,1.0342698097
210,35229,35227,0.0143532911,-0.0207045153,0.9756831527,-9.1459722519,8.395160675,14.2114915848,1.8548679352,3.9057319164,0.3190359175,-0.6687117815,-0.0627329126,1.1737656593
211,35239,35237,0.0033432785,0.033758793,0.9432045817,-6.6375412941,15.1252422333,14.7675800323,1.8552891016,3.9049797058,0.31820485,-0.7731689811,-0.1253845841,1.3066247702
212,35249,35247,-0.0240188297,-0.0586979948,0.9711551666,-3.1683454514,17.4156761169,13.9605436325,1.857867837,3.9055116177,0.3227892518,-1.1346936226,-0.2183630764,1.4470801353
213,35259,35257,-0.0627062544,0.0274961013,1.0207246542,-0.7720979452,13.2981214523,13.3659582138,1.858397603,3.9050517082,0.32228598,-1.2506819963,-0.1884337068,1.5855405331
214,35269,35267,-0.0833256021,0.0271579642,1.0469868183,4.156484127,2.2131762505,12.6134004593,1.8575934172,3.9031698704,0.3219461739,-1.1996108294,-0.1138928235,1.7084302902
215,35279,35277,-0.0558960401,-0.005727726,0.9814996123,0.4108283818,-1.0468856096,13.1561460495,1.8578360081,3.9029817581,0.321441859,-1.2391890287,-0.0834279954,1.8344203234
216,35289,35287,-0.0202853084,-0.1055530235,1.0317792892,-2.7312934399,-8.104268074,12.2919473648,1.8592387438,3.9026267529,0.3231662214,-1.2714627981,-0.1059159264,1.9468356371
217,35299,35297,0.032034155,-0.0852897018,0.9421314597,-7.4501523972,-5.1722445488,11.8430395126,1.8585976362,3.9019784927,0.3229252696,-1.0654805899,-0.183046639,2.0482664108
218,35309,35307,0.0131930476,-0.0456893444,0.9802985191,-8.5324306488,-9.3066978455,11.2774410248,1.8609521389,3.9018342495,0.3224152923,-1.1808620691,-0.2440834641,2.1682269573
219,35319,35317,0.0092800474,0.0164401922,0.9438943267,-9.112651825,-5.1998138428,9.5968103409,1.862349391,3.9012758732,0.3203786314,-1.1861755848,-0.335150063,2.2675259113
220,35329,35327,-0.0555012897,0.090160653,0.9738726616,-8.0422763824,-0.2631262243,8.3255739212,1.8618996143,3.9019577503,0.319953233,-1.0275864601,-0.4970521629,2.3570754528
221,35339,35337,-0.1048188806,0.0359698609,0.9815071821,-4.1728701591,3.824493885,6.7953190804,1.8636417389,3.9009976387,0.3194425702,-1.0015211105,-0.4595595002,2.4554612637
222,35349,35347,-0.0929973423,0.0487735644,0.9944415092,-3.1526632309,9.8414840698,5.4112644196,1.8647279739,3.9013483524,0.3213371634,-1.015385747,-0.5432499051,2.4987220764
223,35359,35357,0.0312315151,-0.0630763918,0.9031540751,-2.7570624352,12.0972604752,4.5389523506,1.865593195,3.9002344608,0.3208903372,-1.1033712626,-0.5242827535,2.5654599667
224,35369,35367,-0.0202683397,0.006845247,0.9626896381,-2.265283823,11.7384052277,3.2147827148,1.8664876223,3.8991806507,0.3204039931,-1.2152637243,-0.4267122149,2.6253631115
225,35379,35377,0.0408637039,0.0142621761,0.9588900208,-1.9907979965,8.2396249771,1.6743150949,1.8666299582,3.8992249966,0.3198798299,-1.2932454348,-0.4804082513,2.650510788
226,35389,35387,0.0269851722,-0.088764593,0.9492762685,-3.9672250748,3.8442585468,0.2886507809,1.8680197001,3.8990781307,0.321760267,-1.3897008896,-0.5482501984,2.6496260166
227,35399,35397,0.0250046235,0.0273625255,0.9310820103,-1.9586260319,0.2793311775,-0.2698792815,1.8704208136,3.8996086121,0.3210828006,-1.5508710146,-0.6054589748,2.6474261284
228,35409,35407,0.0303119514,0.0316117145,0.9853743911,1.5186874866,-6.8043599129,-1.7771123648,1.8702067137,3.8997452259,0.3208467662,-1.353017211,-0.6368066669,2.641474247
229,35419,35417,-0.0600883886,0.0085232919,0.9930737019,2.1718683243,-10.3124828339,-2.7228085995,1.870097518,3.8996376991,0.3224545121,-1.2188042402,-0.6174758673,2.6412072182
230,35429,35427,0.0362794921,-0.1024033949,0.9224448204,0.0742885023,-7.0637612343,-3.5590729713,1.8739665747,3.9003221989,0.3217507303,-1.4267295599,-0.6025498509,2.6364495754
231,35439,35437,-0.0160012394,0.0187839642,0.9879629612,2.5601050854,-8.5395841599,-5.0535707474,1.874802947,3.8988170624,0.3213992417,-1.2377189398,-0.5067077875,2.592343092
232,35449,35447,0.0201184805,-0.0561777242,0.9454782009,3.7464022636,-8.3406238556,-6.1728286743,1.8763237,3.8988907337,0.3215166926,-1.2166844606,-0.4798268378,2.5335054398
233,35459,35457,0.0206520315,-0.0007873988,0.9281125069,2.3470318317,-5.4186263084,-7.9777321815,1.8785955906,3.8992605209,0.3210271895,-1.1013928652,-0.4271115065,2.498606205
234,35469,35467,-0.0233135931,0.0760663822,0.9147152901,1.0550603867,-4.5528359413,-7.9578557014,1.8796770573,3.8986198902,0.3204329014,-1.0119765997,-0.4026841223,2.405412674
235,35479,35477,-0.0235037133,0.020470731,0.9497414827,1.3320207596,-8.0041885376,-7.8067727089,1.8801164627,3.8977301121,0.3198403418,-0.855099678,-0.3938963115,2.2980105877
236,35489,35487,-0.0689621568,0.0045784023,0.9799611568,1.1779328585,-8.35160923,-7.2329506874,1.8840476274,3.8973577023,0.3185894191,-1.0434373617,-0.3851124644,2.2302093506
237,35499,35497,-0.0460409336,-0.0637312531,0.9910897613,1.411888957,-8.0262756348,-7.4366106987,1.8840028048,3.8973824978,0.3180577457,-0.7819847465,-0.3809455931,2.1431925297
238,35509,35507,-0.0368879102,0.124100782,1.0320745707,0.4764214754,-4.6479725838,-6.5271053314,1.8859473467,3.8969101906,0.3171018064,-0.8541836739,-0.3701032102,2.0534057617
239,35519,35517,0.0060818815,0.0988305062,0.9347984791,2.4069435596,-4.6030783653,-5.5187091827,1.8863426447,3.8964326382,0.3135684729,-0.7085524201,-0.3589374125,1.9946619272
240,35529,35527,-0.0252990462,0.0025973311,1.0042420626,2.5392622948,-5.0643959045,-4.9880580902,1.8878831863,3.8969700336,0.3126055598,-0.6412075758,-0.3268831372,1.9562815428
241,35539,35537,0.0264738351,-0.0286283363,0.9580483437,2.3083717823,-6.2124500275,-4.6960206032,1.890055418,3.897405386,0.3115371168,-0.6401830912,-0.2969403267,1.9274929762
242,35549,35547,-0.0676708445,0.0096249627,0.9989022613,2.0494921207,-8.7865962982,-4.999045372,1.8915109634,3.8974540234,0.3128013909,-0.560133636,-0.2750666142,1.8593978882
243,35559,35557,-0.0416563153,0.0181066394,0.9566217065,2.6042313576,-9.2248802185,-4.6923618317,1.891477704,3.8994069099,0.3118416965,-0.514816463,-0.2480692565,1.8964655399
244,35569,35567,-0.0582043007,0.0230037719,1.0396842957,6.009223938,-12.4474515915,-4.3558149338,1.8934178352,3.8987658024,0.3108836114,-0.4444662035,-0.1956722587,1.8372710943
245,35579,35577,-0.0034122898,-0.0433123186,0.9963120222,7.8021388054,-10.6084823608,-4.3550992012,1.8945879936,3.8985981941,0.3100502491,-0.2710802555,-0.0990176797,1.7971291542
246,35589,35587,-0.0270580743,0.0136572151,1.0208677053,8.5043544769,-9.2481536865,-3.7374577522,1.8955705166,3.8980853558,0.3127599359,-0.0788917989,0.0316478163,1.7545883656
247,35599,35597,0.0470984131,-0.0881919786,0.9720891714,4.0094571114,-4.1755475998,-3.4150958061,1.8978568316,3.8993051052,0.3120428622,-0.1467596591,-0.0275239162,1.7247083187
248,35609,35607,0.0444357954,-0.0821838528,0.9571735263,-0.569165349,-0.9287957549,-3.0800068378,1.898966074,3.8999330997,0.3114483058,-0.0144545157,-0.0002558069,1.7066204548
249,35619,35617,0.0308996886,-0.1737711579,0.9528874755,-3.0161092281,-1.6290128231,-3.7712366581,1.901538372,3.8993387222,0.3125876486,-0.0714386851,-0.028131254,1.6488152742
250,35629,35627,0.0155322673,-0.0224213488,0.9839934111,-3.7814185619,1.4266135693,-3.6384160519,1.9037587643,3.8995580673,0.311838299,-0.1378253549,-0.0823525116,1.6133067608
251,35639,35637,0.0198822301,0.0857465342,1.0247228146,-1.8811352253,-2.929049015,-3.0692565441,1.9054055214,3.8987355232,0.3111977279,-0.123029016,-0.0487483032,1.5783202648
252,35649,35647,0.0768826231,-0.0316681452,0.9853488207,0.3284141123,-5.9499530792,-4.0411996841,1.906140089,3.8992938995,0.3143626451,0.0331714861,-0.0731030852,1.5411431789
253,35659,35657,-0.0493166931,0.0783162117,0.9978049397,1.4356229305,-10.7761116028,-2.758528471,1.9090846777,3.8994245529,0.3138445318,0.0084047718,-0.0655619279,1.5105224848
254,35669,35667,0.0126828561,-0.0093099,0.9828671217,1.9782429934,-12.4829597473,-2.3232486248,1.9107321501,3.8991119862,0.3135373592,0.2056739926,-0.0450717472,1.4919312
255,35679,35677,-0.0165558718,-0.0233459435,0.9757127166,1.5433915854,-12.0678033829,-1.3365035057,1.9118288755,3.8999423981,0.3126961887,0.3167488277,-0.0233608726,1.471653223
256,35689,35687,-0.0469976477,0.0100792879,1.0006439686,1.2767758369,-10.3005371094,-0.7874773741,1.913838625,3.8995480537,0.3121356666,0.3558273315,-0.0014928823,1.45946455
257,35699,35697,-0.011237436,-0.0172491074,0.9942076802,0.2927546501,-7.3417015076,-0.070922859,1.914305687,3.8997950554,0.3116971552,0.5123714805,0.0004256419,1.467264533
258,35709,35707,-0.0249169338,0.0269165486,0.9772050381,-1.4720880985,-4.5104694366,0.95290941,1.9144217968,3.9000148773,0.3113692701,0.7533372045,-0.0167346615,1.4694064856
259,35719,35717,-0.0678078681,-0.1153637171,0.9873975515,-2.6021158695,0.1851028204,2.274528265,1.9184709787,3.9004120827,0.311619103,0.4531872869,-0.0496422388,1.4758605957
260,35729,35727,0.0150178345,-0.042160444,0.9604505301,-2.0503568649,4.0697612762,3.3794219494,1.9213203192,3.8985102177,0.3112762868,0.5247133374,-0.0069944169,1.4579250813
261,35739,35737,-0.0013788121,0.0538636446,0.963219285,0.0795991793,1.3744521141,2.9213533401,1.9221819639,3.8982322216,0.3107371628,0.483743161,0.0436417833,1.4921131134
262,35749,35747,-0.0707704723,0.0518980809,0.9689294696,1.2871593237,-1.7646983862,3.3667984009,1.9234611988,3.8983345032,0.3124245107,0.5570542812,0.0320380479,1.5281698704
263,35759,35757,-0.0534831695,0.0274544731,0.914460659,-1.2828574181,-1.9533089399,3.3485748768,1.9249382019,3.8986010551,0.3119786978,0.5772654414,0.0227531269,1.5742717981
264,35769,35767,-0.0400982089,0.0190008655,0.9873301983,-2.2236127853,-2.9428915977,2.5292253494,1.92550385,3.8986938,0.3115020394,0.6066374779,-0.0195461269,1.6054064035
265,35779,35777,-0.05285668,-0.0273410827,1.0060687065,-0.0638573095,-8.1567745209,2.1295816898,1.9267261028,3.8995645046,0.3102922142,0.6522289515,-0.0603852533,1.6685103178
266,35789,35787,-0.078268297,-0.0279885922,0.9867070913,-2.4969658852,-1.2644773722,1.4031296968,1.9272748232,3.900141716,0.3097130358,0.7191356421,-0.0823094323,1.7109110355
267,35799,35797,-0.0210727379,-0.1056202129,0.9498541355,-2.3109748363,0.3281504512,0.7790020704,1.9289491177,3.8997554779,0.3091026545,0.7105278373,-0.0500027165,1.713514924
268,35809,35807,-0.030951079,0.0464683548,0.990739584,-0.4603702426,1.9604309797,0.464329958,1.930670619,3.9003360271,0.3084243834,0.6874834895,-0.0953592733,1.7397919893
269,35819,35817,-0.0166305788,-0.0343073346,0.9569091797,2.5395526886,1.0069237947,0.0524783731,1.9311980009,3.9002530575,0.3047304749,0.7012361884,-0.1055805981,1.7449178696
270,35829,35827,-0.0292960647,-0.0532275438,0.9558736086,1.9867973328,3.1252160072,1.1338222027,1.9337226152,3.9010272026,0.3037540913,0.5633860826,-0.1473543048,1.7605056763
271,35839,35837,-0.041642759,-0.0091117322,1.0061466694,1.8919739723,0.566059947,2.6205761433,1.9345157146,3.9011449814,0.3029304743,0.5740057826,-0.1183052585,1.7812610865
272,35849,35847,0.0114419069,-0.0545350015,0.9870660305,2.8953597546,0.3977234662,1.9494527578,1.9343395233,3.9015653133,0.3067731261,0.6844676137,-0.0816528946,1.8241852522
273,35859,35857,0.04297968,-0.0137325739,0.9394723773,5.5159258842,-4.1694698334,2.9355251789,1.9353049994,3.9011852741,0.3061726391,0.7485936284,0.0569043718,1.8528784513
274,35869,35867,-0.0014483837,-0.0082335332,0.9851870537,5.6375517845,-5.6156487465,3.6915261745,1.936922431,3.9009916782,0.3054077923,0.7232421637,0.1366094053,1.8866403103
275,35879,35877,0.0166609921,-0.0526542738,0.9442901611,3.7595863342,-5.8258628845,2.9891841412,1.9380949736,3.9006774426,0.3055593073,0.7894753218,0.2018724978,1.9196331501
276,35889,35887,-0.0249186885,0.0039461763,1.0111602545,-0.0492795035,-2.8754651546,3.4735870361,1.9407520294,3.9000930786,0.3047320247,0.6961297989,0.221357137,1.9258753061
277,35899,35897,0.0561083071,0.0137491599,1.0068635941,-2.7400488853,-3.7536315918,3.0589358807,1.9414246082,3.9001965523,0.3041155636,0.7934857011,0.1838683039,1.9627791643
278,35909,35907,0.0545520484,-0.0396619029,0.9515350461,-5.1732587814,-4.2684178352,2.683719635,1.9421803951,3.9002063274,0.3064414859,0.9007405639,0.0969654098,1.9865196943
279,35919,35917,-0.0154413292,0.020614339,1.0121555328,-6.1304860115,-3.754904747,2.7088062763,1.9440324306,3.90122509,0.3058663607,0.8544931412,0.0603943765,2.0604526997
280,35929,35927,0.0022400776,-0.0160390213,0.9954227209,-5.1501245499,-1.6130815744,2.9319667816,1.944149375,3.9005255699,0.305447042,1.0246208906,0.02427065,2.0708093643
281,35939,35937,0.0013118715,-0.0462562703,0.9755849838,-4.75477314,0.0822214857,2.9062302113,1.9470052719,3.8997507095,0.3047690988,0.8497332931,-0.000448325,2.1579291821
282,35949,35947,-0.0037289103,0.0888169184,0.9867321253,-3.1395597458,1.1708583832,2.7599160671,1.9458200932,3.9026675224,0.305401355,0.9237188101,-0.0989139378,2.2284700871
283,35959,35957,0.0202540737,-0.0112457164,0.9714097977,-1.6185634136,1.5364533663,2.9666368961,1.946403265,3.9038701057,0.3049022555,0.9416115284,-0.1592265666,2.3034477234
284,35969,35967,-0.0487452857,0.0465333275,1.0067406893,0.8542970419,0.2043225914,3.3029658794,1.9474657774,3.9026370049,0.3043951094,0.9614272118,-0.0214683209,2.3050999641
285,35979,35977,0.0075607519,-0.0399329327,0.9579369426,1.6724413633,1.0454655886,3.8840181828,1.9509751797,3.9013614655,0.3043507338,0.911913991,-0.0251261536,2.2916283607
286,35989,35987,-0.0062209764,-0.0208587684,0.9729477167,0.537743628,1.2293775082,4.5742893219,1.9525827169,3.9001042843,0.3037357628,0.8532528877,0.0472822227,2.3909041882
287,35999,35997,-0.0166712459,0.0089851217,1.0131803751,-2.1316411495,2.5804488659,4.4719376564,1.9520671368,3.9022054672,0.3031270802,0.8594480157,0.0896469653,2.4622163773
288,36009,36007,0.0253797024,-0.0416047834,0.9635756612,-4.9029026031,3.6877708435,3.5972936153,1.9524493217,3.9020268917,0.3034551442,0.9172162414,-0.001591485,2.4962153435
289,36019,36017,-0.0421362519,0.0568854511,0.9759386182,-7.5147953033,5.0190215111,2.9657466412,1.9532189369,3.9017059803,0.3029012978,0.8959906697,-0.0441979207,2.5269927979
290,36029,36027,-0.0057943314,-0.0148582421,0.9816833138,-7.8296713829,6.9447050095,2.1920964718,1.9551553726,3.9016060829,0.3022599816,0.7580092549,-0.1207767501,2.5490751266
291,36039,36037,-0.0105077066,-0.0181557257,0.968747735,-7.6799402237,8.5703649521,1.9339447021,1.9549075365,3.9014365673,0.3017913997,0.8166329265,-0.2810488045,2.5728402138
292,36049,36047,-0.0002693851,-0.1227174699,1.0256437063,-6.6988897324,9.9623498917,1.7691483498,1.9560726881,3.9019021988,0.3044089675,0.676287353,-0.3544002473,2.6207187176
293,36059,36057,0.039506577,-0.061042551,0.9465132952,-5.9857449532,10.5918827057,1.1818943024,1.9575173855,3.9025092125,0.3038704693,0.455984354,-0.4735083878,2.6852509975
294,36069,36067,-0.0903645828,0.0142902052,1.0135375261,-4.9266872406,9.2458381653,0.8363569975,1.958271265,3.9036180973,0.303511411,0.4013649523,-0.4970849156,2.7215895653
295,36079,36077,-0.0484068207,0.1085085571,0.9379858971,-5.7996997833,7.0501713753,0.5894844532,1.9590492249,3.904818058,0.3032757342,0.3572023511,-0.6040325761,2.7738621235
296,36089,36087,-0.0334622934,0.0646505728,1.0110188723,-4.8642601967,3.3969843388,0.3252193034,1.9591701031,3.9036343098,0.3029094338,0.3615476787,-0.5505678654,2.7596919537
297,36099,36097,0.0217322093,-0.0108903842,0.9775211811,-2.3570773602,-0.3514375985,-0.4791905582,1.9577488899,3.9056339264,0.3024721146,0.4128034711,-0.6358084679,2.8435900211
298,36109,36107,-0.0273799282,0.0144341206,0.9865969419,-1.4635637999,-2.6333212852,-0.5423415303,1.9588985443,3.905356884,0.3054755628,0.311740756,-0.5985369086,2.848025322
299,36119,36117,-0.0609620549,0.1301929355,1.0364074707,3.1126098633,-2.9699840546,-0.2663702965,1.9588965178,3.9057979584,0.3052463531,0.3821645379,-0.6080065966,2.8635401726
300,36129,36127,0.0290236231,-0.0072371941,0.9773073792,4.6815781593,1.7977639437,0.0123454351,1.9608482122,3.9053032398,0.3049352169,0.3544306755,-0.5514593124,2.8562235832
301,36139,36137,-0.0511540845,0.0759014711,0.9660000801,3.3158147335,1.9919723272,2.2030951977,1.9608113766,3.9056046009,0.3047302961,0.4124310911,-0.5697212815,2.8406608105
302,36149,36147,0.0163846873,-0.0397954248,0.9504002929,2.841886282,2.333630085,2.8220541477,1.9627372026,3.9053430557,0.3044185042,0.3097240627,-0.527022481,2.8797414303
303,36159,36157,-0.0100944554,-0.0107068587,0.9746044874,-0.1888174862,3.6100080013,4.1554188728,1.9637029171,3.904753685,0.3040427566,0.2749656439,-0.5060662031,2.8879885674
304,36169,36167,-0.0043757008,-0.036281988,0.9777581692,-3.10414505,-1.7663607597,6.113448143,1.964058876,3.9051980972,0.3036623299,0.2289659083,-0.5582624078,2.9505455494
305,36179,36177,-0.0517430641,-0.0172457527,1.0017479658,-6.5381546021,4.6270489693,6.5282225609,1.9644191265,3.9049639702,0.3037675321,0.2798344493,-0.6521611214,2.9928922653
306,36189,36187,0.0102650188,-0.0764660686,0.9925177097,-5.9058008194,5.0325245857,7.693002224,1.9655650854,3.9055490494,0.3033432961,0.2062834203,-0.7559764385,3.0463097095
307,36199,36197,0.0526049584,0.0226116292,0.946126461,-5.5408053398,6.463719368,8.3210372925,1.9671052694,3.9046278,0.3029503822,0.1080592126,-0.7024677396,3.1404469013
308,36209,36207,0.1037136689,0.0049075354,0.9119691253,-4.0488476753,5.2369213104,8.7182502747,1.9673067331,3.9049787521,0.3022627234,0.1540757567,-0.7981589437,3.2470142841
309,36219,36217,-0.0269652288,0.1019779891,0.9723244905,-3.7088389397,3.2887182236,9.7586269379,1.9687201977,3.9065153599,0.3016135097,-0.0693473965,-0.8662506342,3.381408453
310,36229,36227,0.0012796125,-0.0336749554,0.9629039764,-1.2723724842,2.3732693195,9.3601179123,1.9700905085,3.9065711498,0.3010400236,-0.1024644747,-0.9060572982,3.4704735279
311,36239,36237,0.0494907796,-0.0961713418,0.9652510285,0.6140342355,0.7251290679,9.0489206314,1.9703397751,3.9065806866,0.3024153709,-0.067500785,-0.9212121367,3.5411074162
312,36249,36247,-0.0063153063,0.0760847479,0.949072063,1.2248688936,-1.5342311859,8.7857809067,1.9710232019,3.9063179493,0.3018912077,-0.0399822444,-0.9041731358,3.6307182312
313,36259,36257,0.0083242487,0.0122984294,0.9389110208,4.4473829269,-1.0707739592,7.5015716553,1.9721144438,3.9066162109,0.3014159799,0.0679622293,-0.8511314392,3.7332980633
314,36269,36267,-0.0370864347,-0.0357782915,1.0295834541,6.9694328308,2.6345973015,6.5868835449,1.9740592241,3.9078249931,0.3007119,-0.0253090803,-0.8315250874,3.8486602306
315,36279,36277,-0.0578451157,-0.0527780354,0.9943003058,8.3960447311,8.3590297699,4.6294884682,1.97427845,3.9083693027,0.299092412,-0.0731217936,-0.7625762224,3.9265589714
316,36289,36287,-0.0278802663,-0.0170675591,0.9930858612,10.7641172409,4.2298545837,3.2710459232,1.9751756191,3.9089338779,0.2984597087,-0.0906889215,-0.663245976,3.9801688194
317,36299,36297,-0.00267156,-0.0298174955,0.9901827574,11.202123642,-3.6341326237,2.7693474293,1.9759480953,3.9087936878,0.297814697,-0.051056385,-0.6218894124,3.9638044834
318,36309,36307,0.0009341419,-0.0499509461,0.9789109826,8.5398702621,0.4761049747,2.1050055027,1.9790303707,3.9089548588,0.3008941114,-0.2572240233,-0.510043025,4.0458083153
319,36319,36317,-0.0497186035,0.0073301243,1.0072920322,6.2360315323,-2.4771444798,1.175318718,1.9782699347,3.9097895622,0.3005232215,-0.1694481373,-0.3708308637,4.0706553459
320,36329,36327,0.0067478353,-0.0931637958,0.9669597745,2.9874699116,1.8975769281,0.3031485677,1.979254961,3.9108734131,0.2999740243,-0.2297895104,-0.3532288074,4.1105709076
321,36339,36337,-0.0152187655,0.0497695953,0.9728707075,-1.7758239508,0.4754219353,-0.0181362852,1.9801217318,3.9112079144,0.3025143147,-0.1543921381,-0.3100011647,4.1150565147
322,36349,36347,-0.0639376715,0.074105978,0.9938907623,-4.4292855263,-4.1094779968,-1.0055323839,1.9798238277,3.9113287926,0.3022328317,-0.0571334362,-0.3500171304,4.0953102112
323,36359,36357,-0.0175361149,-0.0160278957,0.9718654156,-9.4415035248,-0.7113682032,-1.604143858,1.9812264442,3.9123733044,0.3018371165,-0.1064711288,-0.5289291143,4.0947165489
324,36369,36367,-0.0550097637,0.0515539087,0.9972871542,-6.6144633293,1.2329908609,-2.1412987709,1.9823067188,3.9146773815,0.3013628125,-0.1513811648,-0.7140228748,4.1021828651
325,36379,36377,-0.081196256,0.0061951275,1.000847578,0.6787486672,-2.3383803368,-2.6745383739,1.982625246,3.9148588181,0.3023159504,-0.120073095,-0.7243143916,4.0778594017
326,36389,36387,-0.0653377995,0.0649788603,0.976108849,9.0936756134,-6.5607709885,-1.7289258242,1.9832741022,3.9153757095,0.3021201193,-0.0275105815,-0.6002981663,4.0941152573
327,36399,36397,-0.0204266664,0.0359456763,1.0018212795,17.260761261,-4.1904067993,-1.6512426138,1.9835466146,3.9150538445,0.3019039631,0.0349704996,-0.3336290121,4.1173424721
328,36409,36407,-0.0232361313,-0.0348573215,0.9882053137,24.1397666931,-6.582947731,-0.4107755423,1.9850347042,3.9153146744,0.3008806407,-0.0033678,-0.1060363948,4.0992126465
329,36419,36417,-0.0515353046,-0.0205070451,1.0008641481,22.8894252777,-5.8926033974,0.966124177,1.9852238894,3.9149374962,0.3005807996,0.089167878,0.1553698629,4.1020460129
330,36429,36427,0.029438382,-0.098309733,0.9532548785,13.2424259186,4.5453410149,2.4416615963,1.9857392311,3.9152464867,0.3003277183,0.1905853748,0.2562760711,4.0659842491
331,36439,36437,0.0637925267,-0.0945345238,0.9759418368,5.1702184677,2.9243211746,2.2945570946,1.9864301682,3.9177889824,0.3025979698,0.180457294,0.135992676,4.0918974876
332,36449,36447,-0.0713958368,-0.0388247781,1.0000989437,-2.9461400509,7.5828342438,3.5272357464,1.9880392551,3.9183022976,0.3023099303,0.01629523,0.207756564,4.1408314705
333,36459,36457,-0.1014441922,-0.0192399323,0.9010264277,-9.4309825897,12.5782928467,4.7711005211,1.9896415472,3.9192941189,0.3020016551,-0.1355857253,0.1522514522,4.1760587692
334,36469,36467,-0.0601598024,-0.0075047282,0.934787631,-9.3689517975,7.8637042046,5.1863203049,1.9912580252,3.9194045067,0.3015982807,-0.27770105,0.0423777513,4.2250595093
335,36479,36477,0.0034053021,0.0043881303,0.9436783791,-8.4314785004,5.7026276588,4.513522625,1.991725564,3.9195604324,0.3017481565,-0.2997351587,-0.0670152009,4.276248455
336,36489,36487,-0.0333327763,0.0347951725,1.0110607147,-6.6501550674,4.1801919937,4.0015392303,1.9924896955,3.9208476543,0.3013792038,-0.3024373353,-0.162957862,4.3358831406
337,36499,36497,-0.023831103,0.0061454829,0.986436367,-0.5727520585,-0.5619601011,3.4318237305,1.9933592081,3.9216799736,0.3010984063,-0.2550604641,-0.1790362895,4.3938789368
338,36509,36507,0.0297006909,-0.0580390468,1.0239559412,5.8691139221,0.2675915956,1.604860425,1.9956178665,3.9220166206,0.3048365712,-0.4000447094,-0.0912137628,4.4194641113
339,36519,36517,0.037009947,-0.042151317,0.9576252103,10.2698640823,-0.2965619564,1.4752522707,1.9958728552,3.9233183861,0.3047315776,-0.3681395054,0.0191189125,4.4989171028
340,36529,36527,0.0631059781,-0.025871478,0.9966474771,12.327381134,-2.7400074005,-0.3366491199,1.9957462549,3.9233484268,0.3046916127,-0.2554408908,0.1728582978,4.5316324234
341,36539,36537,0.0045978171,-0.0417931303,0.9647082686,9.9050388336,-4.4851036072,-1.4510718584,1.9966522455,3.9252786636,0.3056227267,-0.2488787919,0.255550921,4.5566210747
342,36549,36547,-0.0075373184,0.0042193728,0.9389584661,3.5081496239,-4.5953669548,-2.9101994038,1.9984591007,3.9242768288,0.3055888414,-0.0847753584,0.2552297413,4.4172668457
343,36559,36557,0.1207553893,-0.0853010938,0.8701664209,-5.1142106056,-1.9216761589,-2.9642634392,1.998691082,3.9257888794,0.3054416776,-0.0709528551,0.2793765068,4.4270172119
344,36569,36567,0.125162378,-0.1069845259,0.865183115,-11.6053028107,1.1394249201,-4.4612851143,2.0005991459,3.9259917736,0.303966254,-0.1799985468,0.1751588583,4.3830537796
345,36579,36577,0.0668599233,-0.055419907,0.873858273,-14.5629301071,-1.0175318718,-3.9650361538,2.001614809,3.9291739464,0.3035415709,-0.0767788738,-0.0012700327,4.4567580223
346,36589,36587,0.046028994,-0.028949663,0.8897542953,-13.7015829086,3.2239434719,-5.7917757034,2.0033810139,3.9304525852,0.3028517365,-0.16857104,-0.1222838685,4.455821991
347,36599,36597,0.00536334,-0.0565456636,0.9166985154,-7.3939666748,1.0418121815,-7.0696144104,2.0053794384,3.930836916,0.3020308614,-0.2544150949,-0.2556065917,4.3689866066
348,36609,36607,-0.0625731125,0.0267878734,0.9455330372,-0.0834832191,-0.9244831204,-7.928129673,2.006248951,3.9314954281,0.307929039,-0.2541609406,-0.291862905,4.2863936424
349,36619,36617,-0.0235853568,-0.0377200395,0.9094316363,5.9266300201,-1.7628051043,-8.634554863,2.0076899529,3.9310059547,0.3074256778,-0.2885676324,-0.2079954743,4.2328720093
350,36629,36627,-0.0909264088,0.0320906118,0.9687922597,10.5976228714,-3.6659839153,-9.3648386002,2.0078833103,3.9310555458,0.3069573343,-0.2003743201,-0.0942151621,4.1229629517
351,36639,36637,0.0488564707,-0.0821872354,0.9352405071,12.0926361084,-6.0236902237,-10.0107736588,2.0087766647,3.9317834377,0.3067539632,-0.0962435454,-0.0055029001,4.025891304
352,36649,36647,0.0433375277,0.0167295318,0.9289361835,8.0436115265,-7.0116853714,-10.0634975433,2.0089206696,3.9307332039,0.3062815368,0.1086023524,0.2122926563,3.908064127
353,36659,36657,-0.0056243869,0.0037824884,0.9510129094,-0.1698919535,-6.8191576004,-10.3792734146,2.0103807449,3.9328861237,0.3055618107,0.07710585,0.0866175145,3.7988557816
354,36669,36667,-0.0615691245,0.0574051738,0.9425542951,-9.0264348984,-5.5759077072,-10.4498910904,2.0106737614,3.9329912663,0.3050113618,0.0430206582,0.0591445118,3.6880595684
355,36679,36677,0.0197715629,-0.0616570115,0.9266178608,-12.4844074249,0.4697722495,-12.1392755508,2.0114681721,3.9333600998,0.3041514158,0.1007186547,-0.085107848,3.5669603348
356,36689,36687,-0.0240690205,0.0018138658,0.9603977203,-9.4035615921,2.5867657661,-12.486664772,2.0115931034,3.9343628883,0.3033392429,0.114488706,-0.220613271,3.4436113834
357,36699,36697,-0.0188321639,-0.0231299028,0.9675213695,-2.6009750366,5.6227545738,-11.3839569092,2.0134725571,3.932810545,0.3025461435,0.1299813539,-0.2661798596,3.2066116333
358,36709,36707,-0.0146884779,0.0156909414,0.9749689102,4.2495689392,6.2445573807,-9.9713029861,2.0148701668,3.9326732159,0.3003628552,0.0363240652,-0.1983359009,3.0864496231
359,36719,36717,0.0052096569,0.0030471936,0.9726623893,7.5594215393,6.8772730827,-9.4551677704,2.0160095692,3.9317762852,0.299366951,-0.0747400299,-0.0386737548,2.9521255493
360,36729,36727,-0.0378954783,0.0492827855,0.9876800179,9.1410579681,7.1344909668,-8.9237966537,2.0154764652,3.9311201572,0.2983863354,-0.0072348006,0.0736952126,2.8186311722
361,36739,36737,-0.0108143687,-0.0067723794,0.9723234177,9.7818727493,6.3549013138,-8.3580684662,2.0158929825,3.9330613613,0.2995760143,-0.0385104753,-0.0366557576,2.7224874496
362,36749,36747,0.0137363812,-0.0083656833,0.9833754897,7.797018528,6.0802526474,-7.9035477638,2.0171194077,3.9321908951,0.2986987233,-0.1390373856,0.1715564132,2.6154630184
363,36759,36757,-0.0187613983,0.0066771014,0.9908104539,5.9124727249,4.6786761284,-8.4374761581,2.0171539783,3.9325039387,0.2978207469,-0.1497627944,0.2483156472,2.5364017487
364,36769,36767,-0.0153409624,-0.0058666035,0.9959561229,2.8323225975,-0.3458093107,-9.2819747925,2.0187745094,3.9334864616,0.2978335917,-0.2553103268,0.204684943,2.4520163536
365,36779,36777,0.012702086,0.0145594925,0.9937455058,1.2877882719,-4.9650769234,-9.368812561,2.0198793411,3.9345800877,0.2969031036,-0.2615630627,0.2092934251,2.3241314888
366,36789,36787,-0.0150646679,-0.0065726549,1.0606375933,3.6292591095,-12.1047382355,-8.7785768509,2.0181612968,3.9353749752,0.2962526679,-0.0078166239,0.303919524,2.333394289
367,36799,36797,0.0309774578,-0.0400291085,0.9876714945,5.114751339,-15.1433486938,-7.9538679123,2.0184106827,3.9360942841,0.2952362895,0.0733633116,0.1155752763,2.1999087334
368,36809,36807,-0.0353589803,0.013477697,1.0162726641,4.6047821045,-12.5534410477,-5.2287583351,2.0172717571,3.9360234737,0.2978409231,0.307696104,0.2666279078,2.1139876842
369,36819,36817,0.0305749197,-0.0445996374,0.996859014,6.3444104195,-5.8432087898,-3.3289215565,2.0169026852,3.9349048138,0.297188729,0.3678953052,0.4159889817,2.034863472
370,36829,36827,-0.06837143,-0.0267580934,1.0529714823,6.9373431206,0.6860977411,-2.5027432442,2.0186855793,3.9375724792,0.2964860201,0.2452254444,0.2778215706,2.0078146458
371,36839,36837,-0.0606728755,0.1013647988,1.0362838507,5.4351949692,6.8487391472,-1.7239973545,2.0201265812,3.9378340244,0.2969338,0.2027500868,0.3860463798,1.986623764
372,36849,36847,-0.0386619046,-0.043026913,1.0211000443,4.317923069,9.9162349701,-1.7606033087,2.0219647884,3.9382405281,0.2964114845,0.0604102649,0.4527313709,1.9743583202
373,36859,36857,-0.0053003025,-0.0039838227,1.0260316133,5.3202328682,7.358227253,-2.2867567539,2.0233886242,3.9402785301,0.2958621383,-0.0858416781,0.435133338,1.9768679142
374,36869,36867,0.025430873,-0.0399793684,1.0014052391,3.9680576324,6.7735066414,-3.0802876949,2.0233454704,3.9408903122,0.2969297767,-0.1178961173,0.5737712383,1.9992908239
375,36879,36877,0.0110251456,-0.0261041261,0.9750336409,3.7089006901,2.1541039944,-3.688577652,2.0243163109,3.9415364265,0.2965612411,-0.1593395472,0.6108990908,1.9335598946
376,36889,36887,-0.0075972122,0.0327780768,1.0443993807,6.2319712639,-2.7353069782,-3.8055958748,2.0250856876,3.942013979,0.2961410582,-0.2052276284,0.6291401982,1.9707711935
377,36899,36897,-0.0061358954,0.028976446,1.026291132,9.4697551727,-6.1970443726,-4.6228895187,2.0250601768,3.9417295456,0.2981943488,-0.068452999,0.7175236344,1.9126167297
378,36909,36907,-0.0611958914,0.0800320432,0.9896227121,11.4894323349,-6.7322649956,-4.9763813019,2.0260803699,3.9428305626,0.2980019748,-0.0305570979,0.7787895203,1.8915057182
379,36919,36917,-0.0537909865,0.0518689118,0.9946370125,11.7034788132,-5.1281886101,-4.6463217735,2.0260031223,3.9454362392,0.2978045046,0.0188027788,0.8684209585,1.9551650286
380,36929,36927,0.0478996858,-0.0927899629,0.9553722143,8.687081337,-0.8836576343,-5.5378317833,2.0262658596,3.9463613033,0.2977081239,0.1745319068,0.9449279904,1.9168995619
381,36939,36937,-0.0250122491,-0.0476116203,0.9718421698,8.6342468262,3.1256365776,-6.4134712219,2.0269322395,3.9473474026,0.2969329655,0.1112598255,0.9998896122,1.8688207865
382,36949,36947,0.0106831845,-0.0217929929,0.9532578588,7.5531249046,4.8655796051,-6.6994838715,2.0267150402,3.947063446,0.2965772152,0.0706476867,1.0438462496,1.7309803963
383,36959,36957,0.0587999262,-0.0397462063,0.973477602,6.6550102234,3.7295129299,-6.2206311226,2.0271639824,3.9474725723,0.2963559628,0.0654647946,1.2314552069,1.7317934036
384,36969,36967,0.0642162189,-0.1052866429,0.9546977282,8.4353513718,-0.5624758601,-5.365281105,2.0243544579,3.9480829239,0.2966226637,0.0064503457,1.2410284281,1.6839591265
385,36979,36977,-0.0142215556,-0.0364261381,0.9638830423,8.1165409088,-1.9158270359,-4.6928653717,2.0257062912,3.9476773739,0.2962381542,-0.0640237033,1.4250677824,1.5738818645
386,36989,36987,0.0040659253,0.0774124563,0.9651241302,9.1470966339,-1.642313838,-3.3813967705,2.0246276855,3.9476687908,0.2958474159,-0.0189464092,1.4541471004,1.5402127504
387,36999,36997,-0.0154120568,0.0032172515,0.9636110067,7.5074453354,-1.4616057873,-2.3167686462,2.0250253677,3.9490597248,0.2942790687,-0.0537301525,1.4119963646,1.5969626904
388,37009,37007,-0.0731344819,0.0951051265,0.9844632149,5.6503882408,-1.6258701086,-1.2547541857,2.0238146782,3.9514889717,0.2938446999,0.0653320402,1.5111227036,1.630900383
389,37019,37017,-0.0751018673,0.0851115659,0.9855861664,3.1091291904,0.7599999309,-1.422264576,2.0263319016,3.949085474,0.2933220565,0.0893710405,1.643407464,1.4781440496
390,37029,37027,-0.0245783068,0.0302182958,0.982021749,-0.8420003653,5.6998023987,-1.0094048977,2.0273125172,3.9498758316,0.2927617133,0.0761541873,1.7208695412,1.4857251644
391,37039,37037,0.003150244,-0.0131312599,0.9844849706,-2.2366347313,4.4825849533,-1.6335698366,2.0294127464,3.9504115582,0.2974643111,0.0809128731,1.5948932171,1.429759264
392,37049,37047,-0.022702856,0.0254910514,0.9725880623,-4.631509304,3.8557407856,-2.8412511349,2.0303280354,3.9510951042,0.2971749008,0.0012525154,1.5875257254,1.3757052422
393,37059,37057,-0.0532888994,0.0453347862,1.0181981325,-6.9993190765,4.5365452766,-3.4334189892,2.0313732624,3.9498896599,0.2968619466,-0.0630235672,1.6912301779,1.3632138968
394,37069,37067,0.0108427992,0.015333659,0.9594194293,-6.1137332916,4.6959733963,-3.5261571407,2.0315408707,3.9504818916,0.297991991,-0.1336652488,1.6021230221,1.349116683
395,37079,37077,0.048401285,-0.0901364535,1.0165852308,-4.6109690666,3.4795343876,-4.3000540733,2.032276392,3.9501652718,0.2976543307,-0.2762098312,1.5174233913,1.263782382
396,37089,37087,0.0808769614,-0.079845041,0.918458879,-2.8565444946,1.3200942278,-4.5444693565,2.0327894688,3.9502851963,0.2974678874,-0.2471423298,1.4543993473,1.2196333408
397,37099,37097,0.0076493425,-0.0389307328,0.926245153,1.507463336,-9.2249860764,-3.4876799583,2.0322947502,3.9499144554,0.2988503575,-0.139879927,1.4394825697,1.1922302246
398,37109,37107,-0.0015944864,-0.0500113592,0.9494417906,3.5973541737,-15.4612426758,-1.9657207727,2.0341899395,3.9494099617,0.2984982133,-0.2000404149,1.5544265509,1.1431884766
399,37119,37117,-0.0262673963,-0.0526470467,0.9714808464,1.0607575178,-17.2819271088,-1.306088686,2.0362393856,3.9489495754,0.2982074916,-0.0845215693,1.5194259882,1.0631513596
400,37129,37127,0.0222513266,-0.0311654732,0.976064086,-3.6710350513,-15.346581459,-0.6703161597,2.0363111496,3.9498443604,0.2979536057,0.2011597157,1.5178164244,1.0741351843
401,37139,37137,0.0083486391,0.0025747893,0.9747023582,-6.5648498535,-13.7292356491,-1.3193308115,2.0378725529,3.9493834972,0.3002686501,0.2298640609,1.5229618549,1.0270497799
402,37149,37147,-0.0148471799,0.0239815377,0.9756628871,-9.7010059357,-6.8224272728,-1.0487139225,2.0380682945,3.9499034882,0.3000774086,0.4369290471,1.3931536674,0.9988021851
403,37159,37157,-0.0740770772,0.0662441552,1.0263867378,-12.8272781372,-2.4531095028,-0.9147284627,2.0385835171,3.9492309093,0.29979828,0.4723697305,1.3688902855,1.0051261187
404,37169,37167,-0.0880815089,0.0230621919,0.9904276729,-15.2843704224,-0.5267890096,-0.6691551805,2.0380311012,3.9481663704,0.3002880514,0.460965693,1.2180844545,0.9710171223
405,37179,37177,0.0399658009,0.0414254256,0.9418348074,-11.402089119,-1.2892357111,-0.4172605276,2.0388441086,3.9477984905,0.3000712991,0.5110851526,1.1345885992,0.9491212368
406,37189,37187,-0.0906186327,-0.0084939878,0.9850674868,-7.1012153625,-1.8303312063,-0.2245260626,2.0383727551,3.9493479729,0.2998250723,0.5494377017,1.0183541775,1.0701673031
407,37199,37197,-0.0287345368,0.0111097516,0.9838430285,-5.7541389465,-0.0087451553,-1.1592664719,2.038585186,3.9482598305,0.3020457923,0.6542532444,1.027893424,1.0390348434
408,37209,37207,0.0001802997,-0.0549593866,0.9642008543,-2.3004827499,2.367401123,-0.8383624554,2.0398435593,3.9483561516,0.3019239008,0.6511353254,0.9202062488,1.0551493168
409,37219,37217,-0.0454314016,0.0162404701,0.9669448137,-3.6641383171,5.8171658516,-1.9104462862,2.0408990383,3.9479112625,0.3017439544,0.6034327745,0.9189768434,1.0776873827
410,37229,37227,-0.1202566847,0.0686898455,0.9519623518,-5.5764656067,5.7848038673,-4.4126310349,2.0414366722,3.9484722614,0.3016104102,0.6020078659,0.9067081809,1.0911979675
411,37239,37237,-0.0302023981,0.0304057095,0.9413642883,-9.4437923431,3.4819014072,-5.0145344734,2.0419206619,3.9493603706,0.302226603,0.5961779952,0.7743214369,1.0919808149
412,37249,37247,-0.0350437798,0.0178319179,0.9659546018,-14.2953252792,-1.1748820543,-5.9678502083,2.0432813168,3.9488191605,0.3019539714,0.4755722284,0.7235819101,0.9943422079
413,37259,37257,-0.0303368215,-0.006805595,0.9704485536,-15.9553365707,-2.6100749969,-7.0449929237,2.0448040962,3.9491114616,0.3016351461,0.4195033312,0.5315223932,0.9663328528
414,37269,37267,-0.026587626,-0.0045363009,0.9387682676,-16.5864906311,-4.9188241959,-8.2214736938,2.0445995331,3.9477982521,0.3035264909,0.549267292,0.3848432899,0.9471577406
415,37279,37277,-0.0270713978,-0.02597454,0.9811903238,-17.3753948212,-0.9694140553,-10.7758674622,2.0433888435,3.9483981133,0.3033435345,0.6737773418,0.3793243468,0.9095138907
416,37289,37287,0.0269057173,0.0144587867,0.9481882453,-13.9300527573,-4.3127274513,-12.3623218536,2.0431311131,3.947924614,0.3030911982,0.7844086885,0.1466014385,0.7965014577
417,37299,37297,-0.0419456214,0.0413535871,1.0032247305,-9.7125597,1.9346567392,-13.1077384949,2.0442111492,3.9476635456,0.3056349754,0.7170766592,-0.0355928913,0.6615481973
418,37309,37307,0.0092172083,0.0099502495,0.9759730697,-4.4436407089,9.1777057648,-12.7754430771,2.0452635288,3.9478003979,0.3054768443,0.7149637341,-0.1484825164,0.5596781373
419,37319,37317,-0.0035452181,0.0076961652,1.0005751848,-2.1455082893,13.4139909744,-13.3346471786,2.0453808308,3.9468307495,0.3053093851,0.6604628563,-0.1903335154,0.4060766101
420,37329,37327,-0.0066515305,0.0004894384,0.9868054986,-1.089931488,17.2687950134,-13.7877807617,2.04626441,3.9469325542,0.306058228,0.4692823291,-0.2585157454,0.285238862
421,37339,37337,-0.0362770855,0.0279321484,0.9737149477,-4.0394697189,15.066110611,-14.2568397522,2.0466330051,3.9456827641,0.3058847487,0.2605025172,-0.174539119,0.1413346082
422,37349,37347,-0.0360704772,0.0037254414,0.9870163202,-6.5270123482,13.720331192,-14.853884697,2.0467915535,3.946901083,0.3057912886,0.1346434504,-0.2862859964,0.0666788891
423,37359,37357,-0.0339294188,0.1239360869,0.9766510725,-8.7124214172,6.7624111176,-16.2797851563,2.0472397804,3.9460213184,0.3056674898,0.0581733845,-0.2870706022,-0.0517351963
424,37369,37367,0.016881831,0.1554558426,0.9389096498,-8.3426132202,2.6714470387,-16.2402572632,2.0475890636,3.9462103844,0.306681782,0.0150891244,-0.3905893266,-0.2433840632
425,37379,37377,-0.0486408249,0.0468930341,1.0049533844,-5.6905035973,0.5707502365,-15.4054107666,2.0477776527,3.9466056824,0.3065565825,0.0343322791,-0.4703753591,-0.3537934721
426,37389,37387,-0.0466475375,0.06920968,1.0183171034,-6.3841266632,4.9836497307,-14.0079755783,2.047981739,3.9458801746,0.3063333631,-0.0331232622,-0.4512398839,-0.4685520828
427,37399,37397,-0.0271683969,0.0131189832,0.976082921,-7.8432970047,9.4078388214,-13.2583026886,2.0480160713,3.946146965,0.3061170578,-0.0899003223,-0.5327780247,-0.5980433822
428,37409,37407,-0.0275840722,0.0097435089,0.9789583087,-11.3839645386,11.4741697311,-13.2944316864,2.0481247902,3.947072506,0.305877924,-0.2041350305,-0.7219019532,-0.6974623203
429,37419,37417,-0.083280623,-0.0232953299,0.9786325097,-14.9942913055,4.6665968895,-11.7141551971,2.047352314,3.9453060627,0.3056398928,-0.3154933453,-0.7241172791,-0.8559551835
430,37429,37427,-0.0650717616,-0.0396551602,0.9985916615,-14.3323554993,13.9456262589,-10.583024025,2.047375679,3.9453201294,0.3079605699,-0.3484094143,-0.9221172929,-0.9712604284
431,37439,37437,-0.0081494935,-0.0071206503,0.9626499414,-14.3474664688,18.0819511414,-9.8983898163,2.0465540886,3.943782568,0.3078001738,-0.4538846016,-1.1113783121,-1.1627392769
432,37449,37447,0.014160404,0.0139806885,0.8995422125,-14.2788200378,16.6310863495,-8.5079288483,2.0476412773,3.9439678192,0.3075882494,-0.6967836618,-1.2984887362,-1.2704377174
433,37459,37457,0.0275465604,-0.0786808208,0.9407323003,-9.8267383575,12.5629281998,-8.4709920883,2.0450427532,3.9438517094,0.3075976372,-0.6774998307,-1.3812530041,-1.3348799944
434,37469,37467,0.0271859765,-0.0368867144,0.9387628436,-3.6669261456,8.7419977188,-8.2952299118,2.0456092358,3.943423748,0.3088241816,-0.8230640292,-1.4636625051,-1.4444974661
435,37479,37477,-0.0103463894,0.0171005875,0.9293771982,3.8535716534,2.4180083275,-8.5114545822,2.0461781025,3.9431562424,0.3085967898,-0.9082372189,-1.5084093809,-1.4998848438
436,37489,37487,-0.0474795438,-0.0277957805,0.9807368517,8.0815086365,5.6299667358,-9.2847719193,2.0461206436,3.9420003891,0.3083226383,-0.9444531202,-1.44374156,-1.6106191874
437,37499,37497,-0.0370478407,0.1491490304,0.9663063884,11.7248926163,5.791492939,-8.5144414902,2.0463087559,3.9422881603,0.3069131374,-0.9904856682,-1.3854135275,-1.7013309002
438,37509,37507,-0.0230860878,0.1382607967,0.9477853775,14.4395256042,4.9698438644,-8.2040567398,2.0466966629,3.9414517879,0.3065086305,-1.0394573212,-1.2753571272,-1.8420628309
439,37519,37517,-0.0117203062,0.0754509866,0.9817979336,16.5293426514,8.3261384964,-7.5316057205,2.0474402905,3.9408967495,0.306052655,-1.1050889492,-1.1066982746,-1.9180194139
440,37529,37527,-0.0037101381,0.0087298704,0.9552822709,12.7786178589,9.1504945755,-7.8807859421,2.0480942726,3.9399762154,0.3066740334,-1.1984106302,-0.8630088568,-1.970553875
441,37539,37537,-0.0024223838,-0.1021870822,0.9615539908,9.7476043701,10.2384824753,-8.3442020416,2.0483214855,3.9403822422,0.3062341809,-1.3148030043,-0.831469357,-2.0557508469
442,37549,37547,0.0182474349,-0.0079123061,0.9606890678,6.6359148026,4.2374405861,-6.3384408951,2.0486373901,3.94130826,0.3057938516,-1.4013952017,-0.7650139928,-2.1499624252
443,37559,37557,0.0124022318,0.0510515943,0.9445813298,3.774846077,-2.4890975952,-6.1133680344,2.0479419231,3.9398169518,0.3054038584,-1.3164476156,-0.7461311221,-2.3341257572
444,37569,37567,-0.0138140004,0.0098282108,0.9765690565,4.1900987625,-10.2218494415,-3.8404624462,2.046807766,3.9381682873,0.3042594194,-1.2922608852,-0.6743979454,-2.495603323
445,37579,37577,-0.0396425836,-0.0088618929,0.9787966609,5.6378064156,-3.2894432545,-1.4361194372,2.0454785824,3.9397404194,0.3036905825,-1.137491703,-0.7489577532,-2.4902749062
446,37589,37587,-0.0342023969,-0.1015332267,0.9493873715,3.7342514992,2.4228141308,-1.7696421146,2.0475153923,3.9401640892,0.3029680252,-1.2887343168,-0.7227396369,-2.4724998474
447,37599,37597,0.0280888192,0.0750428736,0.9416983128,1.4484491348,6.0874781609,-3.1150617599,2.0466692448,3.9400761127,0.3054193258,-1.2823902369,-0.6445574164,-2.4766647816
448,37609,37607,0.0134808235,0.0355126895,0.9273882508,-0.2324577719,5.2240128517,-4.5086503029,2.0470461845,3.9406530857,0.3048856258,-1.3133171797,-0.6831774712,-2.5247385502
449,37619,37617,-0.0019621304,0.0360891558,0.9783220887,1.2757077217,3.3515384197,-5.1051392555,2.0481586456,3.9412825108,0.3042069674,-1.4074965715,-0.7324666977,-2.571750164
450,37629,37627,-0.0287785828,-0.0256870557,0.9525579214,3.9425771236,0.626643002,-3.8238551617,2.0483045578,3.9418942928,0.3054348528,-1.3813456297,-0.7446764708,-2.6219053268
451,37639,37637,0.0336012244,-0.0290211011,0.9282228351,11.5446443558,-3.5528261662,-1.5471717119,2.0489284992,3.94201231,0.3048446774,-1.3785982132,-0.6828950047,-2.7033648491
452,37649,37647,0.0032221002,-0.0205628537,0.9485967755,16.1063404083,-8.4428415298,0.1295357496,2.0501244068,3.9412164688,0.3042025268,-1.3811168671,-0.5153928399,-2.694863081
453,37659,37657,-0.0217261817,-0.063810192,1.0006344318,17.6925201416,-12.0211582184,0.9996459484,2.049942255,3.9426319599,0.304594934,-1.3020484447,-0.3479767144,-2.624348402
454,37669,37667,0.0127834035,0.070923306,0.9815706611,15.6705513,-10.8150815964,1.1274813414,2.0498495102,3.9420506954,0.3039760888,-1.1101373434,-0.1861214936,-2.7007861137
455,37679,37677,0.0272846706,0.0458141491,0.9710093141,11.8636207581,-4.7620081902,1.5038787127,2.0512406826,3.9450070858,0.3032189906,-1.1973110437,-0.211753428,-2.5417587757
456,37689,37687,-0.0206749924,-0.0274181273,0.9562647343,5.8263440132,0.9371156693,1.5920407772,2.0503211021,3.9443581104,0.3025820255,-1.0569941998,-0.0727030262,-2.6320319176
457,37699,37697,-0.0036923185,0.0209638439,0.9903720021,0.6318862438,4.9660315514,2.2711839676,2.0510861874,3.9440085888,0.3026593924,-1.0739834309,-0.0242706798,-2.6686594486
458,37709,37707,0.0580526441,-0.0269325562,0.9760406017,3.2545628548,-3.5248615742,2.6721775532,2.0517148972,3.9448583126,0.3019572198,-1.0869222879,-0.0239162389,-2.637973547
459,37719,37717,-0.0530009866,0.0018864693,1.0093265772,5.3352394104,-4.3672809601,2.9670462608,2.0528395176,3.9452264309,0.3011940122,-1.0934245586,0.0128737623,-2.6052947044
460,37729,37727,0.0291986465,0.0088578584,0.9896009564,11.389040947,-4.143465519,2.6932899952,2.0536923409,3.94490242,0.3027993739,-1.0027623177,0.119618468,-2.6012158394
461,37739,37737,-0.0191468,-0.0390711464,0.9638617635,14.6442756653,0.748490274,2.9804468155,2.0540277958,3.9437506199,0.3020216525,-1.0095803738,0.2424036711,-2.6400153637
462,37749,37747,0.0042590727,0.0149927884,1.010453701,13.8850078583,8.2138986588,2.7176120281,2.0547842979,3.9444060326,0.3013738394,-1.0402328968,0.3859321177,-2.6099305153
463,37759,37757,0.0121885603,-0.0599214844,0.9771721363,13.8708248138,7.5799117088,0.4759752452,2.053794384,3.9454290867,0.3046169579,-1.1580586433,0.4423680604,-2.5631411076
464,37769,37767,0.0029531333,-0.0112129562,0.9800673723,7.8107938766,3.6516010761,-1.7961659431,2.0540213585,3.947208643,0.3043180108,-1.159758091,0.5368853807,-2.5225229263
465,37779,37777,-0.0214447509,-0.0693138316,0.9928114414,3.0695412159,-4.5030064583,-3.6157853603,2.0541849136,3.9469165802,0.3040283918,-1.0561379194,0.6903396845,-2.4987952709
466,37789,37787,-0.0335932374,-0.022616813,1.0048787594,-1.9790347815,-10.3736085892,-4.9132375717,2.0566267967,3.9479906559,0.303471297,-1.1356470585,0.6640063524,-2.5876796246
467,37799,37797,-0.0009620348,-0.0544339083,0.9989539981,-0.3980515599,-8.2820167542,-4.4462928772,2.0569729805,3.9477863312,0.3058896065,-0.9351323247,0.688364327,-2.6564090252
468,37809,37807,-0.0206766315,-0.0129398266,0.9932646751,7.1542510986,-7.712187767,-2.239978075,2.0565834045,3.9475679398,0.3057765365,-0.7028093934,0.7966139913,-2.6546220779
469,37819,37817,0.010083342,-0.0228080153,0.9702271819,12.3411035538,-5.9615507126,-1.2619322538,2.0588436127,3.947804451,0.3054155707,-0.8097146153,0.9201717973,-2.6745522022
470,37829,37827,-0.0227838159,0.0496084504,0.9906818271,19.6768569946,-4.0625677109,-0.2383273244,2.059347868,3.9495642185,0.3052915633,-0.7731161714,1.0749673843,-2.5520408154
471,37839,37837,-0.0212897006,0.1366330087,0.998885572,20.1512470245,-4.8980827332,0.3813636303,2.0613205433,3.9509558678,0.304966718,-0.8244318962,1.2074620724,-2.6093981266
472,37849,37847,0.0016955208,0.0284331124,0.9661619067,13.0151767731,-7.9937500954,1.9585552216,2.0631623268,3.9504315853,0.3045768142,-0.8327369094,1.3653125763,-2.6191630363
473,37859,37857,0.0391579233,-0.0497572571,0.9661780596,5.1455173492,-13.0912332535,2.5710163116,2.0644676685,3.9509334564,0.3044804335,-0.6859487891,1.3788925409,-2.6217212677
474,37869,37867,0.0182615519,-0.1271033883,0.9823496938,-4.2916722298,-19.0407104492,2.879950285,2.0636088848,3.9519250393,0.3044017255,-0.273403585,1.4204936028,-2.5472252369
475,37879,37877,-0.0076346444,-0.0844712108,0.9608975053,-9.0377922058,-25.8555011749,3.3451516628,2.0661377907,3.9522464275,0.3039782941,-0.2397044897,1.329084754,-2.5493237972
476,37889,37887,0.0033376494,-0.0871616453,0.9607709646,-11.4581804276,-25.2542171478,2.5455889702,2.0675430298,3.9529035091,0.3065110445,0.002408253,1.1822366714,-2.5521857738
477,37899,37897,0.0007335711,-0.0850494802,0.9686796069,-7.7328939438,-17.5456428528,2.6529607773,2.0683953762,3.9531788826,0.3063635826,0.3101474047,1.05565238,-2.5052583218
478,37909,37907,-0.0206541475,-0.0999648944,0.979503572,-2.0487763882,-0.2558587193,3.0914165974,2.0708749294,3.9532938004,0.3060941398,0.2810557485,1.0117096901,-2.5185306072
479,37919,37917,0.0052736513,-0.019502962,0.9573117495,3.1884617805,12.6862258911,3.5065925121,2.0725471973,3.9524071217,0.3058003485,0.1441350132,1.1385649443,-2.4922590256
480,37929,37927,0.0164942201,-0.0326724797,0.9390653968,6.1586728096,21.4537353516,3.4879598618,2.0741658211,3.9518485069,0.3070002496,-0.017253032,1.2477704287,-2.4654197693
481,37939,37937,0.0301908925,0.0003687225,0.9358515143,8.7658395767,22.8448314667,3.9301679134,2.0751039982,3.9522693157,0.3068446815,-0.1879437566,1.315772891,-2.4491276741
482,37949,37947,-0.0359417163,0.0591833778,0.9580794573,8.6041593552,17.3016891479,4.7725625038,2.0763170719,3.9515872002,0.3065582514,-0.3845824003,1.474912405,-2.3682639599
483,37959,37957,-0.0336685255,0.0550607331,0.9221193194,6.0518040657,8.6014728546,5.9787883759,2.0763902664,3.9513776302,0.3094843328,-0.4483334422,1.5920557976,-2.2783834934
484,37969,37967,-0.0139948633,0.0532886349,0.9376693964,3.673933506,-3.439883709,7.085960865,2.0777666569,3.9523742199,0.3092783093,-0.5000500083,1.5795618296,-2.1928973198
485,37979,37977,-0.0266346969,0.0063581429,0.9622813463,-1.059388876,-12.036989212,8.2340240479,2.0763299465,3.9527304173,0.3092276752,-0.2060558349,1.5957245827,-2.0390598774
486,37989,37987,0.057249926,-0.0583557561,0.8829650283,-5.8687090874,-14.2212619781,8.5540056229,2.0759840012,3.9529166222,0.3096958101,0.0354956686,1.5171818733,-1.9490844011
487,37999,37997,0.0668177679,0.0036991828,0.8922690153,-5.6180500984,-17.8377037048,9.6020479202,2.0789501667,3.9516587257,0.3092053533,-0.0461264662,1.5624983311,-1.9184664488
488,38009,38007,-0.041621834,0.0567421503,0.950633347,-3.6277909279,-10.5853948593,11.1446237564,2.078732729,3.9519577026,0.308844775,0.1687298715,1.4706163406,-1.794259429
489,38019,38017,-0.0282972138,0.02674344,0.969639957,-2.751090765,-2.2210862637,11.2513942719,2.0800514221,3.9521372318,0.308313936,0.1516947001,1.4742797613,-1.6465783119
490,38029,38027,-0.0256941468,-0.0054322216,0.9412696958,0.1237304136,6.759976387,11.4854536057,2.0806336403,3.9509243965,0.3076655269,0.222309649,1.4986414909,-1.5623937845
491,38039,38037,0.015446716,-0.0534250811,0.9253219962,2.4238352776,14.2650604248,12.2843027115,2.0817418098,3.9500672817,0.3069473505,0.0232392047,1.5034011602,-1.4851893187
492,38049,38047,-0.0127498722,-0.0382155851,0.9359030724,2.9235093594,17.4483356476,12.6855344772,2.0823392868,3.9506938457,0.3062935472,-0.1252554506,1.5182924271,-1.2926572561
493,38059,38057,-0.0098519633,-0.0535680801,0.9470145106,-0.3748934269,18.0947437286,11.8916387558,2.0825738907,3.9490106106,0.3085204363,-0.2982480228,1.499037981,-1.3871036768
494,38069,38067,-0.0894573182,0.134696871,0.9077579975,-7.7752389908,10.9967279434,13.118098259,2.0848896503,3.9480838776,0.30803743,-0.4153250456,1.3757510185,-1.2600082159
495,38079,38077,0.0557383113,0.0795928091,0.8951983452,-12.5843925476,4.3595733643,12.6890954971,2.0846917629,3.9483513832,0.3072978854,-0.4789247215,1.3183066845,-1.0126330853
496,38089,38087,0.1062554643,7.23736457075574E-06,0.9581105113,-16.506483078,-2.3344244957,11.2726793289,2.0845885277,3.9468173981,0.3091971278,-0.3595015109,1.2629339695,-0.9279321432
497,38099,38097,0.0580321066,-0.1007959619,0.9564473033,-18.0544891357,-7.9755663872,10.487988472,2.0871045589,3.946280241,0.3084022701,-0.3739756942,0.997615993,-0.8406081796
498,38109,38107,0.0367867015,-0.0354605019,0.9284904599,-18.8918895721,-8.1002225876,10.8476982117,2.087325573,3.9435613155,0.3083837926,-0.2733919919,1.0577280521,-0.7596995234
499,38119,38117,0.0190423951,0.0016451334,0.924721539,-17.6889820099,-1.2861789465,11.142824173,2.0893630981,3.9448113441,0.3075578213,-0.3086334765,0.7658398151,-0.5931997895
500,38129,38127,-0.0010044612,-0.0257103555,0.9497749805,-17.3067054749,1.3479824066,11.3444824219,2.0902783871,3.9447131157,0.3048821986,-0.2699550092,0.494951129,-0.4775412381
501,38139,38137,0.0028204375,-0.0858150795,0.967989862,-19.7736778259,7.6091156006,11.8562984467,2.0911319256,3.9435696602,0.3038906455,-0.3031609952,0.4332190156,-0.3610648513
502,38149,38147,0.0721290484,0.0018898436,0.9286875725,-18.8657302856,10.6231231689,12.050122261,2.092227459,3.9436380863,0.3028481603,-0.3971690238,0.2133448571,-0.2106213719
503,38159,38157,0.0160231758,0.0270711835,0.9902546406,-18.2214546204,6.7139215469,9.9365692139,2.0926232338,3.942653656,0.3039424419,-0.4885790348,-0.0036110624,-0.1317409575
504,38169,38167,0.0128070135,-0.0248310622,0.9669567347,-18.9556369781,3.3009943962,8.4384775162,2.0937476158,3.9404473305,0.302918613,-0.5871620774,-0.0049370532,-0.0520301014
505,38179,38177,-0.0116477553,-0.0879780278,0.9753593802,-17.3884811401,-0.4473807812,6.8912239075,2.0935862064,3.9377593994,0.3019299805,-0.5464820266,-0.2343471646,-0.1486441493
506,38189,38187,-0.0254410431,-0.1226104125,0.9829263091,-16.3792438507,-8.68268013,6.0504388809,2.0952601433,3.9375169277,0.302731514,-0.4480457008,-0.2653499246,-0.1054665893
507,38199,38197,0.0205096304,-0.0182166696,1.0095100403,-15.6055717468,-16.9426174164,5.0902900696,2.098088026,3.9354276657,0.3015989363,-0.4738406241,-0.3204764128,-0.079237029
508,38209,38207,-0.0132431295,0.0271986946,1.0264965296,-14.7702140808,-20.7038040161,4.5887093544,2.0988504887,3.9336059093,0.3006893396,-0.1128999293,-0.6659675241,-0.0478281714
509,38219,38217,0.0096618012,-0.0608301722,0.9660059214,-13.2511911392,-18.2187538147,5.1305890083,2.1012253761,3.9329276085,0.2993987799,-0.2406918705,-0.6850262284,-0.0485020578
510,38229,38227,-0.0671920553,-0.0858819559,1.0493928194,-10.0478553772,-9.979341507,5.1984930038,2.1009678841,3.9325146675,0.2984417379,0.0280132722,-0.821696043,0.0332288966
511,38239,38237,-0.0174613614,-0.0669839159,1.0145922899,-6.8023843765,-1.8267142773,4.1258502007,2.1014997959,3.9315404892,0.2975688279,0.2441707402,-0.9112865925,0.0825838521
512,38249,38247,-0.0033468117,-0.0094306581,1.0066037178,-4.341794014,5.7876739502,3.9370219707,2.1032505035,3.9305222034,0.2965371907,0.144957006,-0.9484792948,0.1427685022
513,38259,38257,0.0055518541,0.0156788919,1.0146826506,-4.0543498993,10.821395874,3.0132541656,2.1033415794,3.9308619499,0.3028456271,0.1622430533,-1.1071972847,0.1771567613
514,38269,38267,-0.0650400594,0.0657275543,1.0276064873,-7.5724210739,12.9717941284,2.7013819218,2.1046648026,3.929756403,0.3023523986,0.0355918184,-1.100595355,0.2410922199
515,38279,38277,-0.0156275034,-0.0101844501,1.0207027197,-10.2430820465,13.2734498978,2.4115633965,2.1062471867,3.9296929836,0.3018734753,-0.1235531941,-1.2238167524,0.3032460511
516,38289,38287,-0.0075710262,-0.0260651875,0.9825053215,-10.8664312363,10.0775556564,1.8003675938,2.107309103,3.929112196,0.3009658158,-0.2150447965,-1.3132978678,0.3179502785
517,38299,38297,-0.0192306843,-0.0715868622,0.9441219568,-8.4604587555,7.5485825539,2.1747779846,2.1090090275,3.9296760559,0.3004241288,-0.4068835378,-1.4642286301,0.4042130411
518,38309,38307,0.0506916009,-0.0517270006,0.9642733932,-6.8337140083,3.1129972935,0.9894413352,2.1093511581,3.9290418625,0.3001359403,-0.3808210492,-1.5035606623,0.4474120438
519,38319,38317,0.0170625504,0.0051048552,0.9846609235,-5.3232760429,-2.619263649,1.1833484173,2.110247612,3.9286017418,0.299023658,-0.4384332895,-1.5183149576,0.490816772
520,38329,38327,0.0410024002,-0.0479958393,0.9909235835,-2.3004496098,-7.116092205,0.7485012412,2.1114034653,3.9273707867,0.298474431,-0.4022692442,-1.5798709393,0.4460009634
521,38339,38337,0.005971218,-0.0398104638,0.9791642427,1.3879201412,-8.6027002335,1.0421409607,2.1135988235,3.9273922443,0.2977410853,-0.4593363404,-1.6593641043,0.4920981228
522,38349,38347,-0.0297389086,-0.0492400005,1.0044616461,4.0780258179,-9.6738061905,1.1730462313,2.1137855053,3.9277217388,0.2971705496,-0.3249762058,-1.6770005226,0.540767014
523,38359,38357,0.0103905955,-0.0384414308,0.9703892469,3.982313633,-8.8785219193,1.1991909742,2.1135463715,3.9273765087,0.3024590015,-0.0289491117,-1.6524299383,0.5203306675
524,38369,38367,0.0032547824,-0.0283684954,0.9785003662,1.0041605234,-7.4575510025,0.5923919678,2.1158239841,3.9276413918,0.3020350039,-0.1493988335,-1.6371388435,0.6145587564
525,38379,38377,0.0502884984,0.0001833332,0.9756037593,-1.4718004465,-3.1771857738,-1.3509525061,2.1158883572,3.9260780811,0.3017721772,0.0105844112,-1.5863442421,0.5384600759
526,38389,38387,0.0341396891,0.016731875,0.9762747288,-0.5980405211,-0.8914702535,-1.7045977116,2.1157610416,3.9260761738,0.3030412197,0.1152633578,-1.6380059719,0.5270001292
527,38399,38397,-0.0257885102,-0.0660275966,1.0058487654,2.6327383518,2.9783337116,-2.3198592663,2.1161539555,3.9252033234,0.3027001023,0.09534733,-1.660800457,0.4739087522
528,38409,38407,-0.0156653933,-0.0566530116,0.9383821487,7.3317317963,6.9452180862,-2.5177359581,2.1158480644,3.924241066,0.3023497164,0.0069665085,-1.6259217262,0.3853530884
529,38419,38417,-0.0195900165,0.0578578934,1.0033468008,9.8778142929,10.5161180496,-3.1127617359,2.1199483871,3.9217102528,0.305865556,-0.2088865638,-1.5287218094,0.2853438556
530,38429,38427,0.001404166,-0.0561947115,0.946267724,13.7365665436,8.21296978,-3.3050551414,2.1207780838,3.9210426807,0.3058921993,-0.2063530087,-1.4476983547,0.1954378039
531,38439,38437,-0.019150164,0.0271460079,0.9658768177,13.2036619186,5.4475140572,-4.0721197128,2.1213643551,3.9211063385,0.305932343,-0.1933598071,-1.2443370819,0.1980569214
532,38449,38447,0.0077331853,-0.0028190489,0.9518800378,9.886674881,2.6531786919,-5.381005764,2.1241922379,3.9219162464,0.3055496812,-0.4394075274,-1.2074853182,0.218162328
533,38459,38457,-0.0620083883,0.006953299,0.9396451116,2.711520195,-2.1701319218,-6.0524601936,2.1244578362,3.9224150181,0.3073630333,-0.3875726759,-1.1564559937,0.1618628353
534,38469,38467,-0.0202223565,-0.0181344617,0.9407574534,-3.2066311836,-5.2639722824,-5.9928536415,2.1249129772,3.9237799644,0.3073713779,-0.2810790241,-1.1962612867,0.1945991367
535,38479,38477,0.0020431827,-0.0065404736,0.9193747044,-6.3491334915,-7.0686507225,-5.9707460403,2.1278979778,3.9251954556,0.3069502115,-0.4345903695,-1.244115591,0.1398657858
536,38489,38487,-0.0069561852,-0.0066180304,0.94400841,-7.5667910576,-8.4989566803,-5.8021626472,2.128159523,3.9245646,0.3076874912,-0.2358287275,-1.2654696703,0.074811846
537,38499,38497,-0.0043014484,0.007236674,0.9115643501,-6.3892498016,-10.5462188721,-5.364136219,2.1297459602,3.9245193005,0.3073842525,-0.1727084666,-1.3799078465,-0.0097356653
538,38509,38507,0.0157284383,0.0094796196,0.9497250319,-4.1981863976,-12.090086937,-5.8024287224,2.1324088573,3.9250979424,0.3068383634,-0.2282766551,-1.4679983854,-0.0758514404
539,38519,38517,-0.0302881058,-0.0746793151,0.9287621975,-0.5542770028,-13.9303436279,-6.0997881889,2.1326007843,3.9234821796,0.3069729805,0.00268268,-1.5095613003,-0.1398418844
540,38529,38527,-0.0347226039,-0.0256604068,0.9612440467,2.6968054771,-16.1922988892,-6.7861189842,2.1330475807,3.9241886139,0.3066734672,0.2438843846,-1.4840230942,-0.2708216012
541,38539,38537,0.013158937,-0.0571187399,0.9309527874,5.5291347504,-16.1371517181,-8.4565420151,2.1356701851,3.9250061512,0.3061105013,0.2686945796,-1.4799916744,-0.2097292542
542,38549,38547,0.0062014717,0.1296192855,0.9522770047,9.7409563065,-11.6538085938,-11.4632720947,2.1358823776,3.924741745,0.305714339,0.5130975246,-1.3451513052,-0.3065101504
543,38559,38557,-0.0183063,0.0301573016,0.9665365815,15.2001647949,-7.0297732353,-12.8873271942,2.1374995708,3.9260623455,0.3072891533,0.6078926325,-1.2916897535,-0.353471607
544,38569,38567,-0.0015340644,0.0087010842,0.9639843702,20.4850273132,-1.4759883881,-14.1254396439,2.1398124695,3.9266548157,0.3066362441,0.5445638299,-1.2074292898,-0.4644523561
545,38579,38577,-0.0443631187,0.0911607742,0.9662430882,21.8392219543,3.444940567,-14.9660568237,2.1412289143,3.9261405468,0.3061152697,0.562281549,-0.9029046297,-0.5995483398
546,38589,38587,-0.0328140147,0.0200293288,0.981688261,21.7800273895,6.1633410454,-14.7045116425,2.1425993443,3.9267776012,0.3068799973,0.6573392749,-0.6629863381,-0.7398757935
547,38599,38597,-0.0333344154,0.0344245359,0.989287734,18.9706745148,7.2557401657,-14.4955196381,2.1425178051,3.9263424873,0.3063874245,0.537689507,-0.5052854419,-0.9013534188
548,38609,38607,-0.0492787473,0.0037931839,0.9847186804,15.0811376572,4.7398490906,-13.3233604431,2.1421012878,3.9279577732,0.3060584366,0.5800594091,-0.394652456,-1.0836274624
549,38619,38617,0.050387051,-0.0284927543,0.9524832964,8.4836416245,0.7923958898,-12.9944238663,2.1428160667,3.9292623997,0.3075632751,0.3536051214,-0.2743327022,-1.1007437706
550,38629,38627,0.0483379439,-0.0469530672,0.9433222413,3.3217632771,-3.3559617996,-14.4552412033,2.1434004307,3.9287397861,0.3070656061,0.4367702007,-0.1813236177,-1.3702280521
551,38639,38637,-0.0178856496,-0.0012531583,0.9841676354,0.6290542483,-5.9601941109,-14.5235481262,2.1442298889,3.9285216331,0.3067131042,0.5736311674,-0.1604967713,-1.5163727999
552,38649,38647,-0.0018401144,0.0176045578,0.9506080747,3.3140156269,-6.9206857681,-12.7737836838,2.1448771954,3.9260442257,0.3067459166,0.5001325011,-0.0757910982,-1.8334950209
553,38659,38657,0.0078223301,-0.0152766928,0.9533209205,7.109855175,-6.2715983391,-12.2308397293,2.1455857754,3.9271907806,0.3062795103,0.6023412943,-0.1043804362,-1.9409351349
554,38669,38667,0.0007158419,0.0771352574,0.9500221014,10.6435337067,-6.5377025604,-12.8394699097,2.1459000111,3.925347805,0.3057125509,0.69782269,0.0104377987,-2.2064228058
555,38679,38677,-0.0239048135,0.0070786094,0.985639751,14.2702932358,-9.710351944,-12.3011322021,2.1475293636,3.9263081551,0.3051004708,0.7287421823,0.1058478951,-2.3236296177
556,38689,38687,0.0057622581,0.0031060441,0.9675126076,17.6392288208,-11.5415649414,-12.4342060089,2.1480438709,3.9255287647,0.3049081266,0.9498334527,0.3376238942,-2.4371144772
557,38699,38697,-0.0102413949,-0.0075661577,0.9747589827,15.9874477386,-9.9291505814,-13.377699852,2.1497151852,3.9263837337,0.3042887449,1.0175278187,0.4377011359,-2.5951387882
558,38709,38707,-0.0118709672,-0.0400261842,0.9491968155,14.2482566833,-7.5884332657,-13.2587022781,2.1513631344,3.9260883331,0.3035851419,1.0651363134,0.6744629741,-2.7855374813
559,38719,38717,0.0179932136,-0.0033187866,0.9554709792,11.4494075775,-3.8874628544,-12.6954193115,2.1520590782,3.9259824753,0.3032751679,1.2109838724,0.8697106242,-2.8826370239
560,38729,38727,-0.0055086627,0.0195167623,1.0031232834,4.3942365646,0.1551484913,-13.1734790802,2.1539664268,3.9261937141,0.3025213778,1.140114665,0.9905503988,-3.015048027
561,38739,38737,-0.0407705903,-0.002689414,0.9979794621,-0.6528500915,-2.8905849457,-13.2273807526,2.154797554,3.9275910854,0.3018878102,1.2014644146,0.9262778759,-3.0802059174
562,38749,38747,-0.0422247872,-0.0120531078,0.9919359684,-0.5316113234,-9.1658525467,-13.1983890533,2.1548640728,3.9256625175,0.3000050783,1.2379214764,0.969841361,-3.3938887119
563,38759,38757,-0.0712659582,-0.081186831,1.0251942873,4.2116417885,-9.6005935669,-11.3598012924,2.1557052135,3.9261949062,0.2992329299,1.351323843,0.9572976828,-3.5146181583
564,38769,38767,-0.0723096505,-0.003313612,1.055749774,5.0110325813,-9.3923282623,-9.654127121,2.1571502686,3.9238352776,0.2981999218,1.3350099325,1.0781065226,-3.8089082241
565,38779,38777,0.0068615959,0.071011208,1.0330827236,4.3090314865,8.5887737274,-7.3433904648,2.1576478481,3.9247751236,0.2975029051,1.4785344601,1.0351330042,-3.8880517483
566,38789,38787,-0.0062089693,0.0228280723,0.9851822853,0.6880437136,17.2444019318,-7.7856359482,2.1593365669,3.9247281551,0.2999891043,1.3248229027,1.1304764748,-3.9730255604
567,38799,38797,-0.0300649367,0.0377653316,1.0316690207,-0.760273695,18.2437725067,-8.153547287,2.159553051,3.9228718281,0.2993298769,1.1400697231,1.1654828787,-4.056787014
568,38809,38807,-0.0156053314,-0.0104945265,0.9867019653,0.3953312933,14.5526504517,-6.4691267014,2.1591608524,3.92471385,0.2987627387,0.9677476883,1.1872500181,-4.0954480171
569,38819,38817,-0.008948571,0.0013096679,0.9978328347,1.1785210371,8.8269948959,-5.5405936241,2.1598153114,3.9255411625,0.2979398966,0.8632599711,1.1463707685,-4.1371583939
570,38829,38827,-0.0297948867,-0.0093016252,0.9933939576,1.182161808,4.0851311684,-4.6038837433,2.1602888107,3.9262387753,0.2974039316,0.8409433365,1.1086791754,-4.1671886444
571,38839,38837,0.0021480895,-0.0106295962,0.9698476195,2.5991232395,-0.9587127566,-3.1712899208,2.160500288,3.9255282879,0.2968867123,0.892488122,1.1588298082,-4.217382431
572,38849,38847,0.0131302858,-0.043968007,0.9549123645,3.3015351295,-5.9894151688,-1.8995475769,2.1613893509,3.9237914085,0.2977917194,0.7919214964,1.2279989719,-4.408053875
573,38859,38857,-0.0029158983,0.0026024159,1.0069279671,2.0172023773,-9.1100006104,0.3830654621,2.1613914967,3.9236903191,0.2973165512,0.9335902333,1.292178154,-4.417517662
574,38869,38867,-0.0162166711,-0.039020244,0.9757406116,-1.3462889194,-9.6551399231,0.4031359553,2.1607043743,3.9218170643,0.2967299819,1.0997344255,1.3152728081,-4.5447731018
575,38879,38877,0.0076448442,-0.0088009657,0.9874011874,-5.1059141159,-8.2320957184,1.2367584705,2.162925005,3.9218244553,0.2961133718,1.0243759155,1.2767901421,-4.5666131973
576,38889,38887,-0.0122904629,-0.027478518,0.9917606711,-9.4297065735,-2.3579227924,2.1392982006,2.1631412506,3.9224450588,0.2969423831,1.2172495127,1.1681320667,-4.5315642357
577,38899,38897,-0.0122339297,-0.0056936932,0.9941413999,-14.1499938965,5.3929696083,1.8052788973,2.163336277,3.9210760593,0.2963364422,1.1355973482,1.0675855875,-4.6457700729
578,38909,38907,0.0064888513,-0.0894934684,0.9950565696,-17.1012649536,13.1024246216,3.8154165745,2.162817955,3.9209399223,0.2958841324,1.1622035503,0.9767585993,-4.562877655
579,38919,38917,0.0688930899,-0.0268593337,0.931812942,-16.0851726532,18.0261306763,4.2047686577,2.164068222,3.9190614223,0.297321856,0.9268157482,0.6957482696,-4.7181386948
580,38929,38927,0.027092034,-0.0161887296,0.9952740669,-16.3798332214,18.5035228729,4.2347650528,2.1652050018,3.9196500778,0.2968445718,0.7186510563,0.5839784145,-4.6372976303
581,38939,38937,-0.0108497078,-0.0149047254,1.0097695589,-13.9765844345,15.6359367371,0.9341569543,2.1649153233,3.919028759,0.2964405119,0.5983026028,0.5528081656,-4.5641918182
582,38949,38947,0.0039190962,-0.0957598239,1.0373128653,-9.776102066,10.7506341934,-2.3799698353,2.1649684906,3.9192707539,0.2970375419,0.4456373453,0.4133195877,-4.487200737
583,38959,38957,-0.0322481059,-0.052556511,1.0264748335,-6.298043251,7.3067135811,-4.8105182648,2.1652858257,3.9197833538,0.2966263592,0.3570549488,0.3347529769,-4.4665980339
584,38969,38967,-0.0347856134,-0.0459718183,1.0593580008,-3.4825701714,1.7783889771,-7.0051803589,2.1655569077,3.9194667339,0.2962802649,0.3590683341,0.2355323434,-4.5471382141
585,38979,38977,-0.0199879371,0.0107319038,1.0436336994,-3.404800415,-0.6469198465,-8.4311447144,2.1661949158,3.9190342426,0.2972870171,0.3356137872,0.2413467467,-4.6177983284
586,38989,38987,-0.0277616773,-0.0186150931,1.0343500376,2.682697773,-0.9949336648,-8.4361162186,2.1670799255,3.9158680439,0.296884656,0.1908432096,0.3504363894,-4.8496685028
587,38999,38997,0.0024968574,0.0171362683,1.0310485363,12.8144016266,2.0283241272,-5.0691871643,2.1670217514,3.9163777828,0.2967451513,0.2760911584,0.4174576104,-4.8872680664
588,39009,39007,0.0497362688,-0.074143894,0.9911345243,13.2086677551,6.3082261086,-1.9666192532,2.1659560204,3.9166610241,0.2965670824,0.2897909582,0.5965902209,-4.7802805901
589,39019,39017,-0.001679396,-0.0757733956,0.9796586037,7.0907754898,10.7842092514,-0.8868371844,2.1665713787,3.9174249172,0.2969702184,0.2281370312,0.5911105275,-4.76699543
590,39029,39027,0.0233793929,0.0287253,0.9799449444,-3.2998621464,14.1955776215,0.1699328274,2.1663479805,3.9179270267,0.2968569994,0.1020082459,0.6268267632,-4.7560830116
591,39039,39037,0.0313029662,-0.015521354,0.9729988575,-9.5885877609,14.394197464,1.9524204731,2.1658809185,3.919362545,0.2966395915,-0.0602580346,0.5939535499,-4.619248867
592,39049,39047,-0.0319663435,-0.0331053287,0.9973514676,-14.1468544006,12.8209075928,1.930011034,2.1664824486,3.9187076092,0.2982465327,-0.2329412401,0.5220134258,-4.6555504799
593,39059,39057,0.0161876287,0.0334201306,0.9819863439,-12.5834465027,7.0945467949,3.569950819,2.1672024727,3.9179172516,0.2981831133,-0.3368023038,0.3433682323,-4.5808877945
594,39069,39067,-0.0528851599,-0.0216426048,0.9927893877,-13.3727321625,2.8716197014,7.4719233513,2.167331934,3.9173099995,0.2981470227,-0.3537177145,0.2518560588,-4.5896463394
595,39079,39077,-0.0109471977,0.0209864806,0.9812853932,-12.2189283371,-0.784508884,11.0881958008,2.1675851345,3.9168539047,0.2984102666,-0.3001378775,0.155896619,-4.5045776367
596,39089,39087,-0.0365937427,-0.0039848397,0.9962127209,-6.139064312,1.6929689646,14.1128082275,2.1686999798,3.9170846939,0.298306644,-0.3003527224,0.0324223675,-4.3549370766
597,39099,39097,0.0007803849,0.0160016529,0.966556251,-5.2081108093,8.0973911285,16.1125679016,2.1698467731,3.9172625542,0.2981194556,-0.3738019466,-0.1030283719,-4.2758660316
598,39109,39107,-0.067418471,-0.0735664368,0.9802855253,-6.6834311485,7.3897447586,18.2721004486,2.1706776619,3.9160757065,0.297947228,-0.4383623302,-0.0772052333,-4.0560493469
599,39119,39117,-0.0557902381,-0.0646568164,0.9761240482,-7.5668325424,3.5025250912,19.2809677124,2.1710393429,3.9163556099,0.298882097,-0.4625385702,-0.2324238569,-3.8747076988
600,39129,39127,0.0049941288,0.0169257913,0.9529960155,-8.0743360519,-0.3779376745,20.3936595917,2.1704034805,3.9169819355,0.2988298237,-0.4172003269,-0.3952173889,-3.6645746231
601,39139,39137,-0.0060693831,0.0038826114,0.9579146504,-5.8515720367,-2.1519882679,22.0372562408,2.1715371609,3.9160106182,0.2986216247,-0.4849827886,-0.3832008541,-3.4765758514
602,39149,39147,-0.0372638404,-0.0023709165,0.9886492491,-0.8350992203,-4.1085042953,23.8283042908,2.1730179787,3.9154381752,0.2995957732,-0.4384293258,-0.3942335248,-3.2346048355
603,39159,39157,-0.0271100253,0.0310911871,0.9753700495,2.5248308182,-4.5113816261,25.0287227631,2.1737155914,3.9157552719,0.299423933,-0.3760496676,-0.4128857553,-2.9231045246
604,39169,39167,0.0258616935,-0.0700901225,0.9096429944,1.5884003639,-2.0875542164,24.349647522,2.1742889881,3.9158382416,0.2992374897,-0.3428587317,-0.4010096192,-2.6872320175
605,39179,39177,-0.0167551786,-0.0083176326,0.986058116,-1.1842337847,0.722291708,22.9576148987,2.175044775,3.9151060581,0.303478688,-0.3453371823,-0.3408159018,-2.4614374638
606,39189,39187,-0.030300701,0.0291143935,0.9682553411,-1.7410055399,6.9059357643,22.4107170105,2.1756272316,3.9149668217,0.3034700155,-0.325712055,-0.3961183429,-2.236884594
607,39199,39197,0.0045583867,-0.0029029774,0.9495271444,-0.5487585664,9.8359975815,22.3058586121,2.1763210297,3.9149186611,0.3033923209,-0.3919972181,-0.437661916,-2.0156502724
608,39209,39207,-0.0838080794,0.1010614187,1.0047607422,0.1139999926,9.6067771912,22.0143527985,2.1770601273,3.9145150185,0.3032947779,-0.4797145128,-0.4537300169,-1.815974474
609,39219,39217,-0.0520065017,0.0617974326,0.9687245488,-1.4065188169,11.5014457703,21.6148052216,2.1754639149,3.9119021893,0.3055297434,-0.5244585872,-0.3304665387,-1.6827321053
610,39229,39227,-0.0497383289,0.0766656697,0.9036508203,-2.6738581657,11.2167596817,21.5368118286,2.1762962341,3.9127566814,0.3055323064,-0.6808567643,-0.4782727063,-1.470204711
611,39239,39237,-0.0010186853,-0.0143091744,0.925750196,-1.0863072872,9.0759983063,20.1117668152,2.1768138409,3.9127497673,0.3054305017,-0.79896456,-0.5316207409,-1.2625428438
612,39249,39247,-0.0125761665,-0.0096945772,0.9327417016,2.4437632561,9.1182422638,19.2809562683,2.176651001,3.9137778282,0.3048447371,-0.8937951922,-0.5396178961,-0.9772039652
613,39259,39257,0.0402061976,-0.065235965,0.9418818355,5.0110006332,7.1719770432,18.1120185852,2.1766521931,3.9144394398,0.304531008,-1.0448120832,-0.4961314201,-0.7077551484
614,39269,39267,0.0242128037,-0.0692475438,0.9412914515,8.4662380219,7.6642374992,17.2520904541,2.1760547161,3.9141206741,0.3043808043,-1.0357145071,-0.4027739763,-0.492318362
615,39279,39277,-0.0281427726,-0.01834682,0.913852036,9.116932869,5.096698761,17.104724884,2.1814177036,3.9151306152,0.3034979403,-1.6310956478,-0.3506986499,-0.2505596578
616,39289,39287,0.0420819074,-0.1112376079,0.9356833696,8.413564682,3.9325077534,15.2690525055,2.1814088821,3.9153311253,0.3030482829,-1.6678599119,-0.2070166171,0.0171109531
617,39299,39297,0.0163497943,-0.041665595,0.8968446851,8.2407217026,-0.3956556618,13.9773893356,2.1822886467,3.9159297943,0.3026350141,-1.639970541,-0.1493989825,0.1476460248
618,39309,39307,0.014750978,-0.0396781899,0.910526216,7.1695818901,-8.9173269272,12.5114059448,2.1833386421,3.9152648449,0.3033547997,-1.6080195904,-0.1005607396,0.2508407235
619,39319,39317,0.0376752615,0.0053653866,0.9166553617,5.6529493332,-17.8043937683,11.2087955475,2.1835353374,3.9161801338,0.3029044867,-1.4083260298,-0.0694609508,0.3378528655
620,39329,39327,0.011567275,-0.0208631549,0.9392408729,7.5617341995,-20.1191520691,10.8369731903,2.1840491295,3.9153268337,0.3023300469,-1.1317929029,0.0363070443,0.4623879194
621,39339,39337,-0.0160182323,0.004853473,0.952596128,5.807264328,-18.4721469879,11.0171718597,2.1868085861,3.9157719612,0.3014969826,-1.0801626444,-0.0142140565,0.5134010315
622,39349,39347,-0.0137007339,-0.0435542427,0.9629011154,1.7264976501,-13.2342014313,11.6596317291,2.1868841648,3.9156856537,0.3041252792,-0.7785674334,0.0587227866,0.6277439594
623,39359,39357,-0.0218830258,-0.0084143495,0.962572813,-6.1480865479,-8.6286888123,10.0469284058,2.1878490448,3.9152319431,0.3035179079,-0.6350161433,0.0366485901,0.6979430914
624,39369,39367,0.011751675,-0.0082677724,0.9479587078,-13.933763504,-4.8801450729,7.5256481171,2.1895756721,3.9158854485,0.3027994037,-0.6208425164,-0.0405076072,0.8247724175
625,39379,39377,-0.0521525331,0.0113493036,0.9877595901,-15.1822118759,-0.5518156886,4.9824209213,2.1906371117,3.9162859917,0.3031260669,-0.5948563814,-0.2848256528,0.8436237574
626,39389,39387,-0.0125190932,-0.0219980683,0.943022728,-11.0361433029,1.5264544487,3.5324342251,2.1914877892,3.915781498,0.302518487,-0.5520952344,-0.3496970534,0.949144721
627,39399,39397,0.0767103285,0.0430396609,0.9676040411,-3.2472569942,-0.7209319472,1.6860127449,2.1938688755,3.9167048931,0.3017204106,-0.668371141,-0.3987070322,1.0437899828
628,39409,39407,0.0304910988,0.0376142748,0.9683480263,2.2182664871,-8.496430397,0.4030716121,2.1949980259,3.9158074856,0.3025331199,-0.4690701663,-0.3349946737,1.0611764193
629,39419,39417,0.0166719463,-0.0150916874,0.9522870779,7.4959301949,-13.8848199844,0.1481668502,2.1971280575,3.9156904221,0.3017497361,-0.4766387343,-0.273637414,1.0326604843
630,39429,39427,-0.0398407467,0.0217782985,0.9839087129,11.5110549927,-11.9887580872,1.5424510241,2.198192358,3.9153056145,0.3010568917,-0.2820108831,-0.1970255077,1.0483282804
631,39439,39437,-0.0370818302,-0.0126455547,0.9899721742,10.4079723358,-11.1178340912,2.3949737549,2.197740078,3.9143292904,0.3004596829,0.0310564414,-0.0880516618,0.9868327379
632,39449,39447,-0.0219815075,0.0079238629,0.9893221259,4.1099534035,-9.4960842133,3.3589856625,2.1995787621,3.9155044556,0.3026586175,5.15454485139344E-05,-0.1171524897,0.9595522285
633,39459,39457,0.0861566514,-0.0371910818,0.8942161202,1.6197474003,-2.7191195488,3.8028516769,2.198456049,3.9129457474,0.3020560443,0.2272422165,-0.0634136274,0.885920167
634,39469,39467,0.0319538936,0.0314471051,0.9682439566,3.6087014675,8.1420497894,4.6236987114,2.2011945248,3.913282156,0.3013048768,0.0568868145,-0.0239976849,0.9389614463
635,39479,39477,-0.0478288047,0.0879824683,1.0066629648,5.2390151024,17.4802188873,5.5255527496,2.2021875381,3.9129347801,0.3025169969,-0.0331438817,-0.0215984341,0.9668899775
636,39489,39487,-0.0476188362,0.0072255838,1.0231637955,6.7230024338,20.3944149017,7.079521656,2.2026877403,3.9111909866,0.3018241525,-0.2385267913,0.0756856576,0.8885965347
637,39499,39497,0.0120655829,-0.0254649371,0.9396474361,6.7892775536,18.0201454163,8.6124601364,2.2038528919,3.9120841026,0.3012292385,-0.3706206679,0.1852518767,1.005043745
638,39509,39507,-0.017303912,-0.0070218784,0.9873749018,6.9343261719,10.1063156128,9.113442421,2.2039494514,3.9128751755,0.3022894859,-0.4881659746,0.2264690697,1.1913141012
639,39519,39517,-0.0255981348,-0.0302465633,0.979958117,3.3076720238,3.3832836151,9.668097496,2.2041480541,3.911908865,0.3018117547,-0.508113265,0.3154758215,1.2257416248
640,39529,39527,0.0016464926,-0.0319425426,0.9413717389,-3.5849342346,-6.4286527634,10.5001840591,2.205489397,3.9103000164,0.3012929857,-0.4711149335,0.3170236349,1.1888023615
641,39539,39537,-0.0461515673,0.0762487501,0.965012908,-10.5183906555,-13.1120977402,11.1221227646,2.2066628933,3.9107208252,0.300629437,-0.4618802667,0.1986843944,1.2776097059
642,39549,39547,-0.0136917569,0.0272615515,0.9797164202,-13.7659053802,-17.2308254242,10.3201847076,2.2076535225,3.9105148315,0.3011802733,-0.2579036057,0.0012638628,1.3639388084
643,39559,39557,0.0057002762,-0.0008511011,0.9641962647,-12.5888795853,-17.4021282196,9.2029628754,2.2088041306,3.9101569653,0.3005959988,-0.1615815014,-0.06322743,1.4616425037
644,39569,39567,-0.033989124,0.0164738558,1.0248740911,-9.9865093231,-12.6265411377,8.8443174362,2.209321022,3.9106211662,0.3000259995,0.0560047477,-0.1685971171,1.5538953543
645,39579,39577,-0.0257521812,0.0301940516,0.9559677839,-6.3886208534,-9.8905992508,8.7345094681,2.2099034786,3.9113483429,0.3039278686,0.2094355077,-0.2262337357,1.7214688063
646,39589,39587,0.0362758823,-0.0106099863,0.9528833628,-3.0710451603,-3.4194710255,9.2529697418,2.2115690708,3.9117393494,0.3034532666,0.2235456854,-0.3114903271,1.8300631046
647,39599,39597,-0.0037586296,0.0295607336,1.0076959133,-2.8012287617,5.1139903069,9.3936080933,2.2116527557,3.9114751816,0.3030598462,0.3011701107,-0.360008806,1.9113416672
648,39609,39607,0.006731214,0.0066399705,0.9657995701,-1.5226948261,10.9867677689,9.8633499146,2.2122719288,3.9116158485,0.3039580882,0.2420411557,-0.3907432258,2.0320580006
649,39619,39617,-0.0325982869,0.0291585755,0.9815250039,-2.7445013523,11.8705844879,9.8242969513,2.213258028,3.9113945961,0.3035886288,0.1287746876,-0.3477142751,2.1113348007
650,39629,39627,0.0139066717,-0.0147991814,0.9392597079,-3.3322615623,8.6917991638,9.5263280869,2.2144529819,3.9114210606,0.3031683564,0.0489944294,-0.4008295834,2.2033288479
651,39639,39637,-0.0036994615,0.0304629449,0.9750531316,-4.5961289406,1.3662647009,8.6639223099,2.2166316509,3.9118974209,0.3058253527,-0.1755917072,-0.4747337699,2.2602217197
652,39649,39647,-0.0330398753,0.0938314572,0.9643015862,-4.9808073044,-4.7295789719,8.2200708389,2.2176363468,3.9118118286,0.3055965006,-0.1155979335,-0.5435633659,2.3619639874
653,39659,39657,-0.0194205549,0.0307046045,0.9781432748,-4.3006539345,-11.6871213913,7.0542802811,2.2177462578,3.911796093,0.3053744733,0.0439664647,-0.6194424033,2.4012022018
654,39669,39667,-0.0049149995,-0.0119159641,0.9431365728,0.4508467913,-12.2100477219,6.9006185532,2.2189481258,3.9119579792,0.3050342798,0.1814272553,-0.6359018683,2.4724733829
655,39679,39677,0.0187277216,-0.0395910777,0.9976886511,7.4789280891,-9.7453317642,6.1731987,2.2204108238,3.910145998,0.3056401908,0.1752150506,-0.5514088273,2.4510495663
656,39689,39687,-0.033665657,0.0051531913,0.980430305,8.9906396866,-3.8146603107,5.2813796997,2.2220029831,3.9114794731,0.3052206933,0.1697506756,-0.5469576716,2.4952857494
657,39699,39697,-0.0300953723,0.0264651086,0.9394776821,4.906211853,2.5203032494,3.4456562996,2.2221081257,3.911087513,0.305030793,0.2744976878,-0.4149516821,2.6048460007
658,39709,39707,0.0094550606,-0.0722075999,0.8435458541,-3.8026516438,10.0980978012,1.9703121185,2.2226715088,3.9096734524,0.3076209724,0.1704845279,-0.4032288492,2.4891479015
659,39719,39717,-0.0078761149,-0.0201057438,0.8952490091,-11.101896286,11.5661153793,0.4195432365,2.2235417366,3.9109528065,0.307297498,0.0882719979,-0.5086969733,2.5575587749
660,39729,39727,0.0039536185,0.0068801814,0.9122385979,-13.4801502228,13.3623609543,-2.8847091198,2.2245342731,3.9122104645,0.3068067431,-0.025071077,-0.6934492588,2.5855381489
661,39739,39737,0.0126615968,0.0018613498,0.8963838816,-9.4654960632,13.7069301605,-6.7555303574,2.2261190414,3.9120867252,0.3076091111,-0.227993384,-0.7888709307,2.5332095623
662,39749,39747,-0.0313698016,0.036265254,0.9843766093,-3.6081719398,15.1640462875,-9.5626049042,2.2276511192,3.9122731686,0.3070354462,-0.3560883701,-0.8683993816,2.4685268402
663,39759,39757,-0.0844827667,0.013572203,0.9708610177,12.0733890533,2.8382148743,-12.466501236,2.2281453609,3.9140985012,0.306350261,-0.5141199231,-0.8267123699,2.520263195
664,39769,39767,0.0182299465,-0.0003067798,0.9234253168,20.3050632477,-0.8265040517,-14.2214155197,2.2289454937,3.9145028591,0.3057842255,-0.4818210602,-0.6727130413,2.3555676937
665,39779,39777,-0.0215235315,0.0425409079,0.953945756,24.9354114532,-2.3570103645,-14.7167310715,2.2294223309,3.9145150185,0.3037611544,-0.4115714133,-0.4091747105,2.2226114273
666,39789,39787,0.0309306215,-0.0453434475,0.8944922686,22.8947219849,-2.5653297901,-16.2962207794,2.2291133404,3.9140927792,0.3029399514,-0.3276186287,-0.1282020956,1.9715365171
667,39799,39797,-0.018253345,-0.0030826831,0.9616877437,14.2459897995,0.6415609121,-16.9489364624,2.2315704823,3.9144876003,0.3019056618,-0.4304176867,-0.0225216933,1.8194875717
668,39809,39807,0.0672081858,-0.0816936791,0.9610530138,5.603146553,5.0991826057,-17.9765110016,2.2321200371,3.9134628773,0.3016258478,-0.4420476556,0.0196986478,1.4919313192
669,39819,39817,0.0095720347,-0.040472392,0.9964820147,2.2179167271,4.3251037598,-17.7764759064,2.2333338261,3.9147715569,0.300655514,-0.5548208356,-0.0319894776,1.3589018583
670,39829,39827,0.0659383982,0.0309582949,0.9393591881,3.0195481777,4.88149786,-18.9109706879,2.2340188026,3.9148669243,0.2997441888,-0.5123673677,0.0530581698,1.1540327072
671,39839,39837,0.0046102828,0.0596002042,0.9361612201,7.2273669243,6.9416484833,-18.2527942657,2.2339205742,3.9145252705,0.2977320254,-0.5406174064,0.1051843315,0.8466273546
672,39849,39847,0.0084083052,0.0622812435,0.9698070288,11.2960481644,-0.948982656,-17.8704738617,2.2351944447,3.9150519371,0.2965497077,-0.6209756136,0.2276089191,0.7596058249
673,39859,39857,0.0310142953,-0.0200646929,0.9294344187,15.6914453506,-5.4625725746,-18.025478363,2.2351796627,3.9138474464,0.2953566611,-0.5915821791,0.4844226539,0.5556966662
674,39869,39867,-0.0374345966,0.0262720603,1.0307468176,18.8741149902,-8.1230077744,-16.7306175232,2.2359158993,3.9149563313,0.2942276895,-0.5036289692,0.5736604333,0.3727732003
675,39879,39877,-0.0009943786,-0.0057229339,0.9928776026,17.8746929169,-6.5266070366,-14.2929735184,2.2384178638,3.915658474,0.2957699895,-0.5755318999,0.6188242435,0.1547162384
676,39889,39887,0.0044278563,0.0212797467,1.0096871853,11.3470830917,-5.623673439,-12.1291093826,2.2393596172,3.9166021347,0.2947492003,-0.4942501783,0.7682893872,-0.1015626863
677,39899,39897,-0.0142818885,-0.0096068215,1.0228370428,5.2203145027,-7.8604278564,-10.3236808777,2.2397477627,3.9150288105,0.293667078,-0.4069122374,0.8842683434,-0.2207303941
678,39909,39907,0.0245280471,-0.0254566055,0.9899673462,0.4457136393,-13.563832283,-8.6636657715,2.2412865162,3.9144692421,0.292352736,-0.3208227158,0.9720740914,-0.3644459546
679,39919,39917,-0.0154354451,-0.078979589,1.0730729103,-4.344953537,-19.8964252472,-7.6717729568,2.2428517342,3.915104866,0.2912610471,-0.2023852766,0.9775087833,-0.4205037951
680,39929,39927,0.0014402251,-0.0672466382,1.0391910076,-7.2681326866,-22.3534908295,-7.3616271019,2.2431609631,3.9161975384,0.2904419303,0.131360516,0.8378172517,-0.4911872149
681,39939,39937,-0.0123439049,0.1148717925,1.0380213261,-9.405579567,-27.473443985,-7.8791918755,2.2455894947,3.9165692329,0.2931056917,0.2185486257,0.7339897156,-0.6008068919
682,39949,39947,0.0106662884,-0.098193109,1.0659072399,-7.8702688217,-26.6319389343,-8.1072807312,2.2472467422,3.9164476395,0.2923365831,0.5485397577,0.624289155,-0.731446147
