,timestamp_start,timestamp_end,acc.x,acc.y,acc.z,gyro.x,gyro.y,gyro.z,stateEstimate.x,stateEstimate.y,stateEstimate.z,stabilizer.pitch,stabilizer.roll,stabilizer.yaw
0,32047,32043,-0.005773711483925581,-0.030733956024050713,1.0828707218170166,-7.645312786102295,-19.859304428100586,1.6050916910171509,1.7350717782974243,3.90786075592041,0.16836172342300415,-0.6598842740058899,0.5544398427009583,1.3367971181869507
1,32057,32053,-0.05350532755255699,-0.023258479312062263,1.099679708480835,-7.917442321777344,-22.80327606201172,1.690840721130371,1.7318663597106934,3.909229040145874,0.1698596328496933,-0.49869304895401,0.5375260710716248,1.3578721284866333
2,32067,32063,-0.04205416515469551,-0.005968283396214247,1.0501515865325928,-8.60270881652832,-17.28215980529785,1.650041937828064,1.7308480739593506,3.9057343006134033,0.17130427062511444,-0.339809387922287,0.34606972336769104,1.352476716041565
3,32077,32073,-0.0169997438788414,0.0023934002965688705,1.0528672933578491,-9.4856595993042,-11.768773078918457,1.7947800159454346,1.731047511100769,3.904665946960449,0.17319822311401367,-0.0666576698422432,0.23897255957126617,1.376915693283081
4,32087,32083,-0.016399318352341652,-0.06820158660411835,1.0754021406173706,-8.394164085388184,-11.632487297058105,1.1209344863891602,1.7298977375030518,3.903364658355713,0.1749080866575241,-0.0703972652554512,0.28780341148376465,1.3893039226531982
5,32097,32093,-0.00636009406298399,-0.02702239714562893,1.0740078687667847,-5.413879871368408,-9.603014945983887,1.2392427921295166,1.7307801246643066,3.902148485183716,0.17665614187717438,0.12339209765195847,0.10822904855012894,1.4005520343780518
6,32107,32103,-0.011821700260043144,0.04757694900035858,1.031021237373352,-4.068793296813965,-9.627395629882812,2.40669846534729,1.7303634881973267,3.9014711380004883,0.17699803411960602,0.288246214389801,0.05128113925457001,1.4204328060150146
7,32117,32113,-0.027200791984796524,0.05643567442893982,1.064140796661377,-3.354875087738037,-6.515552043914795,1.773676872253418,1.729082465171814,3.9012975692749023,0.17879775166511536,0.4076654613018036,0.019034335389733315,1.4425867795944214
8,32127,32123,0.01987575739622116,-0.05344989150762558,1.0261744260787964,-2.4684925079345703,-6.25333833694458,2.011322259902954,1.7305256128311157,3.900167465209961,0.180613175034523,0.35191625356674194,-0.07330024242401123,1.4521783590316772
9,32137,32133,-0.003609579289332032,-0.059678371995687485,1.0838531255722046,-2.63645076751709,-4.993720531463623,1.665401816368103,1.7314289808273315,3.9011635780334473,0.18403653800487518,0.372935950756073,-0.14806018769741058,1.4704461097717285
10,32147,32143,-0.006403996609151363,-0.09055941551923752,1.1027802228927612,-2.7135541439056396,-5.231863021850586,1.7019357681274414,1.7316592931747437,3.9023003578186035,0.18618476390838623,0.5585449934005737,0.15929734706878662,1.48963463306427
11,32157,32153,0.019887639209628105,-0.054606352001428604,1.056564450263977,-1.4966439008712769,-5.726896286010742,1.947879672050476,1.729111671447754,3.89992618560791,0.18840602040290833,0.42067137360572815,0.1200486272573471,1.5002895593643188
12,32167,32163,-0.016222596168518066,-0.007214874029159546,1.0338134765625,-3.117414951324463,-5.489185333251953,1.9470000267028809,1.7305692434310913,3.900836229324341,0.19060583412647247,0.6076966524124146,0.16234968602657318,1.5224885940551758
13,32177,32173,-0.024321122094988823,-0.028399797156453133,1.1036053895950317,-5.733510494232178,-7.445752143859863,1.8812367916107178,1.7307156324386597,3.8993515968322754,0.19020234048366547,0.7080962657928467,0.16973033547401428,1.5431808233261108
14,32187,32183,0.018307412043213844,-0.08306869864463806,1.0026812553405762,-7.338318824768066,-9.858213424682617,1.562337875366211,1.7310250997543335,3.9012033939361572,0.19232259690761566,0.9102064371109009,-0.020466262474656105,1.5798240900039673
15,32197,32193,-0.014853277243673801,0.007079032249748707,1.0288889408111572,-9.71076774597168,-3.621497392654419,1.5368843078613281,1.7329264879226685,3.9025332927703857,0.1946977972984314,1.06629478931427,-0.1495046615600586,1.6046983003616333
16,32207,32203,0.07709960639476776,0.01087149791419506,0.9530208706855774,-10.55036735534668,0.651961088180542,1.5510151386260986,1.732580304145813,3.9026172161102295,0.19583861529827118,0.9972898364067078,-0.21999509632587433,1.613779067993164
17,32217,32213,0.030461179092526436,0.028790976852178574,1.0178148746490479,-8.243040084838867,1.1238471269607544,1.5488916635513306,1.7339648008346558,3.902148723602295,0.19804050028324127,0.9051347970962524,-0.2136348932981491,1.6126435995101929
18,32227,32223,0.029996618628501892,-0.014913998544216156,1.0213594436645508,-5.906729221343994,-1.1353108882904053,1.6711812019348145,1.7359405755996704,3.900468587875366,0.2001616358757019,0.9051946997642517,-0.33883702754974365,1.6351075172424316
19,32237,32233,-0.041303522884845734,-0.03173275291919708,1.0215203762054443,-3.4968018531799316,-0.7568038105964661,1.606393575668335,1.735526442527771,3.9000160694122314,0.20255066454410553,1.0443366765975952,-0.11732040345668793,1.614518165588379
20,32247,32243,0.07040666043758392,-0.05401081591844559,1.00243079662323,-2.4421582221984863,-0.6864185333251953,1.4950110912322998,1.7350995540618896,3.896650552749634,0.20467950403690338,1.0804433822631836,-0.20741082727909088,1.6391738653182983
21,32257,32253,-0.02496766485273838,0.02334689535200596,0.9959568977355957,-3.002457618713379,-2.588637113571167,1.8998795747756958,1.7305185794830322,3.890946388244629,0.20683562755584717,1.2738319635391235,-0.19747690856456757,1.6414772272109985
22,32267,32263,-0.014617051929235458,0.027935493737459183,0.9901108145713806,-6.110548496246338,-0.5389955639839172,1.5964770317077637,1.729007363319397,3.890204906463623,0.20886999368667603,1.302672266960144,-0.36253276467323303,1.684054970741272
23,32277,32273,0.009057157672941685,-0.03958234190940857,0.9495999813079834,-9.58206844329834,3.7386927604675293,1.1208010911941528,1.7290724515914917,3.8898162841796875,0.21083949506282806,1.284350872039795,-0.4104110896587372,1.6998140811920166
24,32287,32283,-0.0019549287389963865,-0.006431859452277422,0.9645702838897705,-9.350178718566895,3.1958224773406982,1.5698752403259277,1.728468418121338,3.8894574642181396,0.21301080286502838,1.2931841611862183,-0.4970859885215759,1.710662603378296
25,32297,32293,0.010691547766327858,-0.0390746183693409,0.953441321849823,-8.505495071411133,5.981466770172119,1.5402495861053467,1.7284395694732666,3.888272523880005,0.2150266319513321,1.2783808708190918,-0.5802410244941711,1.722074270248413
26,32307,32303,-0.003382384777069092,-0.026832235977053642,0.9915880560874939,-7.2879438400268555,9.994794845581055,1.19188392162323,1.728489875793457,3.8883893489837646,0.21669122576713562,1.148268699645996,-0.7914125323295593,1.763663649559021
27,32317,32313,0.02542310766875744,-0.01987135410308838,0.9683846235275269,-5.054107666015625,12.483525276184082,1.2034136056900024,1.7300059795379639,3.8890838623046875,0.21877485513687134,0.9043747186660767,-1.0998237133026123,1.827921986579895
28,32327,32323,0.06190440058708191,-0.04539914429187775,0.9466807842254639,-2.029348134994507,11.24596118927002,1.0047284364700317,1.7325236797332764,3.889833450317383,0.2207716554403305,0.6588272452354431,-1.2543829679489136,1.8649139404296875
29,32337,32333,0.08933031558990479,-0.14610816538333893,0.9668276309967041,2.950652837753296,7.295248508453369,0.9901642203330994,1.7341283559799194,3.8912267684936523,0.22365699708461761,0.8020853996276855,-1.268450379371643,1.8548096418380737
30,32347,32343,0.026424510404467583,-0.14226682484149933,0.9987590909004211,8.976968765258789,0.9304643869400024,0.6145722270011902,1.7320655584335327,3.8909668922424316,0.22577859461307526,1.3377379179000854,-0.47621262073516846,1.675924301147461
31,32357,32353,-0.03132336959242821,-0.06194354221224785,1.026824951171875,11.640974044799805,-2.3360536098480225,1.4621888399124146,1.726853370666504,3.883850336074829,0.228436678647995,1.2938376665115356,-0.42658594250679016,1.6895942687988281
32,32367,32363,-0.01785583421587944,0.009580552577972412,1.0107396841049194,9.321215629577637,2.7877695560455322,2.617311716079712,1.7250982522964478,3.883201837539673,0.23061685264110565,1.1962045431137085,-0.3480420708656311,1.7175872325897217
33,32377,32373,0.014258336275815964,0.09556013345718384,0.9844808578491211,3.171757936477661,7.241738796234131,2.931793689727783,1.7258576154708862,3.8826403617858887,0.23267173767089844,1.0475142002105713,-0.38951990008354187,1.7778124809265137
34,32387,32383,0.0006599033367820084,0.07072147727012634,0.969957172870636,-7.641757011413574,17.69999122619629,1.4921187162399292,1.7265805006027222,3.883302927017212,0.23510268330574036,0.962091326713562,-0.5256324410438538,1.8392730951309204
35,32397,32393,0.05570375174283981,0.10638636350631714,0.9198323488235474,-14.277830123901367,23.003192901611328,1.0730551481246948,1.726523995399475,3.8840839862823486,0.23731091618537903,0.6057435870170593,-0.6465677618980408,1.8793420791625977
36,32407,32403,0.0623779371380806,0.09625446051359177,0.9325157999992371,-15.692181587219238,19.773340225219727,0.8719723224639893,1.726017713546753,3.8831682205200195,0.237582266330719,0.3816349506378174,-0.6965118646621704,1.8767452239990234
37,32417,32413,0.003193974494934082,-0.0008610455552116036,0.973475992679596,-14.784638404846191,20.19476890563965,0.7498869895935059,1.7269752025604248,3.8824706077575684,0.2393726110458374,0.09219427406787872,-0.9241770505905151,1.8985551595687866
38,32427,32423,0.02425798960030079,0.008972398936748505,0.9897660613059998,-9.118308067321777,12.763680458068848,0.6280319094657898,1.7272316217422485,3.8820621967315674,0.24110713601112366,0.14995601773262024,-1.1772958040237427,1.899614691734314
39,32437,32433,0.013123080134391785,0.013822386041283607,0.9711514115333557,-2.715759515762329,5.367114067077637,0.7033605575561523,1.7249798774719238,3.8827476501464844,0.24087724089622498,-0.30308014154434204,-1.3994710445404053,1.9449032545089722
40,32447,32443,-0.042724743485450745,0.06058279424905777,0.9661284685134888,4.308645725250244,0.5097341537475586,1.066245436668396,1.7276052236557007,3.883974552154541,0.24247613549232483,-0.39157137274742126,-1.3478327989578247,1.950662612915039
41,32457,32453,-0.07383193075656891,0.10736235231161118,0.9624566435813904,11.018332481384277,-2.9482879638671875,1.4244818687438965,1.7278040647506714,3.8833167552948,0.24409152567386627,-0.18489910662174225,-1.4806157350540161,1.9493706226348877
42,32467,32463,-0.04797516390681267,0.07370701432228088,0.9361959099769592,15.32690715789795,-6.298295497894287,1.9372045993804932,1.725618839263916,3.884784460067749,0.24566441774368286,-0.1679750680923462,-1.2684823274612427,1.9635305404663086
43,32477,32473,-0.051747169345617294,0.04648609086871147,0.9595275521278381,16.62310791015625,-7.374047756195068,2.2359962463378906,1.7253127098083496,3.883622646331787,0.24874909222126007,0.1808014065027237,-1.0075688362121582,1.945439100265503
44,32487,32483,-0.07612825185060501,0.0302305668592453,0.9913444519042969,13.953564643859863,-2.1750850677490234,2.4615492820739746,1.722659945487976,3.8825926780700684,0.2502652406692505,0.19298890233039856,-0.8980890512466431,1.9755693674087524
45,32497,32493,0.003733823774382472,-0.052522923797369,0.9452685713768005,10.077402114868164,1.3800678253173828,2.3426125049591064,1.7237098217010498,3.8830223083496094,0.2518478035926819,0.13818185031414032,-0.6818217039108276,2.009760856628418
46,32507,32503,-0.055500030517578125,-0.044606659561395645,0.9886856079101562,4.9613752365112305,6.319937229156494,1.5208837985992432,1.7250049114227295,3.883418083190918,0.25343599915504456,0.006432113703340292,-0.5502758026123047,2.0449602603912354
47,32517,32513,-0.08305775374174118,-0.008943403139710426,1.0029891729354858,-0.0661335438489914,10.796716690063477,0.9694547653198242,1.7266342639923096,3.8832905292510986,0.2549564838409424,-0.05084377899765968,-0.6493520736694336,2.057360887527466
48,32527,32523,-0.08979590982198715,0.07620332390069962,0.9974438548088074,-3.4690840244293213,13.69007682800293,1.1533153057098389,1.7259100675582886,3.884683847427368,0.25650471448898315,-0.16574804484844208,-0.6579151153564453,2.0707855224609375
49,32537,32533,-0.058381088078022,0.16945338249206543,0.9532782435417175,-4.23275089263916,14.173550605773926,1.3734138011932373,1.7268460988998413,3.8868460655212402,0.2567952871322632,-0.37111276388168335,-0.7048615217208862,2.0887515544891357
50,32547,32543,0.014759748242795467,0.33785948157310486,0.9245385527610779,-1.4052207469940186,11.18948745727539,1.3179137706756592,1.7276877164840698,3.887030839920044,0.25820162892341614,-0.47651803493499756,-0.6699200868606567,2.099893569946289
51,32557,32553,0.03695835545659065,0.23937582969665527,0.9408935904502869,2.4624009132385254,6.164331912994385,1.231442928314209,1.7269712686538696,3.886384963989258,0.2595841586589813,-0.665390133857727,-0.7386394739151001,2.1189403533935547
52,32567,32563,0.02953866682946682,0.0800468698143959,0.9611086845397949,8.17854118347168,-0.48774591088294983,1.1343306303024292,1.7287001609802246,3.8869845867156982,0.2619471251964569,-0.7513312101364136,-0.6498695611953735,2.138200044631958
53,32577,32573,0.00339839281514287,-0.022260814905166626,0.97188800573349,11.032508850097656,-5.240472316741943,1.1751296520233154,1.7294116020202637,3.88665771484375,0.26324567198753357,-0.6691970229148865,-0.5646463632583618,2.142080068588257
54,32587,32583,-0.053125329315662384,-0.11153868585824966,0.9634196758270264,11.540974617004395,-9.692214012145996,0.5576640963554382,1.7285362482070923,3.887598752975464,0.2645323574542999,-0.5944631099700928,-0.3717474043369293,2.1596810817718506
55,32597,32593,-0.0745789185166359,-0.07387354969978333,0.9588040709495544,8.300372123718262,-7.1909708976745605,1.2765170335769653,1.7289879322052002,3.886528491973877,0.26577532291412354,-0.5028510093688965,-0.20307764410972595,2.1724026203155518
56,32607,32603,-0.07621487975120544,0.016990594565868378,0.9406270384788513,3.578097105026245,-3.320848226547241,1.4237016439437866,1.7285456657409668,3.8858580589294434,0.26880526542663574,-0.5267966389656067,-0.45748066902160645,2.1593985557556152
57,32617,32613,-0.0636729747056961,0.02045016922056675,0.9410602450370789,-0.8161803483963013,1.1382886171340942,1.3009382486343384,1.7289111614227295,3.8888986110687256,0.2702360451221466,-0.5200148820877075,-0.3851746916770935,2.1764776706695557
58,32627,32623,-0.036237020045518875,0.0198244396597147,0.9875319600105286,-2.502243995666504,3.8290393352508545,1.6599417924880981,1.7284517288208008,3.888686180114746,0.27149078249931335,-0.41886985301971436,-0.44367334246635437,2.1799368858337402
59,32637,32633,0.005453796125948429,-0.03197843208909035,0.9495478272438049,-0.9326424598693848,4.800040245056152,1.5339077711105347,1.7270677089691162,3.88985538482666,0.2724684476852417,-0.5075741410255432,-0.43305397033691406,2.2020740509033203
60,32647,32643,-0.0370219424366951,-0.008817283436655998,0.9886305332183838,4.900042533874512,0.527126133441925,1.233976125717163,1.7275334596633911,3.8898985385894775,0.27362897992134094,-0.5911785364151001,-0.46070054173469543,2.215893268585205
61,32657,32653,-0.08356931060552597,-0.00173936877399683,1.024101734161377,7.753330230712891,3.6852409839630127,0.5176103115081787,1.7273887395858765,3.8913650512695312,0.27474290132522583,-0.660533607006073,-0.4840044677257538,2.2235841751098633
62,32667,32663,-0.013271530158817768,-0.016854388639330864,0.9723902344703674,12.501083374023438,-1.3915719985961914,0.34557023644447327,1.7283176183700562,3.892618179321289,0.273741751909256,-0.7091400623321533,-0.3591918349266052,2.2350082397460938
63,32677,32673,-0.09507831186056137,0.17216968536376953,0.9614229798316956,13.914320945739746,-2.1476657390594482,1.0636258125305176,1.7277649641036987,3.8925819396972656,0.27475282549858093,-0.701438844203949,-0.18402963876724243,2.245166540145874
64,32687,32683,-0.01928659901022911,0.023478208109736443,0.9537138938903809,13.330282211303711,-2.4251954555511475,1.5993863344192505,1.728666067123413,3.892965078353882,0.27570369839668274,-0.5919107794761658,-0.06653375923633575,2.2510225772857666
65,32697,32693,0.015538272447884083,0.06162475422024727,0.9678069949150085,12.076944351196289,-7.046045303344727,1.5988878011703491,1.7284064292907715,3.8934195041656494,0.2766081988811493,-0.5420728325843811,0.11371422559022903,2.271791934967041
66,32707,32703,0.0072184898890554905,-0.16588972508907318,0.9873430132865906,8.242470741271973,-4.487204551696777,1.6345813274383545,1.728628158569336,3.8934500217437744,0.2793963849544525,-0.5363800525665283,0.25288859009742737,2.2888925075531006
67,32717,32713,0.005407670047134161,-0.10594021528959274,0.9646938443183899,4.7078680992126465,-5.195148468017578,1.001847267150879,1.7293994426727295,3.893681049346924,0.2803196609020233,-0.535293698310852,0.260117769241333,2.292846202850342
68,32727,32723,-0.04955582693219185,-0.07321014255285263,0.9704288244247437,1.7286802530288696,-4.540223121643066,0.4280538856983185,1.7299437522888184,3.8951828479766846,0.28124508261680603,-0.4675857126712799,0.360739141702652,2.310703992843628
69,32737,32733,-0.09358606487512589,-0.05263547971844673,0.939283549785614,-1.5568710565567017,-2.8744640350341797,0.3677648901939392,1.7304052114486694,3.895197868347168,0.2810012996196747,-0.33104273676872253,0.40221866965293884,2.322709798812866
70,32747,32743,0.011207195930182934,-0.0518852137029171,0.9264629483222961,-2.8964457511901855,-1.2062175273895264,0.8536921143531799,1.7293403148651123,3.894434928894043,0.2817542552947998,-0.2993656098842621,0.32974231243133545,2.3228533267974854
71,32757,32753,-0.037493396550416946,0.005470875650644302,0.9629737138748169,-2.3698618412017822,-0.8881348371505737,0.5165346264839172,1.7300976514816284,3.895573854446411,0.2824517488479614,-0.35511600971221924,0.3241182267665863,2.328251600265503
72,32767,32763,-0.016543960198760033,-0.04879153519868851,0.9888799786567688,0.8474037647247314,-2.620044231414795,0.8952299952507019,1.7311726808547974,3.8957982063293457,0.28636613488197327,-0.3205093741416931,0.3373371958732605,2.3402018547058105
73,32777,32773,-0.027207838371396065,-0.0716579481959343,0.9992530345916748,4.449199676513672,-3.8164970874786377,0.6819269061088562,1.7308229207992554,3.895514726638794,0.2871885895729065,-0.2142343521118164,0.39902588725090027,2.3567745685577393
74,32787,32783,-0.05647370591759682,-0.016310375183820724,1.016526699066162,5.199759006500244,-0.18569311499595642,0.1881248950958252,1.7301256656646729,3.8955776691436768,0.2881242036819458,-0.2803400158882141,0.4983637034893036,2.3582022190093994
75,32797,32793,0.004446216858923435,-0.02297898381948471,0.9774672389030457,5.824674129486084,-2.4468467235565186,0.2991468906402588,1.7305524349212646,3.8950846195220947,0.2890077829360962,-0.11888601630926132,0.5263168811798096,2.370967149734497
76,32807,32803,-0.02259896881878376,0.08319540321826935,0.9659324884414673,3.8148257732391357,-0.4170338213443756,0.38401803374290466,1.7290388345718384,3.896012783050537,0.2876731753349304,-0.12382383644580841,0.6265646815299988,2.37636137008667
77,32817,32813,0.03283325955271721,0.03910348191857338,0.9174497723579407,0.5626139044761658,1.087850570678711,0.7643249034881592,1.7291704416275024,3.8948516845703125,0.2876752018928528,-0.1514129638671875,0.5190545320510864,2.3724324703216553
78,32827,32823,0.015286941081285477,0.07587675750255585,0.969825804233551,-2.895233392715454,-1.0242323875427246,0.07110360264778137,1.7294337749481201,3.8960442543029785,0.2884090840816498,-0.08283455669879913,0.5320595502853394,2.3853094577789307
79,32837,32833,0.03731364384293556,0.08211211115121841,0.9367899894714355,-3.489591121673584,-0.3893686532974243,-0.15006911754608154,1.728742241859436,3.8956971168518066,0.285180926322937,-0.09798957407474518,0.57392418384552,2.387676477432251
80,32847,32843,-0.037474945187568665,-0.04339771345257759,0.9627972841262817,-1.710312843322754,-1.595781922340393,-0.22529423236846924,1.7290607690811157,3.8949410915374756,0.28544607758522034,-0.10410561412572861,0.5457961559295654,2.384103298187256
81,32857,32853,-0.09167177975177765,-0.07994972914457321,1.0191830396652222,-0.6134225130081177,0.8859331011772156,-0.024377873167395592,1.728972315788269,3.895493984222412,0.28568369150161743,-0.14304275810718536,0.5287323594093323,2.380652666091919
82,32867,32863,-0.09952815622091293,-0.04757723957300186,1.0015722513198853,-2.887813091278076,13.351990699768066,0.47526031732559204,1.729231595993042,3.895109176635742,0.28693923354148865,-0.20524680614471436,0.5048311948776245,2.3807997703552246
83,32877,32873,0.03257033973932266,-0.023425409570336342,1.0001362562179565,-2.4614346027374268,17.890323638916016,0.720994770526886,1.7289186716079712,3.8958966732025146,0.2872292697429657,-0.4799467921257019,0.6219844222068787,2.382114887237549
84,32887,32883,0.025135550647974014,0.06970222294330597,1.0009175539016724,-2.056396007537842,22.499576568603516,0.2920486330986023,1.7306796312332153,3.8945910930633545,0.2874940037727356,-0.7473815679550171,0.5797138214111328,2.3787522315979004
85,32897,32893,0.025351518765091896,0.026653673499822617,0.999077320098877,-2.0815179347991943,21.51393699645996,0.16893847286701202,1.731650471687317,3.894603967666626,0.2904545068740845,-0.8028836846351624,0.5361340045928955,2.401867151260376
86,32907,32903,0.011359808966517448,0.014140828512609005,1.0038310289382935,-3.121757745742798,18.24124526977539,-0.5367418527603149,1.7308869361877441,3.8950579166412354,0.29103243350982666,-1.1440638303756714,0.4892105162143707,2.385693073272705
87,32917,32913,0.028280412778258324,-0.04759255051612854,0.938967227935791,-2.5961053371429443,11.535120964050293,-1.1096762418746948,1.731528401374817,3.8943488597869873,0.29140782356262207,-0.999910295009613,0.4344506859779358,2.414661407470703
88,32927,32923,0.0020015493500977755,-0.06350868940353394,0.9362002015113831,-3.47470760345459,7.192448616027832,-0.8681255578994751,1.7291085720062256,3.895209550857544,0.29221001267433167,-1.1698921918869019,0.38298651576042175,2.395364284515381
89,32937,32933,0.010199365206062794,-0.08576811105012894,0.9905059933662415,-3.853353261947632,1.795015811920166,-0.8092738389968872,1.7303463220596313,3.8951199054718018,0.2916540801525116,-1.1769988536834717,0.32303327322006226,2.3892982006073
90,32947,32943,0.022869978100061417,-0.1738196313381195,1.0240187644958496,-2.3687219619750977,-1.484181523323059,-1.0254045724868774,1.7297405004501343,3.8953442573547363,0.29196697473526,-1.2053618431091309,0.270874559879303,2.3767895698547363
91,32957,32953,-0.0031034788116812706,-0.15089623630046844,1.0297831296920776,-0.49416452646255493,0.43132534623146057,-1.2879045009613037,1.730737566947937,3.8960494995117188,0.29223698377609253,-1.2260007858276367,0.24368833005428314,2.3617281913757324
92,32967,32963,0.008908995427191257,-0.07321327924728394,1.0157803297042847,-0.8392363786697388,6.307877540588379,-1.9053995609283447,1.7309743165969849,3.8959238529205322,0.29405295848846436,-1.3030318021774292,0.2272559106349945,2.343086004257202
93,32977,32973,0.039400529116392136,0.014146323315799236,0.9538609385490417,0.8004867434501648,8.885808944702148,-1.3571608066558838,1.7321796417236328,3.8964791297912598,0.294475793838501,-1.4441815614700317,0.23440036177635193,2.32226300239563
94,32987,32983,0.002536659361794591,-0.01960362121462822,0.9949429631233215,0.10410046577453613,15.167386054992676,-1.20186185836792,1.7315865755081177,3.8975677490234375,0.29485374689102173,-1.3828524351119995,0.32981616258621216,2.337519645690918
95,32997,32993,0.030618123710155487,-0.07679293304681778,0.9873911738395691,-0.00436868891119957,13.090799331665039,-1.1840938329696655,1.7303365468978882,3.896714925765991,0.29456010460853577,-1.6004952192306519,0.3296422064304352,2.3180623054504395
96,33007,33003,0.01574055105447769,-0.0991843193769455,1.0236239433288574,0.06513886153697968,8.773882865905762,-1.1701987981796265,1.731243371963501,3.897407054901123,0.2948821485042572,-1.6902480125427246,0.3230695426464081,2.3087892532348633
97,33017,33013,-0.009253031574189663,-0.05329350009560585,1.0196534395217896,-0.7736579179763794,6.222873687744141,-0.9364992380142212,1.7302463054656982,3.8966288566589355,0.2952520549297333,-1.813908576965332,0.3073085844516754,2.294034719467163
98,33027,33023,-0.045899759978055954,0.030706625431776047,1.0005950927734375,-2.9450128078460693,5.590253829956055,-0.24348986148834229,1.7303138971328735,3.895949602127075,0.29557910561561584,-1.8956416845321655,0.34779807925224304,2.2971951961517334
99,33037,33033,0.010163034312427044,0.025575364008545876,1.0255473852157593,-3.117893934249878,1.7503547668457031,-0.4872083067893982,1.7304110527038574,3.893850803375244,0.2962404191493988,-1.9341024160385132,0.28152450919151306,2.2891879081726074
100,33047,33043,0.019604891538619995,-0.04397854581475258,0.9730350375175476,-3.237755298614502,-1.9181091785430908,-0.7286945581436157,1.7288304567337036,3.892749309539795,0.2966824173927307,-1.9035496711730957,0.21545851230621338,2.2794923782348633
101,33057,33053,-0.01596951298415661,-0.022443756461143494,1.0066642761230469,-3.091583490371704,-4.453804016113281,-0.6084876656532288,1.728629231452942,3.8926279544830322,0.29711076617240906,-1.898514986038208,0.31482189893722534,2.2998147010803223
102,33067,33063,-0.04322705417871475,0.057650454342365265,1.0061479806900024,-1.9544050693511963,-5.770785331726074,-0.5568296313285828,1.7290480136871338,3.8913111686706543,0.29592180252075195,-1.7672080993652344,0.2560650408267975,2.288958787918091
103,33077,33073,0.02564661204814911,-0.1001555472612381,1.0104608535766602,-2.4336066246032715,-5.579962730407715,-0.5771922469139099,1.72892427444458,3.8913440704345703,0.2962758243083954,-1.810191035270691,0.19659177958965302,2.268390655517578
104,33087,33083,0.034998975694179535,-0.18638454377651215,1.0415208339691162,-2.055931806564331,-2.2658770084381104,-0.7269009351730347,1.7292242050170898,3.890393018722534,0.29652857780456543,-1.8544296026229858,0.22116400301456451,2.2679786682128906
105,33097,33093,0.01558629795908928,-0.07710805535316467,0.992642343044281,-2.2998595237731934,-0.4781365692615509,-1.2398808002471924,1.7306369543075562,3.890164375305176,0.29714423418045044,-1.7709649801254272,0.24692314863204956,2.2744245529174805
106,33107,33103,0.006867299787700176,0.096981942653656,0.985543966293335,-3.9828591346740723,1.3189573287963867,-1.4185452461242676,1.7306694984436035,3.8897619247436523,0.29754820466041565,-1.7463428974151611,0.16032759845256805,2.2492353916168213
107,33117,33113,0.031182188540697098,0.019322594627738,0.9858340620994568,-4.113633632659912,-0.41943612694740295,-0.9375087022781372,1.730170726776123,3.889314889907837,0.29794782400131226,-1.8774018287658691,0.0717822015285492,2.218942403793335
108,33127,33123,-0.021317219361662865,-0.004352630581706762,1.0185848474502563,-4.482575416564941,-2.150954008102417,-1.0541093349456787,1.731345534324646,3.8890979290008545,0.2971287965774536,-1.875245451927185,-0.017877843230962753,2.1977248191833496
109,33137,33133,0.015062671154737473,-0.029612861573696136,0.9840793609619141,-4.648078918457031,-2.990474224090576,-1.0449373722076416,1.7324341535568237,3.8884823322296143,0.2974083423614502,-1.7560845613479614,-0.03028935194015503,2.2010581493377686
110,33147,33143,-0.013559448532760143,-0.1381550282239914,1.0193244218826294,-3.241514205932617,-5.846579074859619,-0.5252896547317505,1.7322694063186646,3.8888235092163086,0.2977960705757141,-1.8484388589859009,-0.027209656313061714,2.1955528259277344
111,33157,33153,0.02812223508954048,-0.16971196234226227,0.9979501366615295,-1.0178272724151611,-7.992617607116699,-0.4749004542827606,1.7336912155151367,3.8879799842834473,0.2980022430419922,-1.646019458770752,-0.08023054897785187,2.1884841918945312
112,33167,33163,0.002830563811585307,0.006639966741204262,0.9827137589454651,0.36888378858566284,-9.163829803466797,-0.24679405987262726,1.7327990531921387,3.888106107711792,0.2996289134025574,-1.5901052951812744,-0.017123239114880562,2.1995689868927
113,33177,33173,-0.012757774442434311,0.02755950577557087,1.0035407543182373,1.6906161308288574,-8.11311149597168,-0.276394248008728,1.7331711053848267,3.8874495029449463,0.2999628186225891,-1.7587776184082031,-0.019282016903162003,2.1872599124908447
114,33187,33183,0.03124408982694149,-0.047102510929107666,0.9622870683670044,0.5146366953849792,-6.198967933654785,0.282023549079895,1.7362136840820312,3.8874552249908447,0.3001226484775543,-1.5259504318237305,-0.01704493537545204,2.1867101192474365
115,33197,33193,0.05544164776802063,-0.06760206818580627,0.9842798113822937,-0.5964438319206238,-8.209300994873047,-0.7538868188858032,1.7356534004211426,3.887395143508911,0.298086941242218,-1.6258312463760376,0.04052358120679855,2.196380853652954
116,33207,33203,-0.05906149744987488,0.09395816177129745,0.994545042514801,-4.255614757537842,-8.17534065246582,-0.6985334753990173,1.7373573780059814,3.886375904083252,0.2981395721435547,-1.4532815217971802,-0.026186209172010422,2.177760124206543
117,33217,33213,0.0020810032729059458,-0.015050377696752548,0.97119140625,-5.101386547088623,-6.773438930511475,-1.1157842874526978,1.737604022026062,3.886514663696289,0.29840758442878723,-1.2908575534820557,-0.13426893949508667,2.159198760986328
118,33227,33223,-0.003361056325957179,0.04041238874197006,0.987829327583313,-5.838089466094971,-4.9014892578125,-1.0260279178619385,1.7375367879867554,3.8866779804229736,0.3013632297515869,-1.3841454982757568,-0.17181114852428436,2.15236234664917
119,33237,33233,0.033490195870399475,0.04127374663949013,0.9455851912498474,-4.3681488037109375,-8.28499698638916,-0.6659515500068665,1.7398957014083862,3.886843204498291,0.3015322983264923,-1.1694729328155518,-0.26921936869621277,2.137277603149414
120,33247,33243,0.012583434581756592,0.006481954827904701,0.9669487476348877,-1.8564589023590088,-7.452226638793945,-0.6017748713493347,1.739230990409851,3.8869457244873047,0.301937460899353,-1.0781679153442383,-0.18210667371749878,2.153766632080078
121,33257,33253,0.022321293130517006,-0.03227967768907547,0.9883872866630554,-0.15855897963047028,-9.318070411682129,-0.5283651947975159,1.7403576374053955,3.8852579593658447,0.30217230319976807,-1.1421514749526978,-0.2179001122713089,2.141881227493286
122,33267,33263,-0.01244632713496685,0.04335133358836174,0.9752110242843628,1.661241888999939,-10.072673797607422,-0.4371165335178375,1.7424217462539673,3.884415864944458,0.3021652400493622,-1.0256247520446777,-0.22068539261817932,2.136353015899658
123,33277,33273,-0.06429333984851837,0.08350972086191177,1.0232172012329102,0.5629661679267883,-7.843803405761719,0.10731550306081772,1.743308424949646,3.884244680404663,0.3023337125778198,-0.8538604974746704,-0.22518974542617798,2.1358442306518555
124,33287,33283,-0.034507375210523605,0.11898647993803024,0.9779981970787048,-0.7788301706314087,-6.738766670227051,0.3673010468482971,1.7440919876098633,3.884186267852783,0.3026173710823059,-0.856674075126648,-0.32033777236938477,2.125314950942993
125,33297,33293,-0.01689249463379383,0.003046951023861766,1.0128085613250732,-2.0150463581085205,-6.310666561126709,0.5913242697715759,1.7448831796646118,3.883981704711914,0.3041514456272125,-0.6292775869369507,-0.27611657977104187,2.1351876258850098
126,33307,33303,0.012242218479514122,0.0026576111558824778,1.0225311517715454,-0.972854495048523,-8.975809097290039,-0.1306958645582199,1.7445471286773682,3.883413553237915,0.30455026030540466,-0.6959294080734253,-0.3125501275062561,2.1380836963653564
127,33317,33313,-0.005220347084105015,-0.06199302524328232,0.9991025328636169,-1.1107792854309082,-6.546933174133301,0.08258423954248428,1.7471973896026611,3.883180618286133,0.30474618077278137,-0.749684751033783,-0.33860838413238525,2.1387593746185303
128,33327,33323,0.036019451916217804,-0.05759751796722412,0.9882878065109253,-0.9750658273696899,-6.528062343597412,-0.38846397399902344,1.7490278482437134,3.8831474781036377,0.30660516023635864,-0.6688668727874756,-0.29270604252815247,2.1461825370788574
129,33337,33333,-0.011100787669420242,-0.013988788239657879,1.0063823461532593,-1.2080483436584473,-7.372466564178467,0.37389588356018066,1.7487049102783203,3.883166551589966,0.3069458603858948,-0.4251228868961334,-0.3197202980518341,2.1375844478607178
130,33347,33343,0.04395828768610954,-0.12387450784444809,0.9917362928390503,-1.1756484508514404,-9.002490997314453,-0.23789530992507935,1.7479323148727417,3.8829143047332764,0.30750903487205505,-0.5549029111862183,-0.2742471694946289,2.1451504230499268
131,33357,33353,0.015281317755579948,-0.12002187222242355,1.0452769994735718,-0.8864824175834656,-7.381112098693848,-1.1491289138793945,1.7506399154663086,3.8817522525787354,0.3077355921268463,-0.29725387692451477,-0.3062024712562561,2.1302883625030518
132,33367,33363,0.006011918652802706,-0.039973851293325424,0.995428204536438,0.22669604420661926,-7.023301124572754,-1.6893476247787476,1.7503937482833862,3.8813962936401367,0.30910173058509827,-0.360155314207077,-0.3242392838001251,2.1213135719299316
133,33377,33373,0.00018078902212437242,0.03410777822136879,0.982615053653717,1.764014482498169,-5.232629299163818,-1.9497634172439575,1.7529306411743164,3.8811697959899902,0.3094733655452728,-0.19100132584571838,-0.3130522072315216,2.0991647243499756
134,33387,33383,0.06951276957988739,-0.0027864871080964804,0.9239215850830078,4.001890182495117,-5.525921821594238,-1.5942798852920532,1.7535719871520996,3.881118059158325,0.31004664301872253,-0.10269942879676819,-0.264395147562027,2.0795323848724365
135,33397,33393,0.05300901457667351,-0.024556832388043404,0.955479085445404,5.52206563949585,-7.339849948883057,-1.234573483467102,1.7543736696243286,3.8807361125946045,0.3120553195476532,-0.14368455111980438,-0.33407047390937805,2.0675079822540283
136,33407,33403,0.00555594963952899,-0.11255286633968353,0.9920165538787842,5.940718650817871,-9.953052520751953,-1.4635369777679443,1.7567670345306396,3.8814468383789062,0.3124188482761383,-0.08118507266044617,-0.2331894189119339,2.05389142036438
137,33417,33413,0.005432384554296732,-0.17589206993579865,1.0052993297576904,4.352582931518555,-6.847631454467773,-1.6989591121673584,1.7592267990112305,3.8810510635375977,0.3128841519355774,0.1872112900018692,-0.15259261429309845,2.0294525623321533
138,33427,33423,0.015831604599952698,-0.05349584296345711,0.9867414832115173,2.6095516681671143,-5.513067245483398,-1.6276476383209229,1.7586607933044434,3.8807036876678467,0.3123404383659363,0.028300296515226364,-0.177761510014534,2.0224456787109375
139,33437,33433,-0.00012911319208797067,0.09889140725135803,0.9860572814941406,-0.027190471068024635,-2.0900380611419678,-2.0273256301879883,1.7625627517700195,3.8809573650360107,0.3125848174095154,0.20957829058170319,-0.16578985750675201,1.9992338418960571
140,33447,33443,-0.009581777267158031,0.03654118627309799,0.9841969609260559,-1.0212719440460205,-0.18227605521678925,-2.5183327198028564,1.7628941535949707,3.8813977241516113,0.3130863904953003,0.21427197754383087,-0.16919824481010437,1.9748657941818237
141,33457,33453,0.021194467321038246,0.04308940842747688,1.0047690868377686,0.5430281162261963,0.5975428819656372,-3.3732686042785645,1.765613079071045,3.881329298019409,0.31198856234550476,0.11954532563686371,-0.16548152267932892,1.9462977647781372
142,33467,33463,0.01850036345422268,0.016220364719629288,1.0111737251281738,2.8254523277282715,0.9279003739356995,-3.8151793479919434,1.7678864002227783,3.8810877799987793,0.312144011259079,0.25008922815322876,-0.12573297321796417,1.9038939476013184
143,33477,33473,0.026812870055437088,0.017342764884233475,0.9622088670730591,6.36409854888916,0.5700506567955017,-3.4509811401367188,1.7678803205490112,3.8809115886688232,0.31252115964889526,0.1478108912706375,-0.10948155075311661,1.876785397529602
144,33487,33483,-0.0196142066270113,0.1210206001996994,0.9596130847930908,7.831169605255127,-0.6595059633255005,-3.091834306716919,1.7706451416015625,3.8808493614196777,0.3126860558986664,0.1316138356924057,-0.05208362638950348,1.8734514713287354
145,33497,33493,-0.023235414177179337,0.1362549066543579,0.9403891563415527,9.581917762756348,-3.172748327255249,-2.445840358734131,1.772416114807129,3.880627155303955,0.3136720359325409,0.2116476446390152,0.01881318725645542,1.8379886150360107
146,33507,33503,-0.04477841034531593,0.06407304853200912,1.0022475719451904,10.01707649230957,-4.459064483642578,-2.7323157787323,1.7729824781417847,3.8804826736450195,0.3139273226261139,0.14407874643802643,0.10091584175825119,1.8142234086990356
147,33517,33513,-0.079597607254982,-0.08957954496145248,0.9939019680023193,6.280640602111816,-5.516995906829834,-2.9086923599243164,1.7750638723373413,3.881227970123291,0.3140145540237427,0.4215832054615021,0.3397204279899597,1.750001311302185
148,33527,33523,-0.07166483253240585,-0.05274294689297676,1.014582872390747,2.0857512950897217,-6.9181623458862305,-3.5211591720581055,1.7740787267684937,3.88053035736084,0.31462541222572327,0.5809440016746521,0.3504728376865387,1.7463668584823608
149,33537,33533,-0.08631469309329987,0.06137499585747719,0.964970052242279,-1.5362135171890259,-10.283726692199707,-2.959897994995117,1.7737222909927368,3.880563974380493,0.3149220943450928,0.4960196614265442,0.36950555443763733,1.714044213294983
150,33547,33543,0.0017001521773636341,-0.018142685294151306,0.9796148538589478,-5.638044357299805,-5.964499473571777,-2.611377716064453,1.776341438293457,3.8807151317596436,0.3150389492511749,0.6900315880775452,0.2889523208141327,1.6658238172531128
151,33557,33553,-0.026663636788725853,0.04061545804142952,1.0129207372665405,-6.499562740325928,-4.101127624511719,-2.1811890602111816,1.7777481079101562,3.8814101219177246,0.3158186972141266,0.6739462614059448,0.24348707497119904,1.6662259101867676
152,33567,33563,-0.08597186207771301,0.06633520871400833,1.0582939386367798,-5.056801795959473,-1.544568419456482,-1.555531620979309,1.7787086963653564,3.881671190261841,0.315982460975647,0.6969279646873474,0.22687934339046478,1.6364212036132812
153,33577,33573,-0.08835406601428986,0.06818161904811859,1.0800641775131226,-0.7942540645599365,2.6283411979675293,-0.002303278772160411,1.7801388502120972,3.8806185722351074,0.316169798374176,0.6737004518508911,0.23647408187389374,1.6055281162261963
154,33587,33583,-0.0005335390451364219,-0.08210583031177521,1.001572608947754,0.8910062909126282,2.136552095413208,0.9696773886680603,1.7819892168045044,3.879690408706665,0.3163796365261078,0.7656739354133606,0.209726944565773,1.601987600326538
155,33597,33593,-0.011436567641794682,0.14115159213542938,0.9659458994865417,0.13199609518051147,0.27453139424324036,1.638365387916565,1.781907081604004,3.8800644874572754,0.312412828207016,0.8424475193023682,0.20606935024261475,1.6194202899932861
156,33607,33603,0.03422805294394493,0.1675506830215454,0.9086782336235046,1.707701563835144,-5.342083930969238,3.0473203659057617,1.7826979160308838,3.880356788635254,0.31252729892730713,0.8647593855857849,0.28434205055236816,1.6236560344696045
157,33617,33613,-0.03762833774089813,0.051842089742422104,1.0171657800674438,0.28296566009521484,2.03444504737854,4.121840000152588,1.7832812070846558,3.879969358444214,0.3125474154949188,0.7797229886054993,0.28744733333587646,1.6385926008224487
158,33627,33623,0.010922987014055252,-0.06426196545362473,0.9807403087615967,-0.29336002469062805,-1.7212105989456177,4.756839752197266,1.7853610515594482,3.8791937828063965,0.3126348555088043,0.908839225769043,0.35605064034461975,1.6668750047683716
159,33637,33633,0.09357091039419174,-0.12769928574562073,0.9850183725357056,-3.2993643283843994,2.6482176780700684,5.176438331604004,1.785928726196289,3.8786070346832275,0.31266409158706665,0.8006438612937927,0.28391560912132263,1.7697683572769165
160,33647,33643,0.06333655118942261,-0.19334159791469574,0.9867673516273499,-7.34092903137207,7.151828765869141,4.919493198394775,1.7869703769683838,3.878967523574829,0.31263095140457153,0.8486954569816589,0.2937861979007721,1.7694870233535767
161,33657,33653,0.03496270999312401,0.04517296701669693,0.9736471772193909,-11.759151458740234,11.085433959960938,4.481337547302246,1.787937045097351,3.8785154819488525,0.3130784332752228,0.8074154853820801,0.21388573944568634,1.8262183666229248
162,33667,33663,-0.002787606790661812,0.0356709249317646,0.9851475954055786,-15.793607711791992,8.807098388671875,4.74044132232666,1.7887585163116455,3.878645420074463,0.3130366802215576,0.7049821615219116,-0.15403816103935242,1.9498865604400635
163,33677,33673,0.07385335117578506,-0.0886014997959137,1.0120347738265991,-14.72200870513916,5.318867206573486,3.650576591491699,1.7885326147079468,3.8795692920684814,0.313035249710083,0.7302390336990356,-0.040234118700027466,1.925955891609192
164,33687,33683,0.037718359380960464,-0.11464709043502808,1.0293880701065063,-10.290664672851562,4.302192211151123,2.4600436687469482,1.7893675565719604,3.8780317306518555,0.3130243122577667,0.6938873529434204,-0.14251592755317688,1.9542986154556274
165,33697,33693,0.01723281294107437,-0.1718789041042328,0.996223509311676,-5.819012641906738,4.884644985198975,2.505298376083374,1.7897530794143677,3.878004312515259,0.3137012720108032,0.6730677485466003,-0.3371153771877289,2.009852170944214
166,33707,33703,-0.004145714920014143,-0.11927872896194458,0.985305905342102,-2.053818464279175,7.2074689865112305,2.0495083332061768,1.7903313636779785,3.8783373832702637,0.31373339891433716,0.6321033239364624,-0.4398432970046997,2.0401880741119385
167,33717,33713,0.018766144290566444,-0.06923387199640274,0.9741289615631104,-3.635023593902588,10.629631996154785,2.0911240577697754,1.7909411191940308,3.8790886402130127,0.3137637972831726,0.46987420320510864,-0.505559504032135,2.0606884956359863
168,33727,33723,0.08190637826919556,-0.10944699496030807,0.9885112643241882,-5.493393898010254,10.393792152404785,1.726258397102356,1.7917139530181885,3.878643035888672,0.3148638606071472,0.36176425218582153,-0.5085521340370178,2.0762243270874023
169,33737,33733,0.08977226167917252,-0.18184268474578857,1.043521523475647,-10.719759941101074,6.207491397857666,0.8292026519775391,1.7930667400360107,3.878347158432007,0.31494197249412537,0.35242733359336853,-0.4146627187728882,2.073326349258423
170,33747,33743,0.060550324618816376,-0.12127052992582321,0.9771272540092468,-16.087963104248047,1.687017798423767,-0.7657877802848816,1.7928786277770996,3.877016305923462,0.31511998176574707,0.3289772570133209,-0.5639649033546448,2.0951082706451416
171,33757,33753,-0.01515217311680317,0.048395007848739624,1.0241448879241943,-17.279743194580078,-0.23281225562095642,-1.764822244644165,1.7937159538269043,3.8767900466918945,0.31480205059051514,0.3499166965484619,-0.7723361253738403,2.0913212299346924
172,33767,33763,-0.03732631355524063,0.02721516415476799,1.0417799949645996,-14.813033103942871,-2.9458582401275635,-2.677457571029663,1.7934988737106323,3.8774142265319824,0.3148665428161621,0.33551400899887085,-0.7517116069793701,2.0426275730133057
173,33777,33773,0.05935419350862503,-0.025706365704536438,0.9846475124359131,-7.073319911956787,5.031153678894043,-4.100944995880127,1.7947673797607422,3.875270128250122,0.31501930952072144,0.3636564314365387,-0.9824498891830444,2.033094644546509
174,33787,33783,0.16816607117652893,0.0777430310845375,0.9058141112327576,3.345064401626587,13.579240798950195,-5.566189765930176,1.7953110933303833,3.8763010501861572,0.312343567609787,0.19766946136951447,-1.0676751136779785,2.0000483989715576
175,33797,33793,0.09185832738876343,0.0008300072513520718,0.9354945421218872,11.102785110473633,17.370317459106445,-6.668151378631592,1.7970142364501953,3.8755671977996826,0.3121509253978729,0.1585322767496109,-0.9966201782226562,1.9226285219192505
176,33807,33803,0.015622273087501526,-0.09285420179367065,1.007237195968628,14.659529685974121,16.299510955810547,-7.288297653198242,1.7977573871612549,3.8746156692504883,0.3120518922805786,-0.07524485141038895,-0.8969948291778564,1.8610334396362305
177,33817,33813,-0.00986400805413723,-0.015077345073223114,1.012513518333435,12.185149192810059,14.104491233825684,-8.44660758972168,1.7979658842086792,3.874264717102051,0.3118191659450531,-0.13746993243694305,-0.6959179043769836,1.7707850933074951
178,33827,33823,-0.04525282233953476,0.03976723551750183,1.0357792377471924,5.863468647003174,11.025596618652344,-8.691468238830566,1.7982048988342285,3.873307466506958,0.31385236978530884,-0.240758016705513,-0.6297653317451477,1.69725501537323
179,33837,33833,0.023289291188120842,0.021357299759984016,0.9785270094871521,-2.7664992809295654,2.982769727706909,-9.621017456054688,1.79826819896698,3.8741707801818848,0.3138418197631836,-0.2641129493713379,-0.6719032526016235,1.6068159341812134
180,33847,33843,0.019751254469156265,0.10577592998743057,0.9980030655860901,-9.460721969604492,-3.1117186546325684,-10.507478713989258,1.79851496219635,3.874910593032837,0.3138924539089203,-0.35239267349243164,-0.7543044686317444,1.5123379230499268
181,33857,33853,-0.0231692623347044,0.09589794278144836,1.0503112077713013,-13.51159381866455,-7.846524238586426,-11.591182708740234,1.7990636825561523,3.875309467315674,0.313162237405777,-0.2501910626888275,-0.8524442315101624,1.4020930528640747
182,33867,33863,0.006743679288774729,-0.05196724459528923,0.9837160706520081,-13.924848556518555,-8.647407531738281,-11.709135055541992,1.7986849546432495,3.875596046447754,0.31311920285224915,-0.1726798564195633,-0.9192588925361633,1.2873196601867676
183,33877,33873,-0.006328926421701908,-0.1536596566438675,1.0420986413955688,-9.429960250854492,-6.370960235595703,-11.315875053405762,1.7978320121765137,3.875037431716919,0.31305891275405884,-0.25020959973335266,-1.1228420734405518,1.192804217338562
184,33887,33883,0.01524276565760374,-0.21607354283332825,1.0400173664093018,-1.6943845748901367,-0.2520201802253723,-10.338176727294922,1.8000996112823486,3.8756508827209473,0.31160762906074524,-0.13673928380012512,-1.1464029550552368,1.0725599527359009
185,33897,33893,0.01212414912879467,-0.15094317495822906,1.0693786144256592,5.0252556800842285,6.13631534576416,-10.372366905212402,1.800076961517334,3.8749659061431885,0.31158995628356934,-0.20824168622493744,-1.1323615312576294,0.9758240580558777
186,33907,33903,0.017005080357193947,-0.08593829721212387,1.046964406967163,10.061530113220215,10.543841361999512,-9.841107368469238,1.8012980222702026,3.8743202686309814,0.31156453490257263,-0.13287761807441711,-1.0174534320831299,0.8525586724281311
187,33917,33913,-0.03086213767528534,-0.03809325769543648,1.058061122894287,12.600666999816895,10.009330749511719,-8.832282066345215,1.7998517751693726,3.8734216690063477,0.3117496967315674,-0.2772892415523529,-0.9158473014831543,0.7567958831787109
188,33927,33923,0.010182572528719902,-0.023869749158620834,1.0100681781768799,12.27863883972168,9.865900993347168,-8.542121887207031,1.8009519577026367,3.873412609100342,0.31015050411224365,-0.33841589093208313,-0.7897641062736511,0.6598806977272034
189,33937,33933,-0.07355079799890518,-0.08989806473255157,1.0508978366851807,8.265387535095215,6.792599678039551,-8.673099517822266,1.8011696338653564,3.872720241546631,0.31024864315986633,-0.4452296197414398,-0.767662525177002,0.5701540112495422
190,33947,33943,-0.10434184223413467,-0.10368365794420242,1.0873953104019165,2.9966371059417725,4.61121940612793,-9.091259002685547,1.801200270652771,3.873659372329712,0.31034231185913086,-0.5073137879371643,-0.6495671272277832,0.48294582962989807
191,33957,33953,-0.0943533182144165,-0.15557250380516052,1.079967975616455,-1.4227062463760376,5.425675392150879,-9.484723091125488,1.801096796989441,3.873347759246826,0.30862051248550415,-0.5478630661964417,-0.6144605875015259,0.39275044202804565
192,33967,33963,0.012051079422235489,-0.07367534190416336,0.9967504739761353,-3.3454203605651855,4.570662021636963,-9.855042457580566,1.8014037609100342,3.873427629470825,0.30872321128845215,-0.5834856629371643,-0.7936897277832031,0.2958623468875885
193,33977,33973,-0.024093737825751305,-0.10007677227258682,1.0669910907745361,-5.120275020599365,2.9569921493530273,-10.153964042663574,1.8014111518859863,3.8752169609069824,0.30888086557388306,-0.6079992651939392,-0.7538448572158813,0.19528551399707794
194,33987,33983,-0.004040839150547981,-0.01646512560546398,1.0353471040725708,-1.8305444717407227,5.890465259552002,-9.786230087280273,1.8009870052337646,3.8746612071990967,0.3090887665748596,-0.6309168934822083,-0.8008114099502563,0.08760552108287811
195,33997,33993,-0.0006856864201836288,-0.021776124835014343,0.9992104768753052,4.255705833435059,7.398176193237305,-9.334169387817383,1.801393747329712,3.874408483505249,0.30932357907295227,-0.6973264217376709,-0.8575534224510193,-0.011980102397501469
196,34007,34003,0.007276733405888081,0.022840730845928192,1.0383645296096802,9.679644584655762,8.837299346923828,-8.171390533447266,1.8018853664398193,3.874904155731201,0.30955877900123596,-0.7842930555343628,-0.7314327359199524,-0.10134007036685944
197,34017,34013,-0.0016907601384446025,-0.04395044222474098,0.9881026744842529,15.982575416564941,9.450084686279297,-5.886775016784668,1.8026323318481445,3.874415159225464,0.30984175205230713,-0.8901826739311218,-0.5138318538665771,-0.1759997457265854
198,34027,34023,0.021471597254276276,-0.022110866382718086,1.0005930662155151,18.710006713867188,9.886894226074219,-4.576992988586426,1.8035370111465454,3.873230457305908,0.31091219186782837,-1.0061547756195068,-0.5388314723968506,-0.24501194059848785
199,34037,34033,0.012387613765895367,-0.02250577323138714,0.9931597709655762,18.67707061767578,9.708595275878906,-3.0637574195861816,1.8048616647720337,3.8751754760742188,0.31121817231178284,-1.0414609909057617,-0.27583253383636475,-0.29784271121025085
200,34047,34043,-0.034598562866449356,0.0559130534529686,1.000502347946167,16.169530868530273,9.795936584472656,-1.8115205764770508,1.8057721853256226,3.873769998550415,0.311615526676178,-1.1583598852157593,-0.2688862085342407,-0.35014107823371887
201,34057,34053,-0.03633449226617813,0.04472249001264572,0.997852087020874,10.93199348449707,8.287095069885254,-0.7832813858985901,1.8063734769821167,3.875520944595337,0.31171733140945435,-1.2595863342285156,0.012393412180244923,-0.36295920610427856
202,34067,34063,0.0067971572279930115,-0.0313931442797184,0.9698687195777893,10.03615665435791,6.817726135253906,-0.28816235065460205,1.806272029876709,3.875519037246704,0.3120761215686798,-1.3412694931030273,0.1472128927707672,-0.3590742349624634
203,34077,34073,-0.0032051405869424343,0.06835829466581345,0.9547820687294006,9.277144432067871,6.435949325561523,-0.07350126653909683,1.8073289394378662,3.875563383102417,0.31237804889678955,-1.5620659589767456,0.023575197905302048,-0.38355752825737
204,34087,34083,-0.02739018015563488,0.05968499928712845,0.9980814456939697,9.142971992492676,3.6125941276550293,0.3022860586643219,1.8086518049240112,3.8778645992279053,0.3126717805862427,-1.583581566810608,0.14915934205055237,-0.38311120867729187
205,34097,34093,-0.006721749436110258,0.03441614657640457,1.0013424158096313,9.52293872833252,4.472166538238525,0.9374332427978516,1.8095234632492065,3.878455400466919,0.31299182772636414,-1.5836154222488403,0.27275028824806213,-0.36624234914779663
206,34107,34103,0.03993577882647514,-0.12460874021053314,0.9382664561271667,11.805479049682617,2.386950731277466,1.5655039548873901,1.810299038887024,3.8786940574645996,0.31332576274871826,-1.6528035402297974,0.33513063192367554,-0.3563448190689087
207,34117,34113,0.06158432364463806,-0.14588937163352966,0.937982976436615,14.965055465698242,-4.211807727813721,1.7283657789230347,1.811226725578308,3.879647731781006,0.31361767649650574,-1.655725359916687,0.5204241275787354,-0.340740442276001
208,34127,34123,-0.12659169733524323,0.06483376771211624,0.9840753078460693,13.936529159545898,-3.2716598510742188,1.9985315799713135,1.811848759651184,3.8792970180511475,0.3138253390789032,-1.605900526046753,0.7202616333961487,-0.3057563602924347
209,34137,34133,-0.04324882850050926,0.06622084230184555,0.962533175945282,11.119831085205078,-3.8679747581481934,2.332310199737549,1.8121129274368286,3.879215717315674,0.3139924705028534,-1.6943931579589844,0.6591629981994629,-0.33215421438217163
210,34147,34143,0.0031758006662130356,0.07338548451662064,0.9366568922996521,5.692089080810547,-3.9837470054626465,2.866274356842041,1.814967155456543,3.881507635116577,0.3140600919723511,-1.542517066001892,0.8625878095626831,-0.2867565453052521
211,34157,34153,0.026975225657224655,0.0038325630594044924,0.9551776647567749,2.8076629638671875,-4.66462516784668,2.0197300910949707,1.8146984577178955,3.881070137023926,0.3127923607826233,-1.4778457880020142,0.9864280223846436,-0.24887606501579285
212,34167,34163,-0.011385675519704819,0.0024704227689653635,1.0013281106948853,-0.3029695451259613,-3.574967861175537,1.4870513677597046,1.8152902126312256,3.881347894668579,0.31275734305381775,-1.6350512504577637,0.9711295962333679,-0.24567767977714539
213,34177,34173,0.017895609140396118,-0.0395364984869957,0.9600680470466614,-2.0209081172943115,-1.290122628211975,1.1730479001998901,1.8181930780410767,3.8820858001708984,0.3124682903289795,-1.4836385250091553,0.9916827082633972,-0.21613410115242004
214,34187,34183,-0.006550920195877552,-0.06797101348638535,0.9905775785446167,-2.1630971431732178,-1.7446458339691162,1.0700849294662476,1.8173257112503052,3.882066249847412,0.31430143117904663,-1.509787678718567,0.9851744771003723,-0.20692390203475952
215,34197,34193,0.020504573360085487,-0.09718386083841324,0.9668949246406555,-1.0900639295578003,-3.1926233768463135,1.301448941230774,1.818701148033142,3.8821563720703125,0.3142114579677582,-1.5973522663116455,0.9022428393363953,-0.22175756096839905
216,34207,34203,0.00019759242422878742,-0.03686372935771942,1.0020395517349243,-1.8975337743759155,-4.621605396270752,0.5559963583946228,1.8207463026046753,3.8828365802764893,0.3140449523925781,-1.4207504987716675,0.906583309173584,-0.19430410861968994
217,34217,34213,0.015838980674743652,-0.02748701721429825,0.9813777208328247,0.0022534197196364403,-7.137027740478516,0.9286048412322998,1.8206007480621338,3.8830583095550537,0.3158040940761566,-1.3093397617340088,0.9146234393119812,-0.17222286760807037
218,34227,34223,-0.015604671090841293,-0.018117448315024376,0.9938644170761108,0.8746997117996216,-8.48803424835205,1.5113568305969238,1.8205664157867432,3.883479595184326,0.3158927857875824,-1.3924155235290527,0.941200852394104,-0.16981033980846405
219,34237,34233,0.00754663348197937,-0.03747151792049408,0.9957675337791443,1.8531302213668823,-8.594823837280273,1.9391710758209229,1.8227331638336182,3.883298873901367,0.31580254435539246,-1.2081090211868286,0.9831111431121826,-0.140675351023674
220,34247,34243,-0.02841338701546192,-0.06852630525827408,1.0341211557388306,2.5802273750305176,-10.244815826416016,2.175568103790283,1.8228505849838257,3.882831573486328,0.31594738364219666,-1.2430962324142456,1.0348315238952637,-0.1365593671798706
221,34257,34253,-0.03768392652273178,-0.051576271653175354,0.9985842704772949,1.0229021310806274,-10.276815414428711,2.2463808059692383,1.8253246545791626,3.8822808265686035,0.31515583395957947,-1.2559324502944946,1.0735957622528076,-0.11797329038381577
222,34267,34263,0.014917557127773762,-0.015901487320661545,0.9916717410087585,-2.591027021408081,-8.178544998168945,2.8447065353393555,1.826296091079712,3.8829572200775146,0.3150281310081482,-1.1159021854400635,1.0748655796051025,-0.09203215688467026
223,34277,34273,-0.01637665554881096,-0.01918177679181099,1.0088438987731934,-6.599994659423828,-7.704237461090088,3.130183219909668,1.827755093574524,3.8831162452697754,0.3150746822357178,-1.1478148698806763,1.0932906866073608,-0.07982878386974335
224,34287,34283,0.008693212643265724,-0.014509226195514202,0.988394558429718,-8.640656471252441,-8.168035507202148,3.6182639598846436,1.8302496671676636,3.8827402591705322,0.31347528100013733,-1.0203391313552856,0.9763193726539612,-0.044883646070957184
225,34297,34293,0.027771562337875366,-0.03877173736691475,0.9861764311790466,-10.298080444335938,-8.544330596923828,3.5638506412506104,1.8315538167953491,3.8836874961853027,0.31346359848976135,-0.7311659455299377,0.9020209908485413,0.027273526415228844
226,34307,34303,0.007862991653382778,-0.03225533291697502,0.9744649529457092,-10.712132453918457,-12.010229110717773,3.4915170669555664,1.8307673931121826,3.8835599422454834,0.3136223554611206,-0.9673822522163391,0.8031830191612244,-0.0004807135264854878
227,34317,34313,-0.004458910785615444,-0.07936529070138931,1.0086196660995483,-8.00680923461914,-10.702849388122559,3.6877834796905518,1.8352185487747192,3.8833370208740234,0.3120456337928772,-0.6981579661369324,0.7176413536071777,0.06794462352991104
228,34327,34323,0.06842297315597534,0.07383014261722565,0.9390049576759338,-6.096001148223877,-5.877655982971191,4.130082607269287,1.8334482908248901,3.8819289207458496,0.3119664490222931,-0.47339287400245667,0.731276273727417,0.12186429649591446
229,34337,34333,0.04658670350909233,0.05809476599097252,0.9554013609886169,-4.529026508331299,-8.714158058166504,4.171424388885498,1.8339226245880127,3.882277488708496,0.31188076734542847,-0.5308250188827515,0.6968289613723755,0.1670166701078415
230,34347,34343,-0.019063184037804604,0.01920306496322155,1.0360321998596191,-4.693233013153076,-7.842259883880615,4.593932151794434,1.8347030878067017,3.8834986686706543,0.311469703912735,-0.3949444591999054,0.6000424027442932,0.27362287044525146
231,34357,34353,-6.222492083907127e-05,0.007962959818542004,1.025423526763916,-4.101438999176025,-8.58282470703125,4.490196704864502,1.8351268768310547,3.8845810890197754,0.3118349611759186,-0.4152686893939972,0.5863251686096191,0.30962109565734863
232,34367,34363,-0.06372078508138657,0.07476947456598282,1.042850136756897,-5.652628421783447,-8.264761924743652,4.587707042694092,1.837538480758667,3.883908748626709,0.3115749657154083,-0.42366185784339905,0.4863871932029724,0.3331265449523926
233,34377,34373,-0.07034841179847717,0.08483003079891205,0.975074291229248,-8.453917503356934,-8.41174602508545,5.691288948059082,1.840457797050476,3.8838846683502197,0.3113131821155548,-0.4223307967185974,0.5824838876724243,0.3067189157009125
234,34387,34383,-0.052585333585739136,-0.007563181221485138,1.019378662109375,-9.54882526397705,-8.170947074890137,5.452764987945557,1.8437529802322388,3.881209135055542,0.30889376997947693,-0.11272145807743073,0.47702455520629883,0.4149096608161926
235,34397,34393,0.023816464468836784,-0.03903723135590553,0.998371422290802,-8.573942184448242,-8.850707054138184,5.842309474945068,1.8431317806243896,3.8807554244995117,0.3089293837547302,0.024325700476765633,0.3683258891105652,0.4645804762840271
236,34407,34403,-0.007511305622756481,-0.02666396088898182,0.9911205768585205,-9.7549409866333,-11.38068675994873,5.282861709594727,1.8440251350402832,3.880599021911621,0.3086998462677002,-0.046715982258319855,0.25719326734542847,0.4812167286872864
237,34417,34413,-0.011516059748828411,-0.04015074297785759,1.0307822227478027,-10.136816024780273,-8.123908042907715,5.266749382019043,1.8476488590240479,3.879798412322998,0.3105089068412781,0.04999547824263573,0.28630197048187256,0.5321508049964905
238,34427,34423,0.021007314324378967,-0.04829029738903046,0.968050479888916,-8.040234565734863,-5.239591598510742,5.5485124588012695,1.8493996858596802,3.877641439437866,0.3103257119655609,0.10475456714630127,0.09016848355531693,0.5664059519767761
239,34437,34433,0.025708284229040146,0.05783946067094803,1.0097264051437378,-4.648534297943115,-6.007215976715088,6.1218767166137695,1.8510063886642456,3.878110408782959,0.31018751859664917,0.20524859428405762,0.09536504000425339,0.6253750324249268
240,34447,34443,0.0313839465379715,-0.008398118428885937,1.0065817832946777,-2.769824981689453,-8.426400184631348,6.0280680656433105,1.8528556823730469,3.8762197494506836,0.3121611773967743,0.1812908798456192,-0.012450543232262135,0.6638815999031067
241,34457,34453,0.04162829741835594,-0.038935042917728424,1.0326528549194336,-0.27055561542510986,-9.799849510192871,6.385680198669434,1.8547492027282715,3.876711368560791,0.31209418177604675,0.33947956562042236,-0.08064179867506027,0.7275347113609314
242,34467,34463,0.021035633981227875,-0.06344780325889587,1.0230387449264526,1.0296378135681152,-12.382880210876465,6.549590110778809,1.8557745218276978,3.876260280609131,0.31220313906669617,0.5929673314094543,-0.1103842630982399,0.8122275471687317
243,34477,34473,-0.011387973092496395,0.01854182966053486,1.0304099321365356,1.8565226793289185,-13.95142650604248,6.049485683441162,1.8555247783660889,3.8766186237335205,0.3124496042728424,0.7095090746879578,-0.10152985155582428,0.8898836970329285
244,34487,34483,0.013444301672279835,-0.025182265788316727,1.009179949760437,1.7150977849960327,-11.042466163635254,5.685863494873047,1.8582491874694824,3.876793146133423,0.3155115246772766,0.7738543152809143,-0.09858556091785431,0.9415502548217773
245,34497,34493,0.043607987463474274,-0.029317136853933334,0.9729734659194946,0.7439332008361816,-9.397300720214844,5.688288688659668,1.859592318534851,3.875131130218506,0.3157452642917633,1.077713131904602,0.012250295840203762,0.9935165047645569
246,34507,34503,0.020234914496541023,-0.031949423253536224,1.0135377645492554,-0.5689769387245178,-7.900424003601074,5.781893730163574,1.8589879274368286,3.875004291534424,0.31616711616516113,1.1729202270507812,0.019829170778393745,1.036065697669983
247,34517,34513,-0.00826585479080677,-0.035858020186424255,1.003391981124878,-3.654348611831665,-3.513516664505005,5.86865234375,1.8623682260513306,3.8746304512023926,0.31770581007003784,1.1392616033554077,-0.08586385846138,1.0914098024368286
248,34527,34523,-0.02488606795668602,-0.03079555183649063,1.0015679597854614,-6.789401054382324,0.7597972750663757,6.886908054351807,1.8635536432266235,3.8742308616638184,0.3181499242782593,1.1493868827819824,0.10292456299066544,1.1007359027862549
249,34537,34533,-0.12396861612796783,-0.03371470794081688,1.0793442726135254,-7.6473798751831055,3.4376468658447266,7.510263442993164,1.8650503158569336,3.871730327606201,0.31846415996551514,1.1030795574188232,-0.14270107448101044,1.2026320695877075
250,34547,34543,-0.13069017231464386,-0.026760553941130638,1.0266650915145874,-9.270590782165527,8.152271270751953,8.007611274719238,1.8668296337127686,3.872756242752075,0.3192995488643646,1.0041728019714355,-0.23764342069625854,1.2692551612854004
251,34557,34553,-0.0002336525940336287,-0.12947645783424377,0.9828715324401855,-11.296342849731445,9.757855415344238,8.165637016296387,1.8694202899932861,3.8727383613586426,0.31970345973968506,0.9263340830802917,-0.33047983050346375,1.3315609693527222
252,34567,34563,-0.006083909422159195,-0.06457437574863434,0.9790618419647217,-10.53339672088623,9.53458023071289,8.990689277648926,1.870877981185913,3.8714728355407715,0.3201557397842407,0.8254044651985168,-0.39858096837997437,1.4142932891845703
253,34577,34573,-0.02398082986474037,-0.055736590176820755,0.9861879348754883,-8.483458518981934,7.060179710388184,9.072257041931152,1.872720718383789,3.87245512008667,0.3206687569618225,0.7332921624183655,-0.6059954166412354,1.5187265872955322
254,34587,34583,0.0377022959291935,-0.06657537817955017,0.970486044883728,-5.71435022354126,5.376014709472656,8.341214179992676,1.873245358467102,3.8732006549835205,0.3198290467262268,0.7621698975563049,-0.6753291487693787,1.6107231378555298
255,34597,34593,-0.038882944732904434,0.09237667918205261,0.9641732573509216,-1.2436106204986572,2.189166307449341,8.363248825073242,1.8746792078018188,3.8718085289001465,0.32020726799964905,0.8117290735244751,-0.6166135668754578,1.6545825004577637
256,34607,34603,-0.027279814705252647,-0.005242855288088322,0.9929333329200745,1.578701376914978,-0.27193301916122437,8.660140037536621,1.8751267194747925,3.8705391883850098,0.3206482529640198,0.7990378737449646,-0.6313886046409607,1.6796270608901978
257,34617,34613,-0.007067273836582899,-0.0027721556834876537,0.9819243550300598,2.910689353942871,0.17380209267139435,9.17523193359375,1.8742424249649048,3.8685450553894043,0.31893190741539,0.9448638558387756,-0.6509930491447449,1.7562777996063232
258,34627,34623,-0.05663537606596947,0.04017804563045502,0.958333432674408,2.178224802017212,0.6614362001419067,8.879694938659668,1.874252438545227,3.867816686630249,0.3191727101802826,0.8834438920021057,-0.6379229426383972,1.8506170511245728
259,34637,34633,-0.008655278943479061,-0.005819410551339388,0.9560565948486328,0.15552030503749847,3.212312936782837,8.952791213989258,1.8752312660217285,3.8676276206970215,0.3193148374557495,0.8037062883377075,-0.6438513994216919,1.9510759115219116
260,34647,34643,0.01580258645117283,0.0269475094974041,0.9740635752677917,-2.4807045459747314,8.61875057220459,8.064093589782715,1.877323865890503,3.8675999641418457,0.3160603642463684,0.8112622499465942,-0.6857413649559021,2.044276475906372
261,34657,34653,0.07530239969491959,-0.036146774888038635,0.886403501033783,-3.893139123916626,10.333020210266113,7.335326671600342,1.8781930208206177,3.867449998855591,0.31596773862838745,0.7602553963661194,-0.6767274737358093,2.1026813983917236
262,34667,34663,0.09372879564762115,-0.07587108016014099,0.9066261053085327,-4.974871635437012,11.485686302185059,6.628925323486328,1.8789191246032715,3.8666300773620605,0.31575432419776917,0.5918694734573364,-0.7745412588119507,2.2338926792144775
263,34677,34673,0.04571713134646416,-0.08128055185079575,0.960570752620697,-4.963477611541748,10.90249252319336,6.066216945648193,1.880728006362915,3.8688485622406006,0.3154360055923462,0.42405933141708374,-0.8746675848960876,2.3131494522094727
264,34687,34683,-0.03122246265411377,-0.07794305682182312,0.9746107459068298,-2.0248196125030518,6.807453632354736,5.613348007202148,1.8818379640579224,3.868846893310547,0.3130452036857605,0.375142902135849,-0.7899113297462463,2.3372063636779785
265,34697,34693,-0.08821200579404831,-0.034564267843961716,0.9601765275001526,-0.22502006590366364,6.282349586486816,6.118406772613525,1.8825758695602417,3.8672919273376465,0.31264057755470276,0.31009435653686523,-0.8083850741386414,2.3907227516174316
266,34707,34703,0.01617584191262722,-0.04986783117055893,0.9527912735939026,1.1964738368988037,3.7090771198272705,5.844210624694824,1.8831290006637573,3.8671317100524902,0.312176913022995,0.28903940320014954,-0.7718570828437805,2.4515931606292725
267,34717,34713,0.004028247203677893,0.04025211185216904,1.021855115890503,2.959791898727417,1.9933198690414429,5.603049278259277,1.8843587636947632,3.866605758666992,0.3111189901828766,0.2338709682226181,-0.8441480994224548,2.5126259326934814
268,34727,34723,0.02024170011281967,-0.07967013865709305,0.9678235054016113,3.3629651069641113,1.103716254234314,5.28982400894165,1.8846688270568848,3.8671867847442627,0.3105471730232239,0.1418261080980301,-0.8811222910881042,2.587186574935913
269,34737,34733,-0.01580679789185524,-0.0757351741194725,0.9457390904426575,1.8554608821868896,0.4400084316730499,4.7606916427612305,1.8858132362365723,3.867795705795288,0.310494065284729,0.1302049309015274,-0.8478878140449524,2.6517248153686523
270,34747,34743,-0.05854080617427826,-0.01711907796561718,1.0546650886535645,0.8972806334495544,0.47517040371894836,4.742971897125244,1.8856302499771118,3.8673534393310547,0.3109572231769562,0.21988889575004578,-0.8232501149177551,2.6708714962005615
271,34757,34753,0.005275161471217871,-0.04200770705938339,1.0189242362976074,0.2698875665664673,3.461543321609497,4.63854455947876,1.886565923690796,3.8665928840637207,0.3103909194469452,0.17937113344669342,-0.7464466691017151,2.7222602367401123
272,34767,34763,-0.015065698884427547,-0.012554285116493702,1.01804518699646,-0.40852731466293335,4.84458065032959,4.219322204589844,1.8879247903823853,3.8666319847106934,0.3097866475582123,0.11243274062871933,-0.7598918080329895,2.76509428024292
273,34777,34773,-0.0012334631755948067,-0.05127363279461861,1.005163550376892,-1.2867692708969116,6.430330276489258,3.490690231323242,1.8892730474472046,3.8670172691345215,0.3092125952243805,0.05761774629354477,-0.7691484689712524,2.801025629043579
274,34787,34783,-0.037320949137210846,-0.21632088720798492,1.0470997095108032,1.6651190519332886,4.892806529998779,3.1351613998413086,1.8891410827636719,3.8675806522369385,0.3083069622516632,0.04500030353665352,-0.7766098976135254,2.8591599464416504
275,34797,34793,-0.05486481264233589,-0.10011444985866547,1.0611728429794312,3.686567783355713,4.198282241821289,3.132007122039795,1.8901221752166748,3.867473840713501,0.30777886509895325,0.04966597259044647,-0.7328158020973206,2.9045112133026123
276,34807,34803,0.02323184348642826,-0.10356976836919785,1.058805227279663,6.4188408851623535,3.415555953979492,2.0834367275238037,1.8907496929168701,3.867964267730713,0.30739209055900574,-0.015877265483140945,-0.7233200073242188,2.9376885890960693
277,34817,34813,0.025843007490038872,-0.15824398398399353,1.0331182479858398,7.28942346572876,2.3954696655273438,2.00486159324646,1.892006754875183,3.868964910507202,0.3112398684024811,-0.046597108244895935,-0.6543502807617188,2.976980209350586
278,34827,34823,0.023571636527776718,-0.13999298214912415,0.9739907383918762,6.552660942077637,4.273390293121338,3.214592456817627,1.8916125297546387,3.8693230152130127,0.31125137209892273,-0.11225060373544693,-0.5473496913909912,2.9383974075317383
279,34837,34833,0.11019840091466904,-0.20755136013031006,1.0737805366516113,6.2891669273376465,2.443176031112671,1.7145441770553589,1.8955754041671753,3.868771553039551,0.3111709952354431,-0.07314857840538025,-0.5158989429473877,3.0149948596954346
280,34847,34843,0.06282988935709,-0.04869407042860985,0.9925528764724731,5.480926036834717,4.2277445793151855,1.4406296014785767,1.8956331014633179,3.8692092895507812,0.3107987344264984,-0.21216973662376404,-0.492802232503891,3.0772244930267334
281,34857,34853,0.0003631786094047129,0.0466993972659111,1.0216339826583862,4.587765693664551,2.211073875427246,0.8846250176429749,1.8980340957641602,3.8708817958831787,0.3106968104839325,-0.2505640387535095,-0.44500237703323364,3.101245403289795
282,34867,34863,-0.03410959988832474,-0.010658481158316135,1.0320014953613281,3.64042329788208,1.2636616230010986,0.8132886290550232,1.8984473943710327,3.8702802658081055,0.3107765018939972,-0.18054410815238953,-0.3613974153995514,3.115306854248047
283,34877,34873,0.0461742989718914,-0.15216754376888275,1.026477575302124,2.8867392539978027,1.618685007095337,0.7933505177497864,1.901751160621643,3.8710756301879883,0.3126946985721588,-0.4218941330909729,-0.297603040933609,3.1480588912963867
284,34887,34883,0.08103825151920319,-0.0673883929848671,0.9501206278800964,2.5711989402770996,0.26429253816604614,-0.05858685448765755,1.9031832218170166,3.8715920448303223,0.31280872225761414,-0.4821731150150299,-0.24462294578552246,3.185908794403076
285,34897,34893,0.059451453387737274,-0.018753409385681152,1.025285005569458,1.0959264039993286,-1.7697871923446655,-0.2088775932788849,1.9026988744735718,3.8710076808929443,0.3132198452949524,-0.31193313002586365,-0.20956674218177795,3.1812760829925537
286,34907,34903,0.08419563621282578,-0.09444378316402435,0.9806395769119263,-0.8370140194892883,-2.39587140083313,-0.19417113065719604,1.9031425714492798,3.8720500469207764,0.3133968412876129,-0.2720213532447815,-0.21001143753528595,3.1869540214538574
287,34917,34913,0.06320580840110779,-0.08189286291599274,0.9288751482963562,-1.5543911457061768,-2.4220385551452637,-0.643894612789154,1.9051127433776855,3.87330961227417,0.31196796894073486,-0.2500787675380707,-0.37748292088508606,3.166045904159546
288,34927,34923,-0.007480248808860779,-0.01899394951760769,1.0073599815368652,-2.182981014251709,-2.1745448112487793,-0.00596931716427207,1.9052469730377197,3.8733606338500977,0.31207188963890076,-0.22895969450473785,-0.3988369405269623,3.147858142852783
289,34937,34933,0.10202313959598541,-0.1363963782787323,1.0853357315063477,0.05008818954229355,-0.9771494269371033,-0.2427540123462677,1.9058879613876343,3.8731751441955566,0.31211405992507935,-0.1658104658126831,-0.41132327914237976,3.154749870300293
290,34947,34943,0.05126393586397171,-0.08698288351297379,1.0545423030853271,4.344563007354736,-2.457733392715454,-0.3693096935749054,1.9074732065200806,3.873554229736328,0.30938345193862915,-0.24559928476810455,-0.3292189836502075,3.1587119102478027
291,34957,34953,0.017773263156414032,-0.100472092628479,1.0014283657073975,6.346919059753418,1.8688594102859497,-0.5219280123710632,1.9083982706069946,3.8734335899353027,0.3092939555644989,-0.2512367367744446,-0.2789328396320343,3.1648964881896973
292,34967,34963,0.03725190460681915,-0.14132928848266602,1.0268183946609497,8.446059226989746,-1.0252323150634766,-1.2175661325454712,1.909633755683899,3.873767375946045,0.30921927094459534,-0.3763560950756073,-0.23184731602668762,3.1612796783447266
293,34977,34973,0.037040721625089645,-0.08378216624259949,0.9743497967720032,7.445517063140869,-2.620232105255127,-1.1006393432617188,1.9110801219940186,3.874061346054077,0.3100890517234802,-0.3592432141304016,-0.1513066589832306,3.1495919227600098
294,34987,34983,0.019203241914510727,-0.01940511167049408,1.0010631084442139,8.383459091186523,-5.817920207977295,-0.5316315293312073,1.910951018333435,3.8735830783843994,0.3102972209453583,-0.1667024940252304,-0.005801417399197817,3.136953592300415
295,34997,34993,0.0925324559211731,-0.009320501238107681,0.9766987562179565,7.65995979309082,-8.11733627319336,-0.2823778986930847,1.9126306772232056,3.8748323917388916,0.3103012442588806,-0.181278258562088,-0.0941745787858963,3.1246047019958496
296,35007,35003,0.03177110478281975,0.04930569976568222,0.9479115009307861,7.1480183601379395,-9.962830543518066,0.09922836720943451,1.91378915309906,3.8757166862487793,0.310356080532074,0.08199876546859741,0.058142781257629395,3.1310019493103027
297,35017,35013,-0.03627968207001686,0.03672828897833824,1.0213770866394043,5.125912666320801,-10.310787200927734,0.5734374523162842,1.9134174585342407,3.875061273574829,0.3124748766422272,0.11873345077037811,0.021063731983304024,3.1591415405273438
298,35027,35023,0.014606606215238571,-0.01678883656859398,0.9882752299308777,4.076162338256836,-8.797901153564453,0.546463131904602,1.9159741401672363,3.877802610397339,0.31257885694503784,0.29956257343292236,0.12559622526168823,3.172886848449707
299,35037,35033,-0.027594152837991714,0.03914083167910576,1.001755714416504,2.015770435333252,-3.608743906021118,0.3831881284713745,1.9143050909042358,3.8796591758728027,0.3127533793449402,0.24479711055755615,0.19254644215106964,3.290996551513672
300,35047,35043,-0.01521780714392662,-0.015264375135302544,0.9935604333877563,1.2126460075378418,1.2844243049621582,0.12786369025707245,1.916704773902893,3.8801815509796143,0.31081491708755493,0.11427566409111023,0.23237356543540955,3.28267502784729
301,35057,35053,0.06685344129800797,-0.05554063990712166,0.9738041162490845,0.7901881337165833,5.567111968994141,0.8672194480895996,1.9190160036087036,3.879582405090332,0.31072720885276794,0.0595487616956234,0.2369222342967987,3.287626266479492
302,35067,35063,0.07063991576433182,-0.1634160876274109,1.032853364944458,0.8885672688484192,7.0423054695129395,1.3192204236984253,1.917281150817871,3.8797030448913574,0.31074461340904236,0.1250113695859909,0.20494824647903442,3.3279731273651123
303,35077,35073,0.038777969777584076,-0.10265640169382095,1.023101806640625,0.16166605055332184,8.404366493225098,1.0337697267532349,1.9179075956344604,3.88057541847229,0.3075109124183655,0.052216723561286926,0.21327966451644897,3.340052366256714
304,35087,35083,-0.025687266141176224,-0.02604977786540985,0.9795270562171936,1.2327195405960083,3.07717227935791,1.4394996166229248,1.91945219039917,3.881309986114502,0.30731093883514404,0.00408496567979455,0.2650875449180603,3.3867807388305664
305,35097,35093,-0.02892511710524559,-0.0032396300230175257,1.0051053762435913,0.45691952109336853,1.161651849746704,1.1197515726089478,1.9210280179977417,3.8816561698913574,0.3071090281009674,-0.02186242863535881,0.27273738384246826,3.3929636478424072
306,35107,35103,-0.0038666159380227327,-0.1227051317691803,0.990604817867279,-0.1869906783103943,-1.0771887302398682,0.7673671245574951,1.9229243993759155,3.882481575012207,0.30680349469184875,-0.08022842556238174,0.2901689410209656,3.4387946128845215
307,35117,35113,-0.055079907178878784,0.0034372415393590927,1.0338962078094482,-1.4057282209396362,-2.264857769012451,0.5149877071380615,1.9227112531661987,3.883347272872925,0.30463898181915283,0.040475185960531235,0.22304506599903107,3.4541573524475098
308,35127,35123,-0.052490510046482086,0.11773181706666946,0.9688570499420166,-1.4950659275054932,-4.656993865966797,0.7905339002609253,1.9229918718338013,3.8833835124969482,0.3043109178543091,-0.008962562307715416,0.22538189589977264,3.460207223892212
309,35137,35133,-0.04031798988580704,0.06856901198625565,1.0270363092422485,-0.8315948247909546,-3.9349749088287354,1.0873868465423584,1.924292802810669,3.883575916290283,0.3039548397064209,0.020831536501646042,0.22441466152668,3.4785194396972656
310,35147,35143,0.01955137960612774,-0.03105892799794674,1.0005565881729126,-0.8189221620559692,-2.9932193756103516,0.3252439796924591,1.9258267879486084,3.883885145187378,0.30363279581069946,0.06540655344724655,0.21166245639324188,3.4786455631256104
311,35157,35153,-0.07949934154748917,0.2154250591993332,0.9413637518882751,-0.5918720960617065,0.8492296934127808,1.2248713970184326,1.9266523122787476,3.8844473361968994,0.3033726215362549,0.14079196751117706,0.21326223015785217,3.478097677230835
312,35167,35163,-0.07578078657388687,0.17675699293613434,0.9333277344703674,-1.3543026447296143,1.9763460159301758,1.6135166883468628,1.9281878471374512,3.883997917175293,0.3029707074165344,0.008156266994774342,0.21603070199489594,3.47694993019104
313,35177,35173,0.02334487996995449,-0.0038888580165803432,0.9283342957496643,-0.735806405544281,3.9938864707946777,1.8418951034545898,1.9298197031021118,3.884498357772827,0.3019885718822479,-0.019340792670845985,0.2001441866159439,3.505497455596924
314,35187,35183,0.02585812844336033,0.020283233374357224,0.9965451955795288,-0.8613497614860535,3.5675880908966064,1.6372883319854736,1.9300785064697266,3.884591817855835,0.3015912175178528,-0.03431909903883934,0.12997418642044067,3.5233209133148193
315,35197,35193,-0.005174195393919945,0.00125402444973588,1.028989553451538,-1.8505232334136963,4.903092861175537,1.2947781085968018,1.931272029876709,3.885598659515381,0.30103325843811035,-0.06464417278766632,0.12246812880039215,3.549241304397583
316,35207,35203,-0.006751555949449539,0.014739989303052425,1.067790150642395,-0.43823301792144775,-0.618298351764679,1.0935912132263184,1.9325681924819946,3.8860044479370117,0.29967206716537476,-0.1217668205499649,0.10184759646654129,3.604306936264038
317,35217,35213,-0.04543410241603851,0.10917742550373077,1.0374385118484497,0.377429723739624,-5.428561687469482,0.9725049734115601,1.9338350296020508,3.886814832687378,0.2991638779640198,-0.01229153387248516,0.124453604221344,3.6222684383392334
318,35227,35223,-0.00397082231938839,0.012999782338738441,1.009467363357544,0.17863012850284576,-8.196378707885742,0.8140129446983337,1.9334588050842285,3.8866994380950928,0.29892492294311523,0.04145839437842369,0.13176843523979187,3.6318652629852295
319,35237,35233,-0.021550679579377174,-0.057094112038612366,1.054877519607544,0.47383201122283936,-8.620450019836426,0.6250966787338257,1.9346333742141724,3.88830828666687,0.29851090908050537,0.12137888371944427,0.07459457218647003,3.6772422790527344
320,35247,35243,-0.0741511806845665,0.04802241921424866,1.0601502656936646,1.0948907136917114,-8.607962608337402,0.2649012506008148,1.935042142868042,3.8875808715820312,0.2986967861652374,0.2044021338224411,0.17389173805713654,3.6830456256866455
321,35257,35253,-0.03885957971215248,0.16610479354858398,1.069725513458252,-0.6397659182548523,-3.549424648284912,-0.3710959851741791,1.9361308813095093,3.8888630867004395,0.2983529269695282,0.21151652932167053,0.12180957198143005,3.7508912086486816
322,35267,35263,-0.009376841597259045,0.06932882219552994,1.076603889465332,-0.8793430328369141,0.27422770857810974,-1.097430944442749,1.936761736869812,3.8897368907928467,0.2982005178928375,0.17205925285816193,0.1370442807674408,3.7736806869506836
323,35277,35273,0.023568838834762573,-0.020095694810152054,1.062106966972351,-1.25322687625885,2.269644021987915,-1.2504608631134033,1.9392671585083008,3.8911123275756836,0.29796290397644043,0.17667479813098907,0.13242894411087036,3.791135549545288
324,35287,35283,-0.01062390673905611,0.08313436061143875,1.0699002742767334,-1.9114437103271484,5.040287494659424,-1.9494835138320923,1.9390628337860107,3.893010139465332,0.2979523837566376,0.24431584775447845,0.11794477701187134,3.864191770553589
325,35297,35293,0.012273279018700123,0.09474742412567139,1.0795825719833374,-3.4595019817352295,4.674491882324219,-2.8212203979492188,1.9403605461120605,3.8932044506073,0.2978992462158203,0.10819229483604431,0.09510865062475204,3.8348264694213867
326,35307,35303,-0.04131413623690605,0.09264513850212097,1.0014290809631348,-2.5316333770751953,2.6953535079956055,-3.106053352355957,1.9426389932632446,3.893435001373291,0.29997724294662476,-0.005291472189128399,0.05560644716024399,3.802701950073242
327,35317,35313,-0.09042317420244217,0.11652223020792007,1.0353891849517822,-2.4656264781951904,1.2167906761169434,-3.0662314891815186,1.9427893161773682,3.8934459686279297,0.3003018796443939,0.06701112538576126,0.02353784628212452,3.767380475997925
328,35327,35323,-0.046771664172410965,0.08581548929214478,1.0834484100341797,-0.8978144526481628,-2.2089641094207764,-2.5296335220336914,1.9422569274902344,3.8937313556671143,0.30074912309646606,0.1631963849067688,0.06977363675832748,3.800623893737793
329,35337,35333,-0.03334398940205574,0.10553890466690063,0.9841148853302002,-0.5401885509490967,-2.822547674179077,-2.5572903156280518,1.9455105066299438,3.8932101726531982,0.3010033369064331,0.07858793437480927,-0.010253923013806343,3.6801676750183105
330,35347,35343,-0.10383998602628708,0.1047184094786644,1.018751859664917,-0.6023395657539368,-2.6766469478607178,-1.699705958366394,1.9471559524536133,3.8934485912323,0.30096277594566345,0.08346932381391525,-0.004642719402909279,3.633105993270874
331,35357,35353,0.02284708060324192,-0.015620296820998192,0.984125554561615,0.6540721654891968,-2.4503490924835205,-1.7143317461013794,1.9466632604599,3.8951244354248047,0.3013167977333069,0.1747436821460724,0.0026696203276515007,3.72125506401062
332,35367,35363,0.0022835461422801018,0.0380973145365715,0.9833725690841675,0.2845504879951477,-1.6614503860473633,-2.1051666736602783,1.9478482007980347,3.895456075668335,0.3016586899757385,0.18184401094913483,0.028713513165712357,3.754992723464966
333,35377,35373,-0.030687611550092697,0.048170384019613266,1.0116132497787476,1.7864927053451538,-1.1611987352371216,-2.9841647148132324,1.947649598121643,3.8975324630737305,0.30188965797424316,0.3292279541492462,-0.018466753885149956,3.7669126987457275
334,35387,35383,0.019166745245456696,0.011293577961623669,0.943461000919342,2.304729461669922,-1.34151291847229,-3.0540928840637207,1.9490396976470947,3.8979413509368896,0.3021319508552551,0.18118877708911896,-0.013837733305990696,3.756014347076416
335,35397,35393,-0.02036229521036148,0.06083230674266815,1.0254050493240356,2.6209564208984375,-3.1635210514068604,-2.9439949989318848,1.9504027366638184,3.8986847400665283,0.30236226320266724,0.23679526150226593,0.12115933001041412,3.7058541774749756
336,35407,35403,-0.00801006518304348,0.03702658787369728,1.0310306549072266,2.603827476501465,-1.9212332963943481,-2.20236873626709,1.951178789138794,3.89760422706604,0.3049756586551666,0.26495519280433655,0.14417076110839844,3.713806629180908
337,35417,35413,-0.08365713059902191,0.20485351979732513,0.9649460911750793,1.149202585220337,-1.2683131694793701,-1.7400672435760498,1.9511466026306152,3.8981075286865234,0.30548951029777527,0.3333236575126648,0.049186915159225464,3.671980857849121
338,35427,35423,-0.0623287707567215,0.06753680855035782,0.9871114492416382,0.15916754305362701,-1.094433307647705,-1.6241899728775024,1.952203392982483,3.8990206718444824,0.3059207797050476,0.3450436592102051,0.06224648654460907,3.6525895595550537
339,35437,35433,-0.015242365188896656,-0.03339849039912224,0.9905675649642944,-3.009995460510254,1.200891375541687,-2.2278096675872803,1.9531344175338745,3.898967742919922,0.30729615688323975,0.2527192234992981,0.007880433462560177,3.6279044151306152
340,35447,35443,0.033930640667676926,-0.06265300512313843,0.9616289138793945,-3.9520061016082764,3.395756244659424,-2.1657958030700684,1.9555959701538086,3.8999953269958496,0.30766355991363525,0.32608360052108765,-0.020279660820961,3.609987497329712
341,35457,35453,0.027172423899173737,0.07205599546432495,0.9589023590087891,-3.510981321334839,4.408999919891357,-2.066009759902954,1.9556859731674194,3.9001522064208984,0.308174729347229,0.3657410144805908,0.02161966636776924,3.5866730213165283
342,35467,35463,0.04542303830385208,0.01836940459907055,0.9564977884292603,-0.543366014957428,3.2040255069732666,-1.5896570682525635,1.9561353921890259,3.899780035018921,0.30865949392318726,0.3169284462928772,-0.011506198905408382,3.566603422164917
343,35477,35473,-0.004821153823286295,-0.002586772432550788,1.003089189529419,1.9957586526870728,2.93192195892334,-0.9811009764671326,1.957703709602356,3.8998005390167236,0.30837005376815796,0.20357532799243927,0.0002739345654845238,3.544646739959717
344,35487,35483,-0.021196983754634857,0.08072344213724136,0.9384081363677979,2.631507635116577,1.3257464170455933,-0.36451396346092224,1.9578708410263062,3.899606227874756,0.30872640013694763,0.23955275118350983,0.04516494646668434,3.534128189086914
345,35497,35493,0.02904820255935192,0.11628221720457077,0.9397428035736084,2.138692617416382,0.31204572319984436,0.31637629866600037,1.959154725074768,3.900425672531128,0.30901557207107544,0.2037278115749359,0.09960927069187164,3.577411651611328
346,35507,35503,0.01609076000750065,0.0959051325917244,0.9328253269195557,-0.5025447010993958,-1.0229507684707642,0.32972317934036255,1.959238052368164,3.900618553161621,0.3089218735694885,0.27788636088371277,0.06343195587396622,3.5949769020080566
347,35517,35513,0.058090005069971085,-0.106641985476017,0.9576103091239929,-3.1476776599884033,-1.0090707540512085,0.5015944242477417,1.9594844579696655,3.9010748863220215,0.3089599311351776,0.22752095758914948,-0.0065107932314276695,3.5227408409118652
348,35527,35523,0.02745264209806919,0.06726396083831787,0.9773656725883484,-4.1769304275512695,-1.1789805889129639,0.4759669005870819,1.9596362113952637,3.902125597000122,0.3091108202934265,0.3195493519306183,-0.0399676077067852,3.61140775680542
349,35537,35533,0.08325404673814774,0.0327739492058754,0.9103772640228271,-3.1746273040771484,-2.0904111862182617,0.06477640569210052,1.9607330560684204,3.9019172191619873,0.309082955121994,0.202694833278656,-0.08143940567970276,3.659212589263916
350,35547,35543,0.05307440087199211,-0.1041731983423233,0.9494031667709351,-2.672191619873047,-1.0833379030227661,-0.5129877924919128,1.9614979028701782,3.9036829471588135,0.3090532422065735,0.218733549118042,-0.11391862481832504,3.6681666374206543
351,35557,35553,0.003567024366930127,-0.1609412431716919,1.0031718015670776,-0.3469585180282593,-1.3610152006149292,-0.7633251547813416,1.961914300918579,3.90339732170105,0.3090783953666687,0.3373708128929138,-0.13382306694984436,3.69032621383667
352,35567,35563,-0.050459444522857666,-0.0442017987370491,1.0504781007766724,1.1557352542877197,-0.6139014959335327,-0.9032464027404785,1.963300108909607,3.9045565128326416,0.309026300907135,0.3197065591812134,-0.10943742841482162,3.6574149131774902
353,35577,35573,-0.046922072768211365,0.11726993322372437,0.9775388836860657,1.2753666639328003,2.0910139083862305,-0.42060789465904236,1.9632465839385986,3.9047324657440186,0.30937331914901733,0.4261241555213928,-0.13608354330062866,3.713423728942871
354,35587,35583,-0.05892857536673546,0.04946114122867584,0.9696289896965027,-0.2584955096244812,3.5215342044830322,-1.0835100412368774,1.9627037048339844,3.90437388420105,0.30948376655578613,0.45471063256263733,-0.016228195279836655,3.6739163398742676
355,35597,35593,-0.04274487867951393,0.008319312706589699,1.0034620761871338,-2.4348204135894775,3.8677728176116943,-1.4536542892456055,1.9620400667190552,3.9054369926452637,0.30951783061027527,0.4709259271621704,-0.0844428613781929,3.687939167022705
356,35607,35603,-0.021109720692038536,0.012168800458312035,0.9373458623886108,-4.880228042602539,5.233590602874756,-2.474221706390381,1.9632498025894165,3.906167984008789,0.31100893020629883,0.348276287317276,-0.19049054384231567,3.7417728900909424
357,35617,35613,0.017171286046504974,-0.05239972472190857,1.0041835308074951,-5.6768059730529785,5.606576919555664,-3.413867712020874,1.9637746810913086,3.9089059829711914,0.31104254722595215,0.2531508505344391,-0.24078279733657837,3.7480220794677734
358,35627,35623,-0.027548398822546005,0.083095982670784,1.063485026359558,-2.3597702980041504,4.238831996917725,-3.8919425010681152,1.965038776397705,3.9099369049072266,0.3110213577747345,0.23372890055179596,-0.2832981050014496,3.751595973968506
359,35637,35633,0.006859827786684036,0.06406346708536148,1.0621984004974365,1.4198020696640015,1.229817509651184,-4.091238975524902,1.9653033018112183,3.909703493118286,0.3117673397064209,0.18411560356616974,-0.3125856816768646,3.716604232788086
360,35647,35643,-5.9662022977136075e-05,0.01233511883765459,1.026638150215149,4.2776780128479,-2.584080457687378,-4.655050277709961,1.9671250581741333,3.909804105758667,0.3118458092212677,0.09647025913000107,-0.3558148443698883,3.6508967876434326
361,35657,35653,-0.031984079629182816,0.02322522923350334,0.991378128528595,6.1234002113342285,-6.660098075866699,-4.973520755767822,1.9677900075912476,3.911141872406006,0.31200093030929565,0.0839213952422142,-0.23299609124660492,3.640573501586914
362,35667,35663,0.0046681626699864864,-0.015958493575453758,0.9802939295768738,5.322414398193359,-10.858717918395996,-5.5276360511779785,1.9691178798675537,3.911651372909546,0.3121703565120697,0.1466870754957199,-0.18547984957695007,3.591965436935425
363,35677,35673,-0.10116726905107498,-0.010504517704248428,1.058051586151123,2.3749282360076904,-12.332396507263184,-6.999263286590576,1.9697327613830566,3.9117045402526855,0.3112001419067383,0.26801005005836487,-0.08298195898532867,3.5066113471984863
364,35687,35683,-0.003303834469988942,-0.15457721054553986,1.0304628610610962,-2.628478765487671,-12.804880142211914,-8.557785034179688,1.9708417654037476,3.9114484786987305,0.3113625943660736,0.46235308051109314,-0.2243756502866745,3.4748592376708984
365,35697,35693,0.02499278075993061,-0.0742180123925209,0.9999969601631165,-5.413659572601318,-12.048966407775879,-10.207785606384277,1.9694204330444336,3.9137189388275146,0.31155717372894287,0.5050408840179443,-0.250925213098526,3.375580310821533
366,35707,35703,0.04084412008523941,-0.06456308811903,0.9761741757392883,-4.521032333374023,-7.500888824462891,-11.454362869262695,1.9709547758102417,3.9145779609680176,0.310819536447525,0.7621650099754333,-0.2927128076553345,3.284655809402466
367,35717,35713,0.02717897854745388,0.005325930658727884,1.001746416091919,-2.0178072452545166,-0.70313560962677,-11.983040809631348,1.9701931476593018,3.9145734310150146,0.31086257100105286,0.8084287643432617,-0.3110671937465668,3.155397415161133
368,35727,35723,0.03476976603269577,-0.007001845631748438,1.0364140272140503,3.3761229515075684,4.094331741333008,-12.326465606689453,1.970687747001648,3.9152581691741943,0.3109859824180603,0.6842273473739624,-0.24376899003982544,3.056598424911499
369,35737,35733,0.03309887275099754,0.006990790367126465,0.964648962020874,6.87745475769043,10.702308654785156,-13.381526947021484,1.972700595855713,3.9152450561523438,0.3117234408855438,0.61948561668396,-0.18060271441936493,2.9479944705963135
370,35747,35743,-0.013845999725162983,0.0007632520864717662,0.9590998888015747,7.966602802276611,14.744017601013184,-14.480057716369629,1.9732598066329956,3.916806936264038,0.3118719458580017,0.5393401980400085,-0.09081529080867767,2.8493270874023438
371,35757,35753,-0.017718765884637833,0.005178098566830158,0.9830560684204102,6.5978102684021,15.255891799926758,-15.88245964050293,1.973554015159607,3.9178597927093506,0.3120580017566681,0.4230080246925354,-0.08941725641489029,2.736353635787964
372,35767,35763,0.006732387468218803,-0.06007522717118263,0.9787594079971313,4.9923505783081055,12.986350059509277,-16.882474899291992,1.9730772972106934,3.919670581817627,0.3121565580368042,0.250183641910553,0.05283435806632042,2.6168129444122314
373,35777,35773,0.031311336904764175,-0.09482169896364212,0.9285708665847778,1.8758561611175537,9.529794692993164,-16.463619232177734,1.9732245206832886,3.919220209121704,0.31223276257514954,0.1324322372674942,0.13726043701171875,2.4457249641418457
374,35787,35783,-0.014302575960755348,-0.02170410566031933,0.9776777625083923,2.688812732696533,7.571372032165527,-15.910155296325684,1.973668098449707,3.9193201065063477,0.31228139996528625,0.1290885955095291,0.050944048911333084,2.308415651321411
375,35797,35793,-0.04196004942059517,-0.10258957743644714,1.0177024602890015,2.6939287185668945,5.309935569763184,-15.249791145324707,1.9734452962875366,3.9205572605133057,0.31235745549201965,0.08168986439704895,0.07900349795818329,2.151689291000366
376,35807,35803,-0.01733502559363842,-0.07636436074972153,0.9809256792068481,5.097320556640625,5.710744380950928,-14.42662239074707,1.9739024639129639,3.9209115505218506,0.30871352553367615,0.04815404489636421,0.10003386437892914,1.992090106010437
377,35817,35813,-0.0061142840422689915,-0.0758741945028305,0.9906063675880432,9.35776424407959,6.865771293640137,-12.631282806396484,1.9747686386108398,3.9226365089416504,0.30849215388298035,0.019123494625091553,0.10199245810508728,1.883406162261963
378,35827,35823,0.0026244071777909994,-0.06448130309581757,1.0001473426818848,12.736401557922363,8.089133262634277,-10.476550102233887,1.9754692316055298,3.9216556549072266,0.308314710855484,-0.05614226311445236,0.33009111881256104,1.7411590814590454
379,35837,35833,0.01118115521967411,-0.05209442600607872,0.9741362929344177,13.63906478881836,7.53939151763916,-7.9021148681640625,1.974677562713623,3.921825885772705,0.30945661664009094,-0.0737440437078476,0.432741641998291,1.6271052360534668
380,35847,35843,0.008367807604372501,-0.0699237808585167,0.9528948068618774,9.893142700195312,7.183992385864258,-6.948570251464844,1.9751768112182617,3.92244291305542,0.30928874015808105,-0.16490286588668823,0.5330869555473328,1.619732141494751
381,35857,35853,-0.0012120865285396576,-0.03228875622153282,1.0015628337860107,1.442518949508667,5.481489658355713,-7.560216903686523,1.9748823642730713,3.9228434562683105,0.30917415022850037,-0.23928475379943848,0.7016878724098206,1.547659993171692
382,35867,35863,0.032008107751607895,0.011782510206103325,0.9942532777786255,-5.0880513191223145,6.974166393280029,-7.563815116882324,1.9744808673858643,3.9241204261779785,0.30936798453330994,-0.22328755259513855,0.559416651725769,1.4687716960906982
383,35877,35873,0.05687738582491875,0.12321209907531738,1.0248796939849854,-10.197867393493652,5.616964817047119,-9.198714256286621,1.9746243953704834,3.9243133068084717,0.30918455123901367,-0.313017338514328,0.48320138454437256,1.3779993057250977
384,35887,35883,0.009468534030020237,0.0018408139003440738,0.9850255846977234,-9.788350105285645,6.96433162689209,-10.299551963806152,1.973440170288086,3.9237418174743652,0.3089413642883301,-0.3786095976829529,0.34358733892440796,1.1615082025527954
385,35897,35893,-0.1395474523305893,-0.06137428432703018,1.0480475425720215,-6.067454814910889,9.859665870666504,-9.68101692199707,1.9741454124450684,3.923163652420044,0.308783620595932,-0.47240206599235535,0.24254798889160156,1.0947226285934448
386,35907,35903,-0.032112158834934235,-0.019119374454021454,0.9933058619499207,0.4482787251472473,11.989851951599121,-8.797310829162598,1.9740207195281982,3.9234611988067627,0.30880817770957947,-0.5263472199440002,0.21313920617103577,1.1083308458328247
387,35917,35913,-0.057281117886304855,-0.07611865550279617,1.0588247776031494,9.834880828857422,10.119207382202148,-9.224414825439453,1.9736027717590332,3.925591230392456,0.30862680077552795,-0.7534742951393127,0.3166659474372864,1.0026434659957886
388,35927,35923,-0.008736866526305676,-0.004887840710580349,1.0078972578048706,16.46082878112793,10.537284851074219,-8.735718727111816,1.9735764265060425,3.923877000808716,0.3085818886756897,-0.8389052152633667,0.5494709014892578,0.8736815452575684
389,35937,35933,-0.005783890374004841,-0.008891874924302101,0.9768887162208557,19.57570457458496,6.917777061462402,-8.746628761291504,1.9741079807281494,3.924436330795288,0.30898961424827576,-0.9620963335037231,0.7175881266593933,0.7745653390884399
390,35947,35943,0.025408228859305382,0.004306979943066835,0.9835096001625061,19.435684204101562,2.487983465194702,-8.873514175415039,1.9721347093582153,3.9252665042877197,0.30900880694389343,-0.9447575807571411,0.9997384548187256,0.8460847735404968
391,35957,35953,0.013185522519052029,0.00636205542832613,0.9754361510276794,17.2618350982666,-5.996400356292725,-8.999439239501953,1.9710981845855713,3.925607442855835,0.3090786337852478,-0.818789541721344,1.0988922119140625,0.6645715832710266
392,35967,35963,0.00039913225919008255,-0.031091853976249695,0.9907312393188477,9.432573318481445,-4.556548595428467,-7.687429428100586,1.9706830978393555,3.9253973960876465,0.31035754084587097,-0.6685582399368286,1.2224303483963013,0.582217276096344
393,35977,35973,0.0032830408308655024,-0.01121958252042532,1.0021358728408813,0.1738133430480957,1.6102403402328491,-6.637905597686768,1.9718526601791382,3.9250850677490234,0.31029677391052246,-0.8196795582771301,1.3612457513809204,0.5221261978149414
394,35987,35983,-0.0012253322638571262,-0.013359181582927704,1.010339617729187,-8.414654731750488,10.074697494506836,-6.536266803741455,1.9720344543457031,3.9269285202026367,0.31040194630622864,-0.8473612070083618,1.1742020845413208,0.38435786962509155
395,35997,35993,-0.023209812119603157,0.08985183387994766,0.9632602334022522,-12.034111976623535,16.95540428161621,-5.441309928894043,1.971381425857544,3.9258110523223877,0.31031081080436707,-1.008895754814148,1.0325921773910522,0.33980515599250793
396,36007,36003,-0.018915368244051933,0.10180433094501495,0.9531710743904114,-10.787430763244629,19.578447341918945,-4.4514241218566895,1.9722089767456055,3.925072431564331,0.31284141540527344,-1.277355432510376,0.9276232123374939,0.2307521402835846
397,36017,36013,0.021700099110603333,0.03492780774831772,0.9887813329696655,-5.7861785888671875,17.008699417114258,-3.765770196914673,1.9727863073349,3.9257290363311768,0.3129292130470276,-1.4697117805480957,0.786515474319458,0.15171237289905548
398,36027,36023,0.0025861295871436596,-0.1634974628686905,1.0080227851867676,0.8484222888946533,10.481498718261719,-3.7207725048065186,1.972063422203064,3.925438404083252,0.3130960166454315,-1.521895408630371,0.7434797883033752,0.12857964634895325
399,36037,36033,0.03129788488149643,-0.059105053544044495,0.9914971590042114,7.457569122314453,1.8802851438522339,-3.0859060287475586,1.9726420640945435,3.9254262447357178,0.3133987784385681,-1.6013290882110596,0.8201253414154053,0.09996075928211212
400,36047,36043,-0.05285961553454399,-0.027637895196676254,1.0371609926223755,10.614017486572266,-7.384799957275391,-1.8837772607803345,1.9732167720794678,3.9254729747772217,0.3134506642818451,-1.5922856330871582,0.9903878569602966,0.12059032917022705
401,36057,36053,-0.0333973728120327,-0.035535942763090134,1.0097929239273071,10.358774185180664,-14.358975410461426,-0.7738718390464783,1.9723920822143555,3.9246902465820312,0.313664048910141,-1.3689154386520386,1.1064196825027466,0.06746139377355576
402,36067,36063,-0.019348710775375366,0.16402582824230194,1.0106009244918823,8.263040542602539,-17.318628311157227,0.6621199250221252,1.9716172218322754,3.9243099689483643,0.3131954073905945,-1.1264128684997559,1.2794921398162842,0.09193837642669678
403,36077,36073,-0.024592898786067963,0.05798884481191635,1.0247466564178467,0.01932910829782486,-17.154863357543945,0.871234118938446,1.9730325937271118,3.92364239692688,0.31326568126678467,-1.1006104946136475,1.2302964925765991,0.0007557344506494701
404,36087,36083,-0.0268293097615242,-0.043756864964962006,1.0059494972229004,-8.453749656677246,-9.836426734924316,1.155352234840393,1.9736130237579346,3.9238970279693604,0.31338056921958923,-0.9567235112190247,1.180041790008545,-0.03439811244606972
405,36097,36093,-0.025746144354343414,-0.002341221086680889,1.0128122568130493,-9.961312294006348,-6.353625774383545,1.5644252300262451,1.9741359949111938,3.924154758453369,0.3133152723312378,-0.8896788358688354,0.9463484883308411,-0.03981899470090866
406,36107,36103,-0.06154865399003029,-0.02402881532907486,0.9964456558227539,-11.464966773986816,5.494029998779297,2.974196434020996,1.9739017486572266,3.9231631755828857,0.313383013010025,-0.9360178112983704,0.8633667230606079,-0.0894959345459938
407,36117,36113,-0.11639580875635147,0.021089212968945503,0.9916241765022278,-10.787132263183594,11.507702827453613,4.88083553314209,1.975185751914978,3.9229085445404053,0.3134714663028717,-1.0511200428009033,0.7714463472366333,-0.030812816694378853
408,36127,36123,-0.13532128930091858,0.12005264312028885,1.007368803024292,-9.986064910888672,10.449280738830566,5.352849960327148,1.9756704568862915,3.9231677055358887,0.31358224153518677,-1.149643063545227,0.604441225528717,0.0167440976947546
409,36137,36133,-0.021660512313246727,-0.06274691224098206,0.9892849326133728,-10.169343948364258,3.7413320541381836,5.274515151977539,1.9769989252090454,3.9233744144439697,0.31348735094070435,-1.2154821157455444,0.6060264110565186,0.1221415176987648
410,36147,36143,0.02396118827164173,-0.020697077736258507,1.0001164674758911,-10.206622123718262,-6.119410991668701,4.307065010070801,1.9765396118164062,3.9246890544891357,0.3135792911052704,-1.1407369375228882,0.4432203471660614,0.19990237057209015
411,36157,36153,0.00822043139487505,0.16164222359657288,1.0016846656799316,-6.958794593811035,-15.145180702209473,3.0148260593414307,1.9769762754440308,3.9240639209747314,0.31372952461242676,-0.9786722660064697,0.45049795508384705,0.2228417992591858
412,36167,36163,-0.05055883899331093,-0.005173819605261087,1.0116791725158691,-3.7745797634124756,-20.285825729370117,2.815382957458496,1.977455735206604,3.923900842666626,0.3135526776313782,-0.7569428086280823,0.35403090715408325,0.237883523106575
413,36177,36173,-0.048858433961868286,-0.21846745908260345,1.0171607732772827,-1.1270540952682495,-21.344018936157227,3.8695292472839355,1.9768624305725098,3.923682928085327,0.31372860074043274,-0.3878127336502075,0.38582760095596313,0.345077782869339
414,36187,36183,-0.07095938920974731,-0.073316290974617,1.0596131086349487,2.411585807800293,-16.11368751525879,3.5348079204559326,1.9792529344558716,3.925114631652832,0.3138609826564789,-0.3444318175315857,0.3932616114616394,0.38987502455711365
415,36197,36193,-0.050673708319664,-0.04538336023688316,1.0251684188842773,6.024389743804932,-7.989264011383057,4.151060581207275,1.9782915115356445,3.925995111465454,0.31365159153938293,-0.20692743360996246,0.5291795134544373,0.5804873108863831
416,36207,36203,-0.0792711153626442,0.02804264985024929,1.007028579711914,6.049816131591797,0.16888387501239777,4.553601264953613,1.9784969091415405,3.925309658050537,0.3138220012187958,-0.20909155905246735,0.6217111945152283,0.5881218314170837
417,36217,36213,-0.06281493604183197,0.04089710861444473,1.0048596858978271,0.039858900010585785,6.96773099899292,5.757306098937988,1.9787273406982422,3.925839424133301,0.3140912652015686,-0.26466619968414307,0.5983472466468811,0.6857803463935852
418,36227,36223,-0.017923597246408463,-0.05644649639725685,0.9860738515853882,-4.9893083572387695,8.223445892333984,6.790786266326904,1.9803009033203125,3.925490379333496,0.3143208622932434,-0.3597681224346161,0.5661908984184265,0.7140058279037476
419,36237,36233,-0.06996546685695648,0.04201890900731087,1.0363798141479492,-9.305004119873047,7.054220676422119,8.047700881958008,1.9806764125823975,3.9252123832702637,0.3133663237094879,-0.40380093455314636,0.5133832693099976,0.7994459867477417
420,36247,36243,-0.06809905171394348,0.11484098434448242,1.0045217275619507,-10.932771682739258,6.960723876953125,7.537416934967041,1.9824066162109375,3.924900531768799,0.31348931789398193,-0.5294972062110901,0.4787869453430176,0.9039711356163025
421,36257,36253,-0.033422257751226425,0.08919697254896164,0.8990748524665833,-13.720695495605469,4.008388996124268,7.518095016479492,1.982903003692627,3.926579236984253,0.313746839761734,-0.5710318088531494,0.1735304892063141,1.007424235343933
422,36267,36263,0.02958838641643524,0.023023728281259537,0.9329543113708496,-11.790014266967773,0.6259103417396545,8.58698844909668,1.9838787317276,3.9277918338775635,0.31178632378578186,-0.630713701248169,0.0077414922416210175,1.1214791536331177
423,36277,36273,0.12318629026412964,-0.0119909243658185,0.9503218531608582,-7.00498104095459,-2.6239333152770996,8.8684720993042,1.9841182231903076,3.926720142364502,0.3118439018726349,-0.5378859639167786,-0.014894112013280392,1.1744986772537231
424,36287,36283,0.10633283853530884,-0.06144082918763161,0.9812096953392029,-6.161233425140381,-2.238187789916992,8.701491355895996,1.9845887422561646,3.9263713359832764,0.3117963969707489,-0.4320260286331177,-0.061902888119220734,1.2704463005065918
425,36297,36293,0.07562096416950226,-0.1274915486574173,1.004740834236145,-5.057650089263916,-0.5913316607475281,8.875877380371094,1.9858646392822266,3.9259445667266846,0.3127910792827606,-0.42431288957595825,-0.10053455084562302,1.3549070358276367
426,36307,36303,-0.005734629929065704,-0.04340531677007675,1.0108031034469604,-3.070608615875244,1.0244269371032715,8.203912734985352,1.9882138967514038,3.926460027694702,0.31261223554611206,-0.5849607586860657,-0.1885114163160324,1.4336321353912354
427,36317,36313,0.0428638681769371,-0.022937340661883354,0.9388675093650818,-0.9172564148902893,4.064291000366211,6.618540287017822,1.9891246557235718,3.927011013031006,0.3125370740890503,-0.5878605842590332,-0.2292911261320114,1.5504069328308105
428,36327,36323,0.039895009249448776,-0.021143872290849686,0.9419453740119934,1.0510900020599365,6.617107391357422,5.623358726501465,1.989303469657898,3.926712989807129,0.3125191032886505,-0.5922476649284363,-0.1576656848192215,1.5815914869308472
429,36337,36333,0.04485565796494484,-0.05753123387694359,1.0216953754425049,0.5368052124977112,6.766458511352539,5.370214462280273,1.9886163473129272,3.924201011657715,0.3135990798473358,-0.6851164698600769,-0.15265478193759918,1.5658833980560303
430,36347,36343,0.06406767666339874,-0.061685193330049515,0.9428109526634216,-2.251229763031006,6.636026382446289,5.012270927429199,1.9890220165252686,3.923834800720215,0.3135383427143097,-0.7019701600074768,-0.0922091007232666,1.6337531805038452
431,36357,36353,-0.03181522339582443,0.04441023990511894,0.9762659072875977,-5.234582424163818,4.853008270263672,3.1200947761535645,1.9901211261749268,3.923945903778076,0.31339314579963684,-0.7624552249908447,-0.15369300544261932,1.6533399820327759
432,36367,36363,-0.07827593386173248,0.10917244106531143,0.9647182822227478,-9.557735443115234,1.9871325492858887,2.564333200454712,1.9896236658096313,3.9243156909942627,0.3128291070461273,-0.7076338529586792,-0.20704570412635803,1.6787109375
433,36377,36373,-0.0009699456859380007,0.032098110765218735,0.9300408363342285,-13.225379943847656,-1.8139355182647705,1.8712341785430908,1.9891952276229858,3.923407793045044,0.3126775324344635,-0.6651540398597717,-0.2920720875263214,1.7718548774719238
434,36387,36383,0.0050502740778028965,0.016928331926465034,0.9555913805961609,-10.520782470703125,-5.5734171867370605,1.94634211063385,1.9889973402023315,3.925915241241455,0.312383234500885,-0.7174164056777954,-0.4364904463291168,1.833762288093567
435,36397,36393,-0.03075307235121727,0.029615361243486404,0.9687698483467102,-5.5130109786987305,-6.323939323425293,0.8926355838775635,1.9880329370498657,3.9268996715545654,0.311728835105896,-0.6084482073783875,-0.5428438186645508,1.9659264087677002
436,36407,36403,-0.11457226425409317,0.11006282269954681,0.9580875039100647,0.7895147800445557,-2.588139295578003,0.2861177921295166,1.988655686378479,3.9264070987701416,0.3113885223865509,-0.49976399540901184,-0.5605862140655518,1.9500086307525635
437,36417,36413,-0.1655541956424713,0.20035666227340698,0.9941738247871399,6.083471775054932,-0.9907440543174744,1.2226468324661255,1.9891966581344604,3.926213264465332,0.31100958585739136,-0.45125946402549744,-0.49495235085487366,1.9994069337844849
438,36427,36423,-0.07115155458450317,0.14050276577472687,1.0152794122695923,8.966068267822266,1.4715673923492432,1.3228585720062256,1.9905061721801758,3.925833225250244,0.31055015325546265,-0.5017130374908447,-0.4156252443790436,1.9766056537628174
439,36437,36433,-0.04454660415649414,0.060750074684619904,1.0105478763580322,6.907789707183838,3.8879611492156982,0.528010904788971,1.9904190301895142,3.925433397293091,0.308976948261261,-0.4469611346721649,-0.290623277425766,2.0391223430633545
440,36447,36443,-0.06091459095478058,0.08855140209197998,0.9947007298469543,4.437873840332031,-0.5443994402885437,-0.49499261379241943,1.9898332357406616,3.926689863204956,0.30849629640579224,-0.5121374130249023,-0.2716104984283447,2.1180946826934814
441,36457,36453,-0.0273728147149086,0.14919015765190125,0.9730311632156372,0.02434372529387474,2.099996328353882,-2.0289194583892822,1.990789532661438,3.9270992279052734,0.3080306351184845,-0.5729312300682068,-0.2828909456729889,2.1133928298950195
442,36467,36463,-0.04713857173919678,0.2358766496181488,1.0142611265182495,-2.8639445304870605,4.13557767868042,-1.9388737678527832,1.9929744005203247,3.9255402088165283,0.3075447082519531,-0.597149133682251,-0.36242443323135376,1.9517345428466797
443,36477,36473,0.014361560344696045,0.03416498377919197,1.023453712463379,-2.093372344970703,4.12005090713501,-1.73514986038208,1.9934172630310059,3.925715446472168,0.3071053922176361,-0.607083797454834,-0.41017788648605347,1.9327449798583984
444,36487,36483,0.001703441608697176,-0.023448005318641663,1.0527076721191406,-2.168135404586792,2.7616989612579346,-0.9525332450866699,1.9928916692733765,3.9258973598480225,0.3067361116409302,-0.6112288236618042,-0.4535287022590637,1.9082659482955933
445,36497,36493,0.00501164561137557,0.06886731833219528,0.9895310997962952,-2.0379273891448975,0.7613510489463806,-2.2222774028778076,1.9942766427993774,3.925974130630493,0.3111009895801544,-0.657767117023468,-0.48245567083358765,1.8866533041000366
446,36507,36503,0.010826892219483852,0.14068511128425598,0.9401091933250427,-4.735225677490234,-3.4898083209991455,-1.6566181182861328,1.9956588745117188,3.926239252090454,0.3109358549118042,-0.7575910687446594,-0.5116186738014221,1.8761578798294067
447,36517,36513,-0.03170395642518997,0.0680980458855629,0.9731569290161133,-5.437563419342041,-7.597343444824219,-1.4126334190368652,1.9955658912658691,3.9259190559387207,0.3109298348426819,-0.6412004828453064,-0.582815408706665,1.821903109550476
448,36527,36523,-0.029594428837299347,0.04702034220099449,1.0443556308746338,-5.969999313354492,-6.040789604187012,-0.20499296486377716,1.996516466140747,3.9263319969177246,0.3087829649448395,-0.591517448425293,-0.6606418490409851,1.8134098052978516
449,36537,36533,-0.07713254541158676,0.1006687581539154,1.0397471189498901,-4.565332889556885,-5.538915157318115,0.3355821669101715,1.9983205795288086,3.927002429962158,0.3084009885787964,-0.6369063258171082,-0.7401413321495056,1.8164513111114502
450,36547,36543,-0.12497473508119583,0.188069149851799,1.008399248123169,-0.6455979943275452,-1.6050862073898315,1.3896198272705078,1.9989516735076904,3.9266645908355713,0.30819419026374817,-0.5412804484367371,-0.7997646927833557,1.8003236055374146
451,36557,36553,-0.010303779505193233,0.21301963925361633,0.9992719292640686,3.370715618133545,-0.45860370993614197,2.4278337955474854,2.000288724899292,3.9272515773773193,0.3079609274864197,-0.571641743183136,-0.8003027439117432,1.8201026916503906
452,36567,36563,-0.013782571069896221,0.20605213940143585,0.9703452587127686,5.414787292480469,3.272144079208374,2.584893226623535,2.0003864765167236,3.928189992904663,0.3084792196750641,-0.5533645749092102,-0.7306814789772034,1.9208742380142212
453,36577,36573,-0.01907246559858322,0.14595533907413483,1.0234735012054443,9.025339126586914,0.11051566898822784,3.6625871658325195,2.0013413429260254,3.9292337894439697,0.30826982855796814,-0.585863471031189,-0.7805821895599365,1.8453466892242432
454,36587,36583,0.03444627672433853,0.024850988760590553,1.0265177488327026,10.656340599060059,2.231006383895874,4.535553455352783,2.0035173892974854,3.928457260131836,0.3080560863018036,-0.6463854908943176,-0.6826283931732178,1.920859932899475
455,36597,36593,0.03716500476002693,-0.02089254930615425,1.0022995471954346,12.171359062194824,4.338547229766846,4.328613758087158,2.004375457763672,3.928406238555908,0.31039246916770935,-0.6470683217048645,-0.6213687658309937,1.9101911783218384
456,36607,36603,0.02309175208210945,0.029263563454151154,0.9853287935256958,12.273442268371582,2.710092306137085,3.9236035346984863,2.0047900676727295,3.9291656017303467,0.31042999029159546,-0.6542651653289795,-0.5353747010231018,1.949859619140625
457,36617,36613,-0.01577371172606945,0.16620846092700958,0.9882570505142212,11.995744705200195,3.087043523788452,3.517451524734497,2.005833387374878,3.930058479309082,0.3104379177093506,-0.6718636751174927,-0.4425719678401947,2.008280038833618
458,36627,36623,-0.016649261116981506,0.035887621343135834,0.9590684175491333,11.122611999511719,3.2822256088256836,3.1268153190612793,2.005817174911499,3.9301273822784424,0.31212079524993896,-0.6425367593765259,-0.20164373517036438,2.0925753116607666
459,36637,36633,0.01441483199596405,-0.00878091435879469,0.9592263698577881,8.776959419250488,2.0540692806243896,2.3750159740448,2.008120059967041,3.931037664413452,0.31204691529273987,-0.8341650366783142,-0.1399262696504593,2.1438405513763428
460,36647,36643,-0.04166927561163902,0.0964803621172905,0.9656397700309753,7.818152904510498,-0.2300107628107071,0.7157196998596191,2.0074257850646973,3.931910753250122,0.31219157576560974,-0.7287829518318176,-0.08970598876476288,2.1993227005004883
461,36657,36653,-0.058688804507255554,0.12282231450080872,0.935275673866272,5.92863130569458,-2.686847686767578,0.4303167760372162,2.0085489749908447,3.9327356815338135,0.31210508942604065,-0.7672874331474304,0.013733708299696445,2.200161933898926
462,36667,36663,-0.02491985261440277,0.01859164610505104,0.9794167280197144,6.55438756942749,-3.8567569255828857,-0.24712114036083221,2.0102248191833496,3.9327080249786377,0.3108164966106415,-0.8522222638130188,0.0841488167643547,2.2077267169952393
463,36677,36673,0.04144690930843353,-0.02194102294743061,0.9033177495002747,6.884942531585693,-5.419833660125732,-0.5262628197669983,2.010485887527466,3.9328019618988037,0.31077587604522705,-0.7296580672264099,0.23843783140182495,2.2365386486053467
464,36687,36683,-0.010122966952621937,0.0989280492067337,0.8984338641166687,5.6191725730896,-6.61964750289917,-1.2112658023834229,2.010828733444214,3.9337236881256104,0.31066739559173584,-0.5869426131248474,0.2401086986064911,2.2193455696105957
465,36697,36693,-0.07710645347833633,0.09017230570316315,0.9525307416915894,5.276304244995117,-6.91848611831665,-1.7066175937652588,2.0136430263519287,3.934720039367676,0.3104839026927948,-0.6901790499687195,0.2209780514240265,2.2216527462005615
466,36707,36703,-0.06080189347267151,0.03265407681465149,1.0416133403778076,8.317106246948242,-6.627213478088379,-2.0149314403533936,2.015062093734741,3.9357070922851562,0.3101295232772827,-0.615481972694397,0.27562466263771057,2.1926043033599854
467,36717,36713,-0.026060884818434715,0.03500399366021156,1.0251059532165527,14.515209197998047,-7.041947841644287,-1.9505523443222046,2.0149598121643066,3.934379816055298,0.30999231338500977,-0.37538421154022217,0.45903611183166504,2.137042760848999
468,36727,36723,-0.08239562064409256,0.11500154435634613,0.9346394538879395,18.94183921813965,-5.618650913238525,-1.1520742177963257,2.017237663269043,3.9355247020721436,0.30900073051452637,-0.47226065397262573,0.49186939001083374,2.107199192047119
469,36737,36733,-0.08768314868211746,0.11818645149469376,0.9924163818359375,18.66095542907715,-3.6691412925720215,-0.6911044120788574,2.019584894180298,3.9357268810272217,0.30852508544921875,-0.5084462761878967,0.6758372783660889,2.084397315979004
470,36747,36743,-0.030489351600408554,0.05569262057542801,1.0681462287902832,16.72516441345215,-4.391341209411621,-1.0915085077285767,2.020080327987671,3.93733549118042,0.3079425096511841,-0.5496640801429749,0.7115402817726135,2.085390567779541
471,36757,36753,-0.02561778947710991,0.10349853336811066,0.9959245324134827,12.694489479064941,-4.918442726135254,-1.4543520212173462,2.0215094089508057,3.9372646808624268,0.30868789553642273,-0.49531289935112,0.9690622687339783,2.0785446166992188
472,36767,36763,-0.07161717116832733,0.0719490796327591,1.033306360244751,7.23423957824707,-3.8587453365325928,-1.8455990552902222,2.022805690765381,3.93745493888855,0.3084147870540619,-0.43563854694366455,1.0720220804214478,2.050497531890869
473,36777,36773,-0.006073820870369673,-0.02664564549922943,1.0647152662277222,2.687593460083008,0.37242773175239563,-2.2157371044158936,2.0245392322540283,3.9387192726135254,0.30810651183128357,-0.40773865580558777,1.151516318321228,1.9783488512039185
474,36787,36783,0.02401377446949482,0.0071702683344483376,1.0414040088653564,0.791675329208374,2.4014317989349365,-2.5533814430236816,2.025905132293701,3.93776798248291,0.30780965089797974,-0.4201277196407318,1.235018014907837,1.9606893062591553
475,36797,36793,0.06423642486333847,0.01664629951119423,0.9458572864532471,2.22880220413208,4.622605800628662,-2.8634376525878906,2.025770902633667,3.9373958110809326,0.30902597308158875,-0.3919147253036499,1.2140424251556396,1.8543872833251953
476,36807,36803,0.023754868656396866,0.017401915043592453,0.9722059369087219,3.6996870040893555,3.3999369144439697,-3.225635051727295,2.0283803939819336,3.936694383621216,0.30875152349472046,-0.5592527389526367,1.288910984992981,1.8182361125946045
477,36817,36813,-0.03177160397171974,-0.052914414554834366,1.0545334815979004,7.187250137329102,1.6387423276901245,-4.074702262878418,2.027510166168213,3.9346067905426025,0.30871346592903137,-0.47111639380455017,1.3822993040084839,1.6873648166656494
478,36827,36823,0.01720411330461502,-0.02227007783949375,0.9789363145828247,8.91910171508789,-2.5274980068206787,-4.031890392303467,2.028676986694336,3.934267520904541,0.3111973702907562,-0.42542964220046997,1.5211212635040283,1.534200668334961
479,36837,36833,-0.011466397903859615,0.015685511752963066,0.9924992322921753,7.072396278381348,-6.101763725280762,-3.989197015762329,2.030012369155884,3.9335319995880127,0.3110705316066742,-0.5610752701759338,1.4406769275665283,1.4701530933380127
480,36847,36843,-0.06832230091094971,0.08772609382867813,0.988767147064209,2.7000362873077393,-9.671293258666992,-3.8353075981140137,2.0308592319488525,3.932678699493408,0.31108760833740234,-0.4731321334838867,1.582055926322937,1.4027739763259888
481,36857,36853,-0.0341043658554554,0.009993646293878555,0.9680719375610352,1.2819793224334717,-14.791154861450195,-3.6424918174743652,2.0300564765930176,3.932344675064087,0.3119070529937744,-0.16650152206420898,1.6519780158996582,1.3801308870315552
