,timestamp_start,timestamp_end,acc.x,acc.y,acc.z,gyro.x,gyro.y,gyro.z,stateEstimate.x,stateEstimate.y,stateEstimate.z,stabilizer.pitch,stabilizer.roll,stabilizer.yaw
0,23091,23089,0.006977067328989506,0.012306592427194118,1.0477137565612793,-2.431165933609009,-19.59357261657715,-0.3490009605884552,1.9036865234375,3.955928087234497,0.15227003395557404,-1.7268949747085571,0.8396033048629761,3.684922695159912
1,23101,23099,-0.012226127088069916,-0.2572341859340668,1.0548990964889526,-3.7975118160247803,-13.626501083374023,0.0746355727314949,1.902536153793335,3.958037853240967,0.15361225605010986,-1.6206347942352295,0.8631663918495178,3.695281505584717
2,23111,23109,0.04266628250479698,-0.20308080315589905,0.9333161115646362,-4.972538948059082,-9.327886581420898,-0.6207038164138794,1.9033942222595215,3.9596476554870605,0.15188747644424438,-1.5069717168807983,0.8632194995880127,3.7031209468841553
3,23121,23119,0.0581982359290123,-0.11764620244503021,1.0322953462600708,-8.209343910217285,-8.04528522491455,-0.5355196595191956,1.9029873609542847,3.9598171710968018,0.15296238660812378,-1.554017186164856,0.9386761784553528,3.723142385482788
4,23131,23129,-0.056701771914958954,0.011261474341154099,1.0911959409713745,-6.979689121246338,-9.579150199890137,-0.06209106743335724,1.904301643371582,3.959594964981079,0.1539507657289505,-1.4718856811523438,0.8631922602653503,3.722912311553955
5,23141,23139,-0.08723379671573639,0.09126734733581543,1.1161495447158813,-7.14939022064209,-4.602072238922119,-0.5514240860939026,1.9032788276672363,3.961050033569336,0.15427660942077637,-1.308972954750061,0.7061434984207153,3.706902265548706
6,23151,23149,-0.03554922714829445,0.15426300466060638,1.2175589799880981,-6.148991107940674,-11.93227767944336,-0.6109777688980103,1.9053030014038086,3.9609968662261963,0.15539199113845825,-1.3690491914749146,0.7611150145530701,3.709406852722168
7,23161,23159,-0.028569946065545082,0.004485101904720068,1.119572401046753,-7.1984543800354,-11.397461891174316,-0.812707781791687,1.9044935703277588,3.9614086151123047,0.15714140236377716,-1.2588738203048706,0.688267707824707,3.7034482955932617
8,23171,23169,0.015865692868828773,-0.04422222077846527,1.0675556659698486,-6.779972076416016,-13.861579895019531,0.2551930844783783,1.9058362245559692,3.962083101272583,0.1587023288011551,-1.2507209777832031,0.5192265510559082,3.6466245651245117
9,23181,23179,0.013438209891319275,-0.031070265918970108,1.0889266729354858,-6.145207405090332,-14.755956649780273,-0.8743572235107422,1.9056744575500488,3.9613351821899414,0.15783721208572388,-0.9821429252624512,0.6516588926315308,3.716029644012451
10,23191,23189,0.004781393334269524,0.07452276349067688,1.0761830806732178,-7.425002098083496,-12.221382141113281,-1.4013808965682983,1.9047950506210327,3.9604437351226807,0.15935468673706055,-0.7447330355644226,0.6050658822059631,3.7282516956329346
11,23201,23199,0.01801222562789917,0.01913885958492756,1.0811835527420044,-7.484034061431885,-13.946802139282227,-1.5517233610153198,1.903898000717163,3.9630227088928223,0.1620536893606186,-0.5271002054214478,-0.023509223014116287,3.586559534072876
12,23211,23209,-0.008608995005488396,-0.0080372029915452,1.133420467376709,-6.86158561706543,-9.609633445739746,-1.7877223491668701,1.9041117429733276,3.9593400955200195,0.16316111385822296,-0.40227657556533813,0.5857701301574707,3.715871572494507
13,23221,23219,-0.0024610862601548433,0.0003564222133718431,1.1231263875961304,-5.243685722351074,-4.7456512451171875,-1.4123483896255493,1.9055196046829224,3.960354804992676,0.16528843343257904,-0.5014790892601013,0.4556620717048645,3.6658310890197754
14,23231,23229,-0.03581944853067398,0.07335583865642548,1.0839695930480957,-6.344102382659912,-2.7378244400024414,-0.6273419260978699,1.905747413635254,3.9608442783355713,0.16730578243732452,-0.48154115676879883,0.345784455537796,3.6443190574645996
15,23241,23239,-0.09433992207050323,0.009196514263749123,1.1024281978607178,-9.378118515014648,-5.793525695800781,-0.35741981863975525,1.906063437461853,3.960123300552368,0.16722537577152252,-0.5218026638031006,0.20106685161590576,3.6214182376861572
16,23251,23249,-0.054678164422512054,-0.04504387825727463,1.087540626525879,-10.206771850585938,-3.274554967880249,0.20044167339801788,1.9051464796066284,3.957791328430176,0.16931043565273285,-0.48562413454055786,0.10033322870731354,3.6213016510009766
17,23261,23259,-0.011981088668107986,-0.08144593238830566,1.0203205347061157,-10.603880882263184,-5.255829811096191,-0.5521681308746338,1.9043879508972168,3.9573099613189697,0.17149581015110016,-0.37402328848838806,0.004287024028599262,3.626574993133545
18,23271,23269,-0.02758084051311016,-0.06781915575265884,1.0438071489334106,-9.647916793823242,-5.468815803527832,-1.2246805429458618,1.9048314094543457,3.957498550415039,0.17350229620933533,-0.5049442648887634,0.17230594158172607,3.6269454956054688
19,23281,23279,-0.024435535073280334,-0.06317347288131714,0.9858582615852356,-8.353857040405273,-10.38766098022461,-1.3148916959762573,1.9050310850143433,3.95611572265625,0.1726960688829422,-0.48039039969444275,0.20661664009094238,3.618990421295166
20,23291,23289,0.037739235907793045,0.13804525136947632,1.0732557773590088,-9.16783618927002,-11.647884368896484,-1.32284414768219,1.9048818349838257,3.956930160522461,0.17444556951522827,-0.4299752712249756,-0.07183043658733368,3.5856940746307373
21,23301,23299,-0.012631891295313835,0.07264210283756256,0.9939062595367432,-9.784759521484375,-13.382428169250488,-1.8015495538711548,1.9058533906936646,3.956843614578247,0.17691585421562195,-0.3481694459915161,-0.2606743574142456,3.559633731842041
22,23311,23309,0.024291250854730606,0.04119527339935303,1.0113765001296997,-11.578160285949707,-14.04344367980957,-1.9080880880355835,1.905846357345581,3.956879138946533,0.17906205356121063,-0.5239437818527222,-0.32329851388931274,3.531879425048828
23,23321,23319,-0.022396089509129524,-0.0430462472140789,1.0956618785858154,-10.706076622009277,-18.7630558013916,-1.792353868484497,1.9085478782653809,3.95617938041687,0.18069908022880554,-0.15605773031711578,-0.5957899689674377,3.5118253231048584
24,23331,23329,-0.013760010711848736,0.10515691339969635,1.1274490356445312,-8.354811668395996,-18.99180793762207,-1.9073734283447266,1.9071235656738281,3.954662322998047,0.18360185623168945,-0.0913793221116066,-0.5964008569717407,3.495762348175049
25,23341,23339,-0.09182224422693253,0.3072601854801178,1.0366878509521484,-5.349257946014404,-16.520505905151367,-1.8760212659835815,1.9080108404159546,3.955118179321289,0.18547506630420685,0.056655194610357285,-0.6678736209869385,3.4809093475341797
26,23351,23349,-0.025174688547849655,0.24046333134174347,1.0419471263885498,-0.5658974051475525,-19.327924728393555,-2.4460842609405518,1.9065414667129517,3.953213691711426,0.1879524439573288,0.35778889060020447,-0.6604178547859192,3.4594786167144775
27,23361,23359,-0.10803568363189697,0.35508179664611816,1.2509862184524536,0.8258326649665833,-21.364639282226562,-2.7589879035949707,1.9084739685058594,3.9524946212768555,0.19006402790546417,0.2567443549633026,-0.7398428916931152,3.440457820892334
28,23371,23369,-0.08961234241724014,0.1499476432800293,1.1162409782409668,1.928464412689209,-16.507417678833008,-2.3361592292785645,1.9077337980270386,3.953340530395508,0.19442175328731537,0.6571715474128723,-0.7142876982688904,3.409327268600464
29,23381,23379,-0.06727097183465958,0.01599518395960331,1.0361733436584473,3.1876718997955322,-12.684501647949219,-2.051234006881714,1.9071968793869019,3.953352689743042,0.19734756648540497,0.9627284407615662,-0.7386731505393982,3.3815646171569824
30,23391,23389,-0.021616633981466293,0.05535633862018585,1.0462089776992798,0.9857921600341797,-8.457127571105957,-2.517779588699341,1.9071102142333984,3.9529500007629395,0.20025022327899933,1.0345520973205566,-0.6857858300209045,3.359966516494751
31,23401,23399,-0.060551729053258896,0.4631648659706116,0.9969838857650757,-1.5430068969726562,-4.607754707336426,-3.2592968940734863,1.907194972038269,3.952395439147949,0.20314860343933105,1.1798102855682373,-0.7418596744537354,3.3290278911590576
32,23411,23409,-0.18763761222362518,0.340491384267807,1.1808432340621948,-4.761997222900391,0.47865256667137146,-3.297921657562256,1.9121919870376587,3.9539427757263184,0.2054574340581894,0.6741762161254883,-0.7613990306854248,3.336388111114502
33,23421,23419,-0.03476584702730179,0.1897454708814621,1.057573914527893,-4.704731464385986,-0.19445978105068207,-2.453653573989868,1.9118534326553345,3.953263759613037,0.20853078365325928,0.7473559975624084,-0.744843065738678,3.293811082839966
34,23431,23429,-0.05699552223086357,0.40296417474746704,1.0136412382125854,-2.4318718910217285,-7.424623489379883,-1.5960657596588135,1.9118059873580933,3.952535390853882,0.21169540286064148,0.8580905199050903,-0.8635875582695007,3.276500701904297
35,23441,23439,0.08133256435394287,0.028435181826353073,0.9552589654922485,-2.3586909770965576,-4.518214225769043,-2.302943468093872,1.9124231338500977,3.9524130821228027,0.21409070491790771,0.7856762409210205,-0.9447973966598511,3.27303147315979
36,23451,23449,0.14036943018436432,-0.03828532621264458,0.938298225402832,-0.6366326212882996,-10.207968711853027,-2.579625129699707,1.9114115238189697,3.951369285583496,0.21739119291305542,1.0363068580627441,-1.0045267343521118,3.2391140460968018
37,23461,23459,0.04884592071175575,0.16885749995708466,0.9380178451538086,2.898890733718872,-14.30390453338623,-2.9287946224212646,1.91074800491333,3.951533555984497,0.22057367861270905,1.3563566207885742,-0.9442561864852905,3.1852381229400635
38,23471,23469,0.012381208129227161,0.17781825363636017,0.9503977298736572,10.082048416137695,-19.59859275817871,-1.6625778675079346,1.9105387926101685,3.9505250453948975,0.22137898206710815,1.420411467552185,-0.8147130012512207,3.161468505859375
39,23481,23479,0.08839095383882523,-0.08301979303359985,0.782396137714386,9.147035598754883,-9.163100242614746,-2.1167616844177246,1.9098743200302124,3.9479827880859375,0.22413648664951324,1.6458661556243896,-0.5970269441604614,3.114212989807129
40,23491,23489,-0.02320953458547592,-0.09715590626001358,0.846053421497345,6.277933120727539,-4.338870525360107,-2.3467884063720703,1.9103752374649048,3.948714017868042,0.2268524169921875,1.5745571851730347,-0.5778607130050659,3.1191134452819824
41,23501,23499,-0.15475068986415863,0.12666189670562744,0.9726266860961914,4.43402099609375,-1.2627153396606445,-2.979320764541626,1.909956693649292,3.9490652084350586,0.22931331396102905,1.5786323547363281,-0.5229437947273254,3.0930685997009277
42,23511,23509,-0.3372674882411957,0.7670911550521851,1.056257963180542,-1.7554651498794556,4.521306037902832,-3.8475263118743896,1.9101300239562988,3.949340343475342,0.22862356901168823,1.5742921829223633,-0.6047558784484863,3.0700907707214355
43,23521,23519,-0.15296106040477753,0.4400256276130676,1.0415021181106567,-3.704111099243164,5.769851207733154,-3.0764756202697754,1.9088010787963867,3.9482648372650146,0.230709969997406,1.5629823207855225,-0.6767684817314148,3.0381557941436768
44,23531,23529,0.07636409252882004,0.005990413948893547,0.889373779296875,-6.492713928222656,9.868684768676758,-3.810485363006592,1.909069538116455,3.947915554046631,0.2327669858932495,1.443247675895691,-0.7722547650337219,3.017106771469116
45,23541,23539,0.18111677467823029,-0.1429087519645691,0.795745849609375,-2.5574147701263428,7.178420543670654,-4.221421241760254,1.9083900451660156,3.9490878582000732,0.2334899604320526,1.398723840713501,-0.8560274839401245,2.984693765640259
46,23551,23549,0.13183584809303284,0.35175246000289917,0.8713073134422302,0.14071327447891235,4.480765342712402,-4.472830772399902,1.907344102859497,3.9484739303588867,0.2353339046239853,1.391150712966919,-0.812475860118866,2.9222986698150635
47,23561,23559,-0.037238918244838715,0.5430744290351868,0.993529200553894,4.220534324645996,0.9752710461616516,-4.853733062744141,1.9074300527572632,3.9488279819488525,0.23701538145542145,1.4114707708358765,-0.7982244491577148,2.8741466999053955
48,23571,23569,-0.09655646979808807,-0.0007072625448927283,0.9142071008682251,9.494766235351562,-6.498160362243652,-4.199756145477295,1.905673623085022,3.947939872741699,0.23670095205307007,1.5021214485168457,-0.6983819603919983,2.8132803440093994
49,23581,23579,-0.0643608495593071,-0.1726745218038559,0.8982245326042175,10.366251945495605,-5.631213665008545,-4.236734867095947,1.9045536518096924,3.9475791454315186,0.23806482553482056,1.6104745864868164,-0.629727303981781,2.769144296646118
50,23591,23589,-0.007874463684856892,-0.18507231771945953,0.8946977853775024,10.04336166381836,0.8456331491470337,-3.8197755813598633,1.9037141799926758,3.9477434158325195,0.2393343448638916,1.675681471824646,-0.5312471985816956,2.7252066135406494
51,23601,23599,-0.04904662445187569,0.09566453844308853,0.9821029305458069,5.369501113891602,4.876578330993652,-3.851867437362671,1.9032574892044067,3.9481000900268555,0.24058544635772705,1.6474193334579468,-0.46815377473831177,2.689053773880005
52,23611,23609,-0.1155911535024643,0.33674144744873047,1.0796613693237305,4.688054084777832,9.147347450256348,-3.8873274326324463,1.9034234285354614,3.9501607418060303,0.24144776165485382,1.5384600162506104,-0.3796786367893219,2.6409056186676025
53,23621,23619,0.010363412089645863,0.15341688692569733,0.8928653597831726,0.8082591891288757,10.993691444396973,-4.237549304962158,1.9037773609161377,3.9518184661865234,0.24256892502307892,1.3815141916275024,-0.31391003727912903,2.5920019149780273
54,23631,23629,0.06540568917989731,0.07567086815834045,0.9458120465278625,-1.9301955699920654,10.55629825592041,-4.961185932159424,1.9013277292251587,3.9513018131256104,0.2437240332365036,1.4583499431610107,-0.3038243055343628,2.5315887928009033
55,23641,23639,-0.02247793972492218,0.026044854894280434,1.0639175176620483,-2.0894765853881836,8.865705490112305,-3.584956169128418,1.8973559141159058,3.951420307159424,0.2422955185174942,1.7557438611984253,-0.32814663648605347,2.4676320552825928
56,23652,23649,-0.17004092037677765,0.5933120250701904,0.9877071380615234,-0.5340430736541748,10.70722484588623,-2.9160866737365723,1.8966249227523804,3.949202060699463,0.24343076348304749,1.4964925050735474,-0.5064629912376404,2.4851386547088623
57,23661,23659,-0.030812067911028862,0.26473376154899597,1.0109423398971558,-0.04326128587126732,21.929546356201172,-3.7403128147125244,1.8955492973327637,3.9510984420776367,0.24444106221199036,1.3391610383987427,-0.510124683380127,2.4505608081817627
58,23671,23669,0.11053857207298279,0.038746245205402374,0.9868910908699036,2.8729753494262695,16.717430114746094,-3.195000648498535,1.895556926727295,3.9504971504211426,0.2440943419933319,1.0068166255950928,-0.39471137523651123,2.3952720165252686
59,23681,23679,0.04169848933815956,-0.0838303342461586,0.9754499793052673,5.462578773498535,14.788797378540039,-3.0411031246185303,1.895402193069458,3.9507651329040527,0.24497786164283752,0.7760304808616638,-0.38388603925704956,2.374906063079834
60,23691,23689,0.01734018698334694,-0.029163964092731476,1.0160982608795166,7.548813343048096,8.998299598693848,-2.1873526573181152,1.8912111520767212,3.951201915740967,0.24581627547740936,1.0075557231903076,-0.3311910927295685,2.338318347930908
61,23701,23699,-0.013237375766038895,0.0017133374931290746,0.9864466190338135,7.931567192077637,11.822957038879395,-2.983189821243286,1.8887056112289429,3.9485881328582764,0.2460227757692337,1.0145870447158813,-0.18588556349277496,2.2961783409118652
62,23711,23709,0.023077964782714844,0.042544398456811905,0.9932219386100769,6.535772323608398,14.182777404785156,-1.8970043659210205,1.8886280059814453,3.9491617679595947,0.24691465497016907,0.8346608877182007,-0.12056691944599152,2.2790608406066895
63,23721,23719,0.00892325397580862,0.02325008250772953,1.072658658027649,4.944220542907715,10.881433486938477,-1.0265233516693115,1.8895660638809204,3.9491422176361084,0.24787622690200806,0.5580987930297852,-0.07100414484739304,2.272061347961426
64,23731,23729,0.049912746995687485,0.02424444444477558,1.021838665008545,3.9749631881713867,12.061241149902344,-0.6702256202697754,1.889614462852478,3.950867176055908,0.24875856935977936,0.4082547426223755,-0.1264953762292862,2.2797367572784424
65,23741,23739,0.04337103292346001,-0.12443239241838455,1.0226733684539795,-0.7042943835258484,10.832518577575684,-2.633786678314209,1.887666940689087,3.95086407661438,0.24910365045070648,0.35783419013023376,-0.059763938188552856,2.252730369567871
66,23751,23749,-0.010914070531725883,0.07396920025348663,1.0476489067077637,-0.5483947992324829,13.161272048950195,-1.0172486305236816,1.8863192796707153,3.9497570991516113,0.24997563660144806,0.26041272282600403,-0.10928415507078171,2.2419052124023438
67,23761,23759,-0.027603331953287125,0.1229211837053299,1.1078623533248901,1.5904700756072998,7.735602855682373,0.03811674565076828,1.8859062194824219,3.9503839015960693,0.25098562240600586,0.018141407519578934,-0.07408680766820908,2.232489585876465
68,23771,23769,-0.007894039154052734,0.07388939708471298,1.1085561513900757,3.8492624759674072,7.70292854309082,0.194792240858078,1.8842930793762207,3.9492719173431396,0.2519684135913849,-0.09494468569755554,-0.0024838114622980356,2.2274224758148193
69,23781,23779,0.012262606993317604,-0.03274838253855705,0.9599437117576599,4.3380961418151855,4.510669231414795,0.1630532592535019,1.8835893869400024,3.949812650680542,0.2531024217605591,-0.1782202422618866,0.0783267468214035,2.2241458892822266
70,23791,23789,0.05699671059846878,-0.03732593357563019,1.030023217201233,2.8851284980773926,-2.3336377143859863,0.17052453756332397,1.882991075515747,3.94941782951355,0.2542119026184082,-0.29322388768196106,0.15629348158836365,2.223092555999756
71,23801,23799,0.02138754352927208,-0.006768721621483564,1.0441783666610718,3.129520893096924,-4.0853800773620605,0.8561928272247314,1.8822383880615234,3.9496753215789795,0.2562374174594879,-0.29312950372695923,0.14213168621063232,2.228018045425415
72,23811,23809,-0.05958759784698486,-0.004035812336951494,1.0598410367965698,3.1366400718688965,-3.964653968811035,0.5655398964881897,1.8813865184783936,3.950167417526245,0.2574470043182373,-0.2779269516468048,0.20443403720855713,2.2314136028289795
73,23821,23819,0.01831744611263275,-0.01717163622379303,0.9385275840759277,1.9058549404144287,-1.2865773439407349,-0.3635428547859192,1.879668116569519,3.9507741928100586,0.2587430477142334,-0.19220463931560516,0.25419101119041443,2.2316277027130127
74,23831,23829,-0.012719416059553623,0.09090989083051682,0.9959599375724792,0.4906710386276245,-3.5093183517456055,0.020390700548887253,1.8791543245315552,3.951794147491455,0.26007798314094543,-0.19587825238704681,0.20876936614513397,2.226546287536621
75,23841,23839,0.0363365039229393,0.05559077113866806,1.0259443521499634,-0.5169313549995422,-0.6142453551292419,-0.12470868229866028,1.8780556917190552,3.950730323791504,0.25946056842803955,-0.2055562138557434,0.21203316748142242,2.223968267440796
76,23851,23849,0.09062380343675613,-0.0693688914179802,0.9850324988365173,-1.4822584390640259,0.974591076374054,0.42758452892303467,1.8767927885055542,3.9515411853790283,0.2605880796909332,-0.17565757036209106,0.052440095692873,2.2190518379211426
77,23861,23859,-0.044973086565732956,-0.07066764682531357,1.0033619403839111,-0.9824954271316528,5.970499038696289,0.5490015745162964,1.8761703968048096,3.949946880340576,0.26179665327072144,-0.27281370759010315,0.20071828365325928,2.2281224727630615
78,23871,23869,0.007042386569082737,-0.036138396710157394,0.9835450053215027,1.2497951984405518,3.6700446605682373,0.8037494421005249,1.87738835811615,3.9507663249969482,0.2606307864189148,-0.4662274718284607,0.19966286420822144,2.2265090942382812
79,23881,23879,0.042303331196308136,-0.0011757201282307506,0.9320774078369141,1.1999486684799194,-0.9876441359519958,1.5537856817245483,1.8763728141784668,3.9500572681427,0.26163968443870544,-0.4629926085472107,0.2111261934041977,2.236359119415283
80,23891,23889,-0.1427178531885147,0.10203956067562103,0.9740075469017029,0.8347734212875366,0.45271745324134827,0.9820459485054016,1.8746774196624756,3.9492709636688232,0.26262176036834717,-0.3587341904640198,0.22267551720142365,2.2545087337493896
81,23901,23899,0.04665485769510269,0.07966239005327225,0.9289493560791016,0.0004741358570754528,11.951047897338867,0.6228423714637756,1.872212529182434,3.9496688842773438,0.26139703392982483,-0.26414763927459717,0.16011212766170502,2.268955945968628
82,23911,23909,-0.1271425485610962,0.5377057790756226,1.1114054918289185,-1.7983797788619995,10.220296859741211,1.1607820987701416,1.872404932975769,3.948561191558838,0.26218676567077637,-0.4898345172405243,0.1551503688097,2.2665109634399414
83,23921,23919,-0.159986674785614,0.2510804235935211,1.0577517747879028,-0.5704439878463745,17.411954879760742,1.3629727363586426,1.8721030950546265,3.949411392211914,0.26295822858810425,-0.64606773853302,0.08454416692256927,2.2687461376190186
84,23931,23929,-0.11047744750976562,0.5332074165344238,1.0765560865402222,-1.2622408866882324,22.286575317382812,1.5049057006835938,1.871894359588623,3.948524236679077,0.2638119161128998,-0.9606745839118958,0.0848625898361206,2.2737138271331787
85,23941,23939,-0.06777021288871765,0.48647722601890564,1.0004817247390747,-1.0197618007659912,23.093242645263672,1.2283480167388916,1.8723421096801758,3.949378728866577,0.2626546621322632,-1.2924355268478394,0.08531128615140915,2.2831850051879883
86,23951,23949,-0.13041621446609497,0.36877965927124023,0.9700057506561279,0.07098943740129471,19.344724655151367,0.7395534515380859,1.8718923330307007,3.949450731277466,0.26347559690475464,-1.504783272743225,0.09529876708984375,2.2964718341827393
87,23961,23959,-0.16484194993972778,0.3990466892719269,1.2105792760849,1.0210102796554565,6.136031150817871,1.5541036128997803,1.8708821535110474,3.94892954826355,0.2642805576324463,-1.5949959754943848,0.10961873084306717,2.3099753856658936
88,23971,23969,-0.0860566794872284,0.17999900877475739,1.1146329641342163,2.9751107692718506,3.8126208782196045,1.4542460441589355,1.8700021505355835,3.950090169906616,0.264474093914032,-1.5610932111740112,0.15689343214035034,2.334351062774658
89,23981,23979,-0.11996279656887054,0.043440695852041245,1.023861289024353,1.8315492868423462,3.160343885421753,1.6293818950653076,1.8693450689315796,3.9499473571777344,0.2654629349708557,-1.6334477663040161,0.2134387493133545,2.352646589279175
90,23991,23989,-0.03386681154370308,0.02038073167204857,1.0127768516540527,1.4545096158981323,-2.4051108360290527,2.37046217918396,1.8690701723098755,3.9524853229522705,0.26648977398872375,-1.6519476175308228,0.2594374120235443,2.372225046157837
91,24001,23999,-0.041945863515138626,0.06936270743608475,1.065499186515808,1.603377103805542,-4.236939430236816,1.5746625661849976,1.8687686920166016,3.9527950286865234,0.2660259008407593,-1.6166852712631226,0.2190515398979187,2.376138687133789
92,24011,24009,-0.10250850766897202,0.48224732279777527,0.9243492484092712,-1.5449919700622559,-3.0453975200653076,1.0369303226470947,1.8681477308273315,3.95344877243042,0.2670685350894928,-1.5788978338241577,0.21768049895763397,2.3941662311553955
93,24021,24019,-0.10490742325782776,0.34498634934425354,0.9795046448707581,-7.040661334991455,3.3071200847625732,1.3879320621490479,1.867990493774414,3.952465772628784,0.26808854937553406,-1.5734914541244507,0.18744729459285736,2.4083144664764404
94,24031,24029,-0.05380649492144585,0.15672411024570465,1.0723919868469238,-2.7419276237487793,6.389183521270752,1.7218778133392334,1.8679853677749634,3.95485782623291,0.26902592182159424,-1.639553427696228,0.13152161240577698,2.4181604385375977
95,24041,24039,-0.031873419880867004,0.22590334713459015,1.077162504196167,-3.3098645210266113,9.379728317260742,1.3567252159118652,1.869930386543274,3.958712100982666,0.2699793577194214,-1.8189626932144165,0.10570357739925385,2.4307563304901123
96,24051,24049,-0.03162889927625656,0.20426487922668457,1.005159616470337,-2.31809401512146,6.472826957702637,1.9742159843444824,1.8700264692306519,3.9587273597717285,0.2710011303424835,-1.904678225517273,0.07201632112264633,2.444474220275879
97,24061,24059,-0.016452498733997345,-0.020848166197538376,0.9346018433570862,-1.1104602813720703,8.043707847595215,1.3168506622314453,1.8699134588241577,3.957368850708008,0.2721518278121948,-1.9116157293319702,0.08321959525346756,2.466627836227417
98,24071,24069,-0.043205663561820984,0.07544905692338943,0.9507370591163635,2.017857789993286,1.584136724472046,1.8536760807037354,1.8700271844863892,3.9571714401245117,0.27278077602386475,-1.9116650819778442,0.09399795532226562,2.4697654247283936
99,24081,24079,-0.017228566110134125,0.09423608332872391,0.9740250110626221,2.0730068683624268,-3.859408140182495,2.2244231700897217,1.8698593378067017,3.9573466777801514,0.2739420235157013,-1.9456087350845337,0.050711389631032944,2.471379280090332
100,24091,24089,0.027966933324933052,-0.0948379710316658,0.9582839012145996,-0.7302878499031067,2.1013400554656982,0.2602420747280121,1.870736002922058,3.958012104034424,0.2749372124671936,-2.0057568550109863,0.11478261649608612,2.501955270767212
101,24101,24099,-0.057492319494485855,-0.038415566086769104,1.0984748601913452,1.540077805519104,-4.802424907684326,1.3876802921295166,1.871636986732483,3.9584176540374756,0.27310970425605774,-2.063579559326172,0.15247505903244019,2.5175933837890625
102,24111,24109,-0.19151905179023743,0.3417408764362335,0.9586162567138672,-0.8114230632781982,-6.375182628631592,1.646898627281189,1.8708833456039429,3.9585776329040527,0.2740916609764099,-1.9141170978546143,0.18761718273162842,2.5405633449554443
103,24121,24119,-0.0928448736667633,0.7324910759925842,1.066589117050171,-2.3228871822357178,-9.078015327453613,1.9375358819961548,1.8703200817108154,3.958317518234253,0.2750835418701172,-1.7397005558013916,0.18442696332931519,2.5618715286254883
104,24131,24129,0.05210758000612259,0.48169854283332825,0.9655121564865112,-0.3672611713409424,-0.7168983817100525,1.952659249305725,1.870772123336792,3.959092378616333,0.27225297689437866,-1.757368803024292,0.15056665241718292,2.570200204849243
105,24141,24139,0.07315946370363235,-0.060778941959142685,0.9261732697486877,0.99504154920578,-12.020612716674805,1.8651567697525024,1.8720208406448364,3.958263397216797,0.2727901041507721,-1.8472856283187866,0.13361424207687378,2.5835201740264893
106,24151,24149,0.01137534435838461,-0.15202629566192627,0.8954305648803711,1.060768723487854,-8.147522926330566,1.3058280944824219,1.8731423616409302,3.9581780433654785,0.2732779383659363,-1.850568413734436,0.1280304491519928,2.5937657356262207
107,24161,24159,-0.029329095035791397,0.014297123067080975,0.9303216934204102,-2.0320796966552734,-6.185637474060059,0.6787427663803101,1.8721741437911987,3.9561126232147217,0.2739904224872589,-1.6311275959014893,0.20014043152332306,2.6354165077209473
108,24171,24169,-0.018952995538711548,0.14611589908599854,0.9858769178390503,-2.2043585777282715,-15.308159828186035,1.9112657308578491,1.8730885982513428,3.9565165042877197,0.27523496747016907,-1.6102477312088013,0.16000831127166748,2.6367156505584717
109,24181,24179,0.007797129452228546,-0.0030750297009944916,1.0261609554290771,-1.8649266958236694,-14.886041641235352,0.23339778184890747,1.8718353509902954,3.95635724067688,0.2757595479488373,-1.377684235572815,0.10916091501712799,2.648918628692627
110,24191,24189,-0.013714611530303955,0.1575276404619217,1.0203510522842407,-3.6285436153411865,-2.1734418869018555,0.6607728004455566,1.870278000831604,3.9556753635406494,0.27620604634284973,-1.1413037776947021,0.13711261749267578,2.6793956756591797
111,24201,24199,0.004141578450798988,0.09394806623458862,0.9767175912857056,-3.2103207111358643,-1.3836404085159302,-0.32399097084999084,1.8739676475524902,3.9554390907287598,0.27798914909362793,-1.4775152206420898,0.14817474782466888,2.6768553256988525
112,24211,24209,-0.014426794834434986,0.1613197922706604,1.0421886444091797,-2.529165744781494,-5.682402610778809,0.9861472249031067,1.874832272529602,3.954343557357788,0.278402715921402,-1.4725148677825928,0.07885117083787918,2.6656277179718018
113,24221,24219,-0.11484908312559128,0.11734814941883087,1.0386452674865723,-2.232288360595703,-6.998899936676025,-0.16690944135189056,1.8757619857788086,3.952824592590332,0.27872586250305176,-1.5268739461898804,0.17877650260925293,2.698495864868164
114,24231,24229,-0.11823343485593796,0.019558338448405266,0.9412214159965515,-2.961125612258911,-15.747834205627441,0.0840211734175682,1.8760300874710083,3.95251202583313,0.27791470289230347,-1.4021055698394775,0.11735838651657104,2.692310333251953
115,24241,24239,-0.1280730962753296,0.18660125136375427,1.1127723455429077,-4.49548864364624,-17.714496612548828,0.21149924397468567,1.876205325126648,3.9517736434936523,0.2783743143081665,-1.2658015489578247,0.04996957629919052,2.6836764812469482
116,24251,24249,-0.06533543020486832,-0.00878776516765356,1.0258837938308716,-3.390519857406616,-12.586092948913574,0.6613003015518188,1.876604676246643,3.9518721103668213,0.27884241938591003,-1.1420848369598389,-0.031296003609895706,2.6726672649383545
117,24261,24259,0.021584337577223778,-0.042550235986709595,0.9744125604629517,-3.9008429050445557,-17.777616500854492,1.3200331926345825,1.8777496814727783,3.952012538909912,0.2793278694152832,-1.035489797592163,-0.022434299811720848,2.686533212661743
118,24271,24269,0.010160582140088081,0.04953821375966072,1.0402207374572754,-3.0633883476257324,-9.70088005065918,-0.14900897443294525,1.8793268203735352,3.9524919986724854,0.27656474709510803,-0.9799397587776184,-0.09902861714363098,2.6828978061676025
119,24281,24279,-0.06106191501021385,0.0038438758347183466,1.0354537963867188,-3.0618011951446533,-8.733480453491211,0.046715591102838516,1.8794939517974854,3.9520230293273926,0.27699682116508484,-0.8282193541526794,-0.16499464213848114,2.6776208877563477
120,24291,24289,-0.06381569802761078,0.15736931562423706,1.054490327835083,-1.4138782024383545,-10.533480644226074,0.2959126830101013,1.8811383247375488,3.9517428874969482,0.27725034952163696,-0.8441224098205566,-0.21989506483078003,2.6712310314178467
121,24301,24299,-0.010508013889193535,0.07643074542284012,1.0111846923828125,-0.06031502038240433,-15.583985328674316,0.505628228187561,1.8812360763549805,3.9523730278015137,0.27548784017562866,-0.6273943185806274,-0.2510524392127991,2.6757776737213135
122,24311,24309,-0.108111172914505,0.11051449179649353,1.089552640914917,1.7956511974334717,-9.939216613769531,0.7221981883049011,1.883255124092102,3.954157590866089,0.27573248744010925,-0.5982606410980225,-0.24785162508487701,2.679419994354248
123,24321,24319,0.007832834497094154,0.013888910412788391,1.0046666860580444,2.8573076725006104,-13.67987060546875,1.132093906402588,1.8821240663528442,3.9541268348693848,0.27638548612594604,-0.29905375838279724,-0.22085878252983093,2.68532133102417
124,24331,24329,-0.02190832979977131,-0.021496998146176338,0.994899570941925,2.8359038829803467,-7.188464641571045,0.47144103050231934,1.8840289115905762,3.955044984817505,0.27715450525283813,-0.30802372097969055,-0.18223461508750916,2.694521188735962
125,24341,24339,0.02355736307799816,0.01628599874675274,1.0186529159545898,1.120113492012024,-12.827225685119629,0.359159916639328,1.8859257698059082,3.9538300037384033,0.277463436126709,-0.29196980595588684,-0.12941645085811615,2.7018401622772217
126,24351,24349,-0.04893573746085167,0.04208696633577347,1.1272414922714233,-0.6506274938583374,-10.14130687713623,0.641895055770874,1.8852602243423462,3.9557178020477295,0.2781524658203125,-0.09173638373613358,-0.12876266241073608,2.708064317703247
127,24361,24359,-0.0271855890750885,-0.01926126517355442,1.0702176094055176,-2.786480188369751,-3.3817076683044434,0.42775100469589233,1.887412428855896,3.9565229415893555,0.2763954997062683,-0.14845570921897888,-0.14225159585475922,2.7099719047546387
128,24371,24369,0.010342251509428024,-0.12730489671230316,0.9284056425094604,-1.9003554582595825,-9.422713279724121,1.179934024810791,1.88864266872406,3.95703387260437,0.27683231234550476,-0.09368515759706497,-0.18165165185928345,2.7053136825561523
129,24381,24379,-0.027293216437101364,-0.03831334784626961,0.9942420125007629,-1.6558390855789185,-7.102726936340332,0.6486615538597107,1.889167070388794,3.9567954540252686,0.2774293124675751,0.05968305096030235,-0.2238861471414566,2.7079453468322754
130,24391,24389,0.03400059789419174,0.06905341893434525,1.0108184814453125,-1.8026158809661865,-7.5004658699035645,0.20192818343639374,1.8909811973571777,3.955160140991211,0.27767354249954224,-0.03909019008278847,-0.1802036613225937,2.7091786861419678
131,24401,24399,-0.04701880365610123,-0.12906022369861603,1.0448325872421265,-0.3815913498401642,-11.522335052490234,0.9572904109954834,1.8908239603042603,3.95538067817688,0.2795754075050354,0.11185698211193085,-0.2171824872493744,2.709010601043701
132,24411,24409,0.05318760871887207,-0.29582467675209045,0.8929338455200195,3.219296455383301,-1.9896339178085327,1.0171843767166138,1.890891194343567,3.9554452896118164,0.28005504608154297,0.22578774392604828,-0.23090416193008423,2.717001438140869
133,24421,24419,0.06588214635848999,-0.3446657359600067,0.7361700534820557,0.9238185286521912,-5.545355796813965,0.9298191666603088,1.8919073343276978,3.95467472076416,0.28044235706329346,0.19179435074329376,-0.128350168466568,2.716475486755371
134,24431,24429,0.07837527990341187,-0.20513780415058136,0.8696081638336182,2.0140042304992676,-7.916247367858887,-0.021756501868367195,1.8916726112365723,3.953887701034546,0.27746257185935974,0.3267773687839508,-0.05298338830471039,2.7230894565582275
135,24441,24439,0.016815325245261192,-0.18863680958747864,0.9279252290725708,-1.8168387413024902,-3.5397443771362305,-0.0092389527708292,1.8936455249786377,3.9541590213775635,0.2772523760795593,0.2365797907114029,-0.1356526017189026,2.740534782409668
136,24451,24449,0.03968603536486626,-0.09346883744001389,1.0219911336898804,-3.8138673305511475,-2.6609206199645996,1.3890992403030396,1.892813801765442,3.955188512802124,0.2772035300731659,0.4325014054775238,-0.17653734982013702,2.738225221633911
137,24461,24459,0.1613169014453888,-0.2594227194786072,0.9601178169250488,-5.148989677429199,-2.982316732406616,-0.1496868133544922,1.8936574459075928,3.95523738861084,0.2768945097923279,0.36592939496040344,-0.2457762062549591,2.7524123191833496
138,24471,24469,0.05934183672070503,-0.2512957751750946,0.8588292002677917,-3.4626550674438477,-2.2533249855041504,0.2517968416213989,1.894727349281311,3.9545633792877197,0.2766405940055847,0.3922175467014313,-0.23693324625492096,2.750417709350586
139,24481,24479,-0.03474334999918938,-0.06746715307235718,0.9715149998664856,-2.956721782684326,1.767881989479065,-1.2100131511688232,1.897194743156433,3.956299304962158,0.2761291265487671,0.2530722916126251,-0.30244675278663635,2.775303602218628
140,24491,24489,-0.05426785722374916,0.03543470427393913,1.0906163454055786,-0.9508125185966492,-6.481466770172119,0.7886653542518616,1.8975752592086792,3.9561798572540283,0.2758553624153137,0.3247365653514862,-0.34746605157852173,2.760341167449951
141,24501,24499,-0.033359769731760025,0.11058249324560165,1.0632301568984985,0.40829309821128845,-6.314151287078857,0.41392940282821655,1.8970370292663574,3.955505847930908,0.27884453535079956,0.5814910531044006,-0.2757941782474518,2.7495667934417725
142,24511,24509,0.03430888429284096,0.023230068385601044,1.062286138534546,4.145419120788574,0.15742093324661255,-0.09099464118480682,1.8978769779205322,3.9541215896606445,0.27866700291633606,0.5789358615875244,-0.2695009410381317,2.740248441696167
143,24521,24519,-0.06625617295503616,0.1372889131307602,1.1521860361099243,0.10939641296863556,-5.152396202087402,1.1538200378417969,1.8996340036392212,3.9548134803771973,0.27856579422950745,0.51490318775177,-0.2247743308544159,2.750058650970459
144,24531,24529,-0.03223602846264839,0.18874378502368927,1.320691466331482,1.6701089143753052,1.0346745252609253,0.0372966006398201,1.9017062187194824,3.955472707748413,0.2815034091472626,0.48305901885032654,-0.28533250093460083,2.7707173824310303
145,24541,24539,-0.06085114926099777,0.061478350311517715,1.1661572456359863,0.3376918435096741,1.0035159587860107,0.9420107007026672,1.9019662141799927,3.9559273719787598,0.2820666432380676,0.5505202412605286,-0.33322805166244507,2.770364761352539
146,24551,24549,-0.05224760249257088,0.013037855736911297,1.0247913599014282,1.64519202709198,1.1209534406661987,0.033527668565511703,1.9027851819992065,3.9544456005096436,0.2828947901725769,0.5918086767196655,-0.2326515167951584,2.7613120079040527
147,24561,24559,0.039746690541505814,0.06817609816789627,1.0873782634735107,-0.7589477300643921,-5.208327770233154,0.18132193386554718,1.9041588306427002,3.956101894378662,0.2861209213733673,0.47923511266708374,-0.28431278467178345,2.7874972820281982
148,24571,24569,-0.05020241066813469,-0.0636783018708229,1.1304858922958374,1.9320757389068604,-2.4907302856445312,-0.05772056058049202,1.9039216041564941,3.955866575241089,0.28737348318099976,0.6518452763557434,-0.1924520581960678,2.7720093727111816
149,24581,24579,-0.030084412544965744,-0.0661105215549469,1.0062187910079956,0.7162401676177979,-0.15456978976726532,-0.4105962812900543,1.9039950370788574,3.95711612701416,0.28857842087745667,0.7205886244773865,-0.23913878202438354,2.7881076335906982
150,24591,24589,-0.003272413508966565,-0.14183969795703888,0.9821200370788574,0.4758668839931488,1.9515695571899414,-0.9533554315567017,1.90543532371521,3.957794189453125,0.28979378938674927,0.6764057278633118,-0.2185286581516266,2.772824287414551
151,24601,24599,0.005010394379496574,-0.0006545321666635573,1.0353540182113647,1.5492039918899536,1.847561240196228,-1.6128443479537964,1.9055920839309692,3.958024024963379,0.29046204686164856,0.749761164188385,-0.279453307390213,2.771308183670044
152,24611,24609,-0.03857075795531273,-0.25760185718536377,0.9144349098205566,2.5707223415374756,2.0957679748535156,-0.37875068187713623,1.9067593812942505,3.9580633640289307,0.2916085720062256,0.6389837861061096,-0.32278311252593994,2.7679226398468018
153,24621,24619,0.08735184371471405,-0.27363187074661255,0.8880200982093811,3.6532373428344727,2.2930238246917725,-0.8262312412261963,1.9085332155227661,3.958367347717285,0.2927362620830536,0.5326435565948486,-0.26556259393692017,2.753131151199341
154,24631,24629,-0.0050681657157838345,-0.147323876619339,0.9238905310630798,5.481877326965332,6.986856937408447,-0.2043280154466629,1.9085756540298462,3.9599826335906982,0.2960236966609955,0.5755629539489746,-0.34212905168533325,2.767441749572754
155,24641,24639,-0.03610807657241821,-0.04620356485247612,0.9854045510292053,5.678493499755859,1.2649891376495361,0.6245312094688416,1.9083172082901,3.959030866622925,0.2972862124443054,0.6358985304832458,-0.15148457884788513,2.737126350402832
156,24651,24649,0.02028411626815796,-0.028603537008166313,0.9366766214370728,5.086065292358398,2.4651927947998047,-0.2755972743034363,1.908896565437317,3.9599146842956543,0.29835668206214905,0.5813473463058472,-0.04662506654858589,2.7525455951690674
157,24661,24659,-0.021812371909618378,0.11922483146190643,0.96763014793396,5.149904727935791,-2.2121338844299316,-0.9397995471954346,1.9111393690109253,3.9591403007507324,0.3022165596485138,0.3690192401409149,0.04338047280907631,2.743978261947632
158,24671,24669,-0.1438329666852951,0.6224283576011658,1.0778731107711792,-1.9116454124450684,2.6914210319519043,-1.6104940176010132,1.9105123281478882,3.959648847579956,0.3034222424030304,0.4586046636104584,0.12590719759464264,2.730546236038208
159,24681,24679,-0.23933766782283783,0.34892699122428894,1.1220616102218628,-3.1948599815368652,9.031333923339844,-0.9612223505973816,1.911341667175293,3.9591593742370605,0.3045773506164551,0.40367797017097473,0.041604746133089066,2.711134433746338
160,24691,24689,-0.10662021487951279,0.3246051073074341,0.9593077301979065,-4.928161144256592,14.265559196472168,-0.8694577217102051,1.9125889539718628,3.9600062370300293,0.3057979643344879,0.27793586254119873,0.006834973115473986,2.695359945297241
161,24701,24699,-0.04626862704753876,0.39376530051231384,0.9981482028961182,-4.590866565704346,9.242193222045898,-0.7584400177001953,1.9146723747253418,3.960324287414551,0.3091448247432709,0.03809421882033348,-0.12833307683467865,2.702465295791626
162,24711,24709,-0.09940169006586075,0.612113893032074,1.1978480815887451,-3.244307041168213,3.7160353660583496,-0.36263689398765564,1.913804531097412,3.9593958854675293,0.31075721979141235,0.08862807601690292,-0.17352662980556488,2.693405866622925
163,24721,24719,-0.2346145361661911,0.9791678190231323,1.09980046749115,3.1296191215515137,-2.3084208965301514,-0.9100095629692078,1.9132578372955322,3.9593141078948975,0.3123963177204132,0.12816479802131653,-0.11274416744709015,2.6784658432006836
164,24731,24729,-0.07956647127866745,0.3417676091194153,1.0154188871383667,3.6607391834259033,2.948197603225708,-1.0029813051223755,1.9148385524749756,3.9596264362335205,0.31597432494163513,0.08571140468120575,-0.05702611431479454,2.6775362491607666
165,24741,24739,0.012777253985404968,0.2610485553741455,0.9911715984344482,7.825514316558838,-1.6306889057159424,-0.6872696876525879,1.915169596672058,3.9609429836273193,0.3178904056549072,0.16240812838077545,-0.060956358909606934,2.6712560653686523
166,24751,24749,0.08893878757953644,0.05887840688228607,0.943483829498291,6.770515441894531,-0.6781613826751709,-0.9093552231788635,1.9156666994094849,3.9607603549957275,0.31974831223487854,0.17488308250904083,0.061800308525562286,2.6950268745422363
167,24761,24759,-0.010125996544957161,0.027071340009570122,0.9567252993583679,3.75736665725708,1.167508602142334,-0.6128626465797424,1.916995644569397,3.9607629776000977,0.3223855793476105,0.11500194668769836,0.10553155839443207,2.667768716812134
168,24771,24769,-0.14199984073638916,0.26194900274276733,0.9350566267967224,3.9807801246643066,-0.8688189387321472,-1.8593930006027222,1.9164059162139893,3.961843729019165,0.32428622245788574,0.1784331351518631,0.04417583346366882,2.670423984527588
169,24781,24779,-0.18039339780807495,0.5882585048675537,0.8907982110977173,-3.49715256690979,6.890253067016602,-1.256635308265686,1.9157040119171143,3.9613873958587646,0.3261948227882385,0.3432748019695282,0.13446642458438873,2.6629984378814697
170,24791,24789,-0.17466500401496887,0.31739941239356995,0.9328610301017761,-6.059767723083496,14.283019065856934,-1.319125771522522,1.918365240097046,3.9615912437438965,0.3263072073459625,0.09106511622667313,0.11825653910636902,2.6377980709075928
171,24801,24799,-0.05985892191529274,0.07416050136089325,0.8472258448600769,-5.329427242279053,16.172256469726562,-0.4263228178024292,1.9199024438858032,3.961958169937134,0.32804763317108154,-0.07928241044282913,0.036318980157375336,2.626222848892212
172,24811,24809,-0.011060664430260658,0.05726007744669914,0.899678647518158,-2.792426347732544,10.330288887023926,-0.2899242043495178,1.9212614297866821,3.9625980854034424,0.3295391798019409,-0.252215713262558,-0.026610976085066795,2.621694564819336
173,24821,24819,0.01125968899577856,0.2731943428516388,0.9414913058280945,-3.2671775817871094,8.385015487670898,-1.230947494506836,1.9217301607131958,3.9628872871398926,0.3309321999549866,-0.33930644392967224,-0.048816315829753876,2.620405673980713
174,24831,24829,-0.22500045597553253,0.23128104209899902,0.8850128650665283,-3.1332523822784424,12.260366439819336,-0.6501815915107727,1.9260187149047852,3.963627576828003,0.33006858825683594,-0.7977725863456726,-0.1317545622587204,2.6156656742095947
175,24841,24839,-0.49661415815353394,0.4927186965942383,1.0098106861114502,-2.2828941345214844,8.301043510437012,-0.6399648785591125,1.9269028902053833,3.9637558460235596,0.33112627267837524,-0.8756391406059265,-0.16532690823078156,2.608403205871582
176,24851,24849,-0.21352453529834747,0.8057762980461121,0.9290881156921387,3.3881783485412598,-1.8477611541748047,-1.4228676557540894,1.928390622138977,3.963304281234741,0.331926554441452,-1.0003396272659302,-0.16851365566253662,2.5910933017730713
177,24861,24859,-0.04293790087103844,0.5086241364479065,0.8519961833953857,5.11456298828125,-2.8767573833465576,-2.281419277191162,1.929271936416626,3.9624722003936768,0.33179497718811035,-0.9964761137962341,-0.15156570076942444,2.5521819591522217
178,24871,24869,-0.059691473841667175,0.13074064254760742,0.8276105523109436,10.182133674621582,-20.174522399902344,-1.3104459047317505,1.9283164739608765,3.9634318351745605,0.3328680396080017,-0.7566637992858887,-0.09549951553344727,2.555713415145874
179,24881,24879,-0.2399415224790573,-0.04154973849654198,0.9841650128364563,12.16859245300293,-19.97982406616211,-1.6560330390930176,1.9294742345809937,3.963029384613037,0.3333624303340912,-0.6726685166358948,0.03408591449260712,2.5386135578155518
180,24891,24889,-0.24293331801891327,0.21451504528522491,1.019704818725586,8.148833274841309,-11.239019393920898,-1.5954837799072266,1.9279757738113403,3.9620184898376465,0.33358219265937805,-0.2422453761100769,0.2409442812204361,2.525686264038086
181,24901,24899,-0.17250679433345795,0.5968294143676758,1.006787896156311,6.337677478790283,-13.331510543823242,-2.0321013927459717,1.9297806024551392,3.9627885818481445,0.33408913016319275,-0.278463214635849,0.2157808393239975,2.5032575130462646
182,24911,24909,-0.09240402281284332,0.5806791186332703,0.9119770526885986,3.412430763244629,-13.18151569366455,-2.1778202056884766,1.9312193393707275,3.9634222984313965,0.33465448021888733,-0.16477617621421814,0.2654552459716797,2.464975118637085
183,24921,24919,0.026298727840185165,0.05501346290111542,0.8516110181808472,-2.393876075744629,-3.5669450759887695,-2.1914584636688232,1.9328545331954956,3.963228702545166,0.33514654636383057,-0.1019352599978447,0.3583846688270569,2.463958501815796
184,24931,24929,-0.006254850421100855,-0.08614128082990646,0.8359299302101135,-5.077442169189453,0.09024781733751297,-2.534454345703125,1.9330974817276,3.963986873626709,0.33521679043769836,0.02690206840634346,0.33223938941955566,2.459479331970215
185,24941,24939,-0.09622343629598618,0.01362887118011713,0.953314483165741,-3.1331608295440674,-0.6798136234283447,-1.5529370307922363,1.9354255199432373,3.9657328128814697,0.3354189395904541,-0.08149319142103195,0.18522831797599792,2.4364476203918457
186,24951,24949,-0.017767032608389854,0.10052423179149628,0.9665058255195618,-3.202139377593994,1.62184739112854,-1.212831974029541,1.9366815090179443,3.9662270545959473,0.335593044757843,-0.10765336453914642,0.11407545208930969,2.4151394367218018
187,24961,24959,0.23154111206531525,0.1251831203699112,0.9230077862739563,-2.7176265716552734,-1.952432632446289,-2.227112293243408,1.9383620023727417,3.966264247894287,0.33579638600349426,-0.1898769587278366,0.07868119329214096,2.380800485610962
188,24971,24969,0.06054341420531273,-0.0033066673204302788,0.894097626209259,0.8772856593132019,-8.91677188873291,-1.5627211332321167,1.9387608766555786,3.9648492336273193,0.336058109998703,-0.0678563192486763,0.15947255492210388,2.3661322593688965
189,24981,24979,0.04111723601818085,-0.1282026618719101,0.9058636426925659,3.5391645431518555,-7.5106706619262695,-1.5133342742919922,1.9383165836334229,3.9633002281188965,0.33624574542045593,0.14763234555721283,0.22526638209819794,2.336846351623535
190,24991,24989,-0.028026890009641647,-0.07951278239488602,0.9414095878601074,6.234625339508057,-12.250152587890625,-0.4949997663497925,1.940199613571167,3.9632961750030518,0.3350297510623932,0.16596868634223938,0.3162132203578949,2.31968355178833
191,25001,24999,-0.13507695496082306,-0.008900193497538567,1.0652060508728027,5.181718349456787,-3.460252285003662,-1.2143934965133667,1.9426605701446533,3.966810464859009,0.3348728120326996,0.23975446820259094,0.1934535950422287,2.3382444381713867
192,25011,25009,-0.12055285274982452,0.35269343852996826,1.1293820142745972,2.974085807800293,-0.48061537742614746,-1.536569356918335,1.9440027475357056,3.9663021564483643,0.3347380757331848,0.2664429843425751,0.2942754030227661,2.3049933910369873
193,25021,25019,-0.05657190829515457,0.3248569667339325,0.970641016960144,2.234409809112549,-5.30342435836792,-1.502604365348816,1.9453574419021606,3.965580940246582,0.33468127250671387,0.2815605700016022,0.34265685081481934,2.2892706394195557
194,25031,25029,-0.013160428032279015,0.013579130172729492,0.9706054329872131,3.570819139480591,-4.7769622802734375,-0.40485459566116333,1.9466933012008667,3.9655957221984863,0.33248284459114075,0.3184393644332886,0.33791592717170715,2.2649006843566895
195,25041,25039,-0.024447161704301834,0.024257583543658257,0.9797403812408447,1.4161665439605713,-3.3664228916168213,-0.45835790038108826,1.9496703147888184,3.965479850769043,0.3321537971496582,0.2169116884469986,0.4215735197067261,2.263735294342041
196,25051,25049,0.011061935685575008,0.07176625728607178,0.9845771193504333,0.7099339365959167,-3.7737293243408203,-0.43754538893699646,1.9492244720458984,3.9670608043670654,0.33217117190361023,0.43779852986335754,0.38765645027160645,2.300091505050659
197,25061,25059,-0.01990160346031189,-0.059038612991571426,0.906400740146637,-0.22206005454063416,-4.820647716522217,-0.5428114533424377,1.94987952709198,3.9667484760284424,0.3296780586242676,0.4069293737411499,0.4228372871875763,2.268418073654175
198,25071,25069,-0.0868694931268692,-0.0003083334013354033,1.024083137512207,-1.0110524892807007,-5.722415447235107,-0.6283539533615112,1.9517359733581543,3.966978073120117,0.32918885350227356,0.40467098355293274,0.43006330728530884,2.2772533893585205
199,25081,25079,0.012679467909038067,-0.03475257754325867,0.9352983236312866,-0.41233691573143005,-9.193391799926758,0.11762479692697525,1.9533582925796509,3.9657270908355713,0.3286856710910797,0.41739001870155334,0.4328603446483612,2.26088547706604
200,25091,25089,-0.03716966509819031,-0.01596047729253769,0.9977164268493652,0.21493718028068542,-5.390897274017334,0.6133122444152832,1.9528627395629883,3.9665443897247314,0.3239472508430481,0.6631577014923096,0.46221354603767395,2.2834811210632324
201,25101,25099,-0.01803910732269287,-0.050007760524749756,0.9739148020744324,-1.2360713481903076,-3.999129295349121,1.4306254386901855,1.9532414674758911,3.9670865535736084,0.323196142911911,0.7218554615974426,0.3916378617286682,2.295675754547119
202,25111,25109,-0.008504007942974567,0.09696963429450989,1.020774006843567,-2.20149564743042,-2.339600086212158,1.1253587007522583,1.952509880065918,3.967132806777954,0.3225620687007904,0.9402043223381042,0.3683190643787384,2.333092451095581
203,25121,25119,-0.13242295384407043,0.22426678240299225,1.040013313293457,-1.1825218200683594,-0.40672123432159424,1.2185444831848145,1.9549647569656372,3.9697811603546143,0.3201959729194641,0.8458535075187683,0.34911710023880005,2.3972723484039307
204,25131,25129,-0.010689150542020798,-0.18586722016334534,0.9477195739746094,-2.5394837856292725,1.5405964851379395,0.33208727836608887,1.955491542816162,3.969575881958008,0.3194425702095032,0.9656137824058533,0.3565402626991272,2.398958921432495
205,25141,25139,-0.07458171248435974,0.14170537889003754,1.1779550313949585,-0.4263048470020294,3.6030261516571045,1.552067756652832,1.9583505392074585,3.969863176345825,0.31856340169906616,0.7482410669326782,0.3193279802799225,2.39833402633667
206,25151,25149,-0.03930005058646202,0.14139465987682343,1.0765365362167358,-0.35955435037612915,6.599799633026123,2.0082178115844727,1.9586548805236816,3.9714019298553467,0.31790170073509216,0.7805184125900269,0.2568536102771759,2.46211576461792
207,25161,25159,-0.05300326272845268,0.10761792212724686,1.1507586240768433,2.9722256660461426,1.0719484090805054,2.823357343673706,1.9604026079177856,3.970993757247925,0.31471744179725647,0.6504030227661133,0.36448878049850464,2.4677834510803223
208,25171,25169,0.0036602166946977377,0.12037555873394012,1.0981374979019165,3.993746519088745,2.555546522140503,2.4660892486572266,1.9596821069717407,3.9715561866760254,0.3141796886920929,0.7919430732727051,0.35294264554977417,2.524960517883301
209,25181,25179,-0.09564612805843353,0.12724344432353973,1.0157064199447632,3.324643135070801,-2.0180611610412598,2.527724504470825,1.9592052698135376,3.9712438583374023,0.3137301802635193,0.8642750978469849,0.34113651514053345,2.56298828125
210,25191,25189,-0.06977254897356033,0.022093545645475388,1.0426985025405884,2.0849852561950684,-3.2804617881774902,2.4737515449523926,1.9600441455841064,3.971855640411377,0.309827595949173,0.8493235111236572,0.40176334977149963,2.5909197330474854
211,25201,25199,0.11643999069929123,-0.32280054688453674,0.8532400727272034,1.8494081497192383,-0.3903224468231201,2.335745096206665,1.9608014822006226,3.972493886947632,0.30924269556999207,0.8178575038909912,0.4628031253814697,2.637497901916504
212,25211,25209,-0.009518231265246868,-0.03157155588269234,1.0595797300338745,-1.9956297874450684,1.6248706579208374,1.776505947113037,1.9627612829208374,3.972839832305908,0.3085900545120239,0.7169582843780518,0.45233094692230225,2.66054630279541
213,25221,25219,-0.08923254162073135,0.20072296261787415,1.1754976511001587,-2.626039981842041,-0.4337499439716339,2.235610246658325,1.9634228944778442,3.9723854064941406,0.30766454339027405,0.7600851058959961,0.4373299181461334,2.664525270462036
214,25231,25229,-0.059450019150972366,0.127202108502388,1.1056469678878784,-3.366300344467163,-1.7022790908813477,2.242382764816284,1.9630608558654785,3.972609519958496,0.3071998953819275,0.8932275176048279,0.3870379626750946,2.708740234375
215,25241,25239,-0.06413577497005463,0.20490998029708862,1.0771560668945312,-3.125731945037842,-0.6819459795951843,1.9244822263717651,1.9648345708847046,3.974015712738037,0.3067333996295929,0.7618973255157471,0.34385135769844055,2.7793140411376953
216,25251,25249,-0.12879875302314758,0.21876588463783264,1.1591814756393433,-1.599176049232483,-3.162325143814087,2.2456343173980713,1.964865803718567,3.9731645584106445,0.30652403831481934,0.8389139771461487,0.37973135709762573,2.7839252948760986
217,25261,25259,-0.09125589579343796,0.03556349501013756,1.1094930171966553,-1.319836974143982,0.39089658856391907,1.7841215133666992,1.9673001766204834,3.9733810424804688,0.3015758991241455,0.7179158329963684,0.34894174337387085,2.799325704574585
218,25271,25269,-0.05799146741628647,0.034215133637189865,1.0409778356552124,0.7163302302360535,-1.2058080434799194,1.9791063070297241,1.9670308828353882,3.9734890460968018,0.30137306451797485,0.8107328414916992,0.33219343423843384,2.827528953552246
219,25281,25279,-0.04215017333626747,-0.00314094009809196,1.0421948432922363,-1.4745912551879883,5.009960651397705,2.3133769035339355,1.9664993286132812,3.9727139472961426,0.3012455403804779,0.8872261047363281,0.33467167615890503,2.814962387084961
220,25291,25289,-0.12692569196224213,0.12977799773216248,1.0785517692565918,-1.1720973253250122,4.705343246459961,2.1833317279815674,1.9664894342422485,3.9734489917755127,0.297402948141098,0.9340059161186218,0.31560924649238586,2.906238317489624
221,25301,25299,0.04285493493080139,-0.18317802250385284,0.9313933849334717,-1.0766178369522095,6.575701713562012,2.0232279300689697,1.966286301612854,3.975224256515503,0.29714322090148926,0.9732294678688049,0.3244969844818115,2.985563278198242
222,25311,25309,-0.13655969500541687,0.019033169373869896,1.1124646663665771,-1.2288199663162231,6.8558149337768555,1.0852794647216797,1.9672890901565552,3.9751837253570557,0.29688242077827454,0.8990971446037292,0.36243730783462524,3.006303310394287
223,25321,25319,-0.13839605450630188,0.0761091560125351,1.1300631761550903,-1.7229063510894775,9.71988296508789,1.4540343284606934,1.9691853523254395,3.9756484031677246,0.297057569026947,0.7065242528915405,0.31453609466552734,3.020512819290161
224,25331,25329,-0.029965437948703766,0.14171725511550903,1.065301775932312,-2.8704535961151123,9.419318199157715,1.4816153049468994,1.9696568250656128,3.9755120277404785,0.296969473361969,0.6209747195243835,0.27089300751686096,3.010357141494751
225,25341,25339,-0.07191221415996552,0.08726664632558823,1.0093683004379272,-2.493508815765381,4.504941463470459,0.9147897362709045,1.9703025817871094,3.975492477416992,0.29702407121658325,0.5724608302116394,0.2267996221780777,3.036796808242798
226,25351,25349,-0.1719513237476349,-0.029614027589559555,1.024668574333191,-3.092980146408081,6.23699426651001,1.2960060834884644,1.970134973526001,3.975813150405884,0.2952043414115906,0.6046663522720337,0.1764974445104599,3.056165933609009
227,25361,25359,0.033883098512887955,-0.12061415612697601,0.9595096111297607,-0.08717980980873108,8.012128829956055,1.231521487236023,1.9720535278320312,3.9752748012542725,0.29518070816993713,0.38932356238365173,0.22928398847579956,3.055530309677124
228,25371,25369,0.04690225422382355,-0.20200534164905548,0.9058619737625122,-0.9999114274978638,5.074970245361328,1.4515018463134766,1.972599744796753,3.9763529300689697,0.29518818855285645,0.2849312722682953,0.22008033096790314,3.118746042251587
229,25381,25379,-0.0920407846570015,-0.05445694178342819,1.0779684782028198,-1.2471075057983398,5.131446838378906,0.9025226831436157,1.9727774858474731,3.9764626026153564,0.29528436064720154,0.2952808141708374,0.17309215664863586,3.134946584701538
230,25391,25389,-0.0916607677936554,0.16624896228313446,1.1102408170700073,-1.1389408111572266,1.6010550260543823,1.6025917530059814,1.9729126691818237,3.9759840965270996,0.2924478054046631,0.3264633119106293,0.23474512994289398,3.1545510292053223
231,25401,25399,-0.04486975446343422,0.0033283820375800133,1.0024150609970093,-1.8500752449035645,2.0129425525665283,1.1048868894577026,1.972387433052063,3.974991798400879,0.29240310192108154,0.3749821186065674,0.18716904520988464,3.136807680130005
232,25411,25409,-0.049236588180065155,-0.056048255413770676,1.022878885269165,-2.062384843826294,2.205568313598633,0.7747717499732971,1.9733620882034302,3.9752612113952637,0.29236871004104614,0.2501997947692871,0.14442932605743408,3.153470516204834
233,25421,25419,-0.010685211047530174,-0.0022258670069277287,1.0491559505462646,-1.4218515157699585,3.988262414932251,0.6210340261459351,1.9732718467712402,3.973886489868164,0.2909327447414398,0.2739306092262268,0.17576952278614044,3.130277633666992
234,25431,25429,-0.01569434627890587,0.06923824548721313,1.0986988544464111,-3.1248793601989746,4.799962997436523,0.9056622385978699,1.9751207828521729,3.9736461639404297,0.29077959060668945,-0.01973988674581051,0.1101229339838028,3.123457193374634
235,25441,25439,-0.0715729370713234,0.1973356008529663,1.1440017223358154,-3.1092922687530518,3.7853827476501465,1.5998872518539429,1.9753096103668213,3.9731130599975586,0.29088959097862244,-0.034378036856651306,0.10839657485485077,3.1436030864715576
236,25451,25449,-0.014522893354296684,0.2222176492214203,1.2003206014633179,-1.415880560874939,3.1453421115875244,0.8671542406082153,1.9753003120422363,3.9730947017669678,0.29013556241989136,-0.01710555888712406,0.04246778041124344,3.1767172813415527
237,25461,25459,-0.08770933002233505,0.24378043413162231,1.1395790576934814,-1.0042815208435059,0.4284001886844635,0.10461253672838211,1.9750711917877197,3.973585367202759,0.29052719473838806,0.03499956801533699,0.08673787117004395,3.199770927429199
238,25471,25469,-0.0471612773835659,0.24287894368171692,1.1273000240325928,0.7120575308799744,-0.762890636920929,-0.5079230666160583,1.974787950515747,3.974548816680908,0.2910689413547516,0.12500311434268951,0.04765477031469345,3.240138292312622
239,25481,25479,-0.18531256914138794,0.28204163908958435,1.2421866655349731,-1.1221286058425903,-1.6930955648422241,-0.38581234216690063,1.976544737815857,3.974362373352051,0.29162025451660156,-0.028824176639318466,0.08875202387571335,3.2443768978118896
240,25491,25489,-0.10739337652921677,0.19390074908733368,1.2592785358428955,-0.9307041764259338,2.493802070617676,-1.024397850036621,1.9768182039260864,3.975822925567627,0.2922511100769043,-0.05703463777899742,0.02149493247270584,3.289998769760132
241,25501,25499,0.07029401510953903,-0.14364808797836304,0.9919910430908203,0.3869996964931488,13.46115493774414,-2.4980785846710205,1.9769138097763062,3.9749133586883545,0.293280690908432,-0.14975859224796295,0.009065729565918446,3.2719619274139404
242,25511,25509,0.012389383278787136,-0.009088660590350628,1.02547025680542,-0.6437685489654541,1.1677327156066895,-0.08188550174236298,1.9792029857635498,3.9772980213165283,0.294253945350647,-0.4578046202659607,-0.12727107107639313,3.291696310043335
243,25521,25519,-0.06104382127523422,0.20851168036460876,0.9353717565536499,-2.1549830436706543,-4.900206565856934,-0.2585623264312744,1.9786367416381836,3.977141857147217,0.2899792492389679,-0.3425154983997345,-0.1528765857219696,3.2853198051452637
244,25531,25529,-0.012490467168390751,0.015583276748657227,0.9610657691955566,-0.010601791553199291,-6.2480926513671875,-0.7842109203338623,1.978388786315918,3.977205753326416,0.29100823402404785,-0.13813990354537964,-0.17222212255001068,3.2780144214630127
245,25541,25539,-0.10345438122749329,0.10707789659500122,1.1049526929855347,4.510416030883789,-10.838035583496094,0.6111524701118469,1.9795321226119995,3.976562738418579,0.29177212715148926,-0.16518190503120422,-0.10548274964094162,3.264979839324951
246,25551,25549,0.04055597260594368,-0.13672508299350739,0.9644086956977844,3.582690715789795,-4.675022125244141,-0.21918532252311707,1.9803322553634644,3.975364923477173,0.292366087436676,-0.1345600187778473,-0.052406199276447296,3.2304434776306152
247,25561,25559,-0.031229358166456223,-0.07828868925571442,0.9345186352729797,4.123174667358398,-1.7873058319091797,-0.19899041950702667,1.9800394773483276,3.9757988452911377,0.29328176379203796,-0.08067935705184937,0.010741181671619415,3.266458511352539
248,25571,25569,-0.000696900999173522,-0.21192729473114014,0.8728358149528503,3.0401346683502197,1.51531982421875,-0.788966715335846,1.9802089929580688,3.975743532180786,0.2941509187221527,-0.00021313239994924515,0.10405530035495758,3.292222738265991
249,25581,25579,0.16864582896232605,-0.09000494331121445,0.9543644785881042,0.07297234982252121,4.849339962005615,-0.8589980006217957,1.9825694561004639,3.9757561683654785,0.29476115107536316,-0.19143283367156982,0.16789276897907257,3.2989046573638916
250,25591,25589,0.06862916052341461,-0.27967414259910583,0.7840002179145813,-2.7392241954803467,7.6219377517700195,-0.8681461811065674,1.9823623895645142,3.9750871658325195,0.2932465374469757,-0.12409676611423492,0.18790218234062195,3.2764992713928223
251,25601,25599,-0.07008833438158035,0.09297182410955429,0.9971566200256348,-6.135653495788574,7.534041881561279,-0.683364748954773,1.9829785823822021,3.976499080657959,0.29373231530189514,-0.17891810834407806,0.08259141445159912,3.3115930557250977
252,25611,25609,-0.06500983983278275,0.313110888004303,1.1893452405929565,-7.26520299911499,4.915336608886719,-0.9101994037628174,1.9844985008239746,3.9776697158813477,0.29392361640930176,-0.3995330035686493,-0.0900178998708725,3.3400144577026367
253,25621,25619,-0.24320070445537567,0.6477043628692627,0.9711412191390991,-4.764788627624512,-1.0081286430358887,-0.16400116682052612,1.9852973222732544,3.977527141571045,0.29135265946388245,-0.5406520366668701,-0.14442193508148193,3.329070568084717
254,25631,25629,-0.04080839082598686,0.821448802947998,0.9846623539924622,-2.61623477935791,-5.276060581207275,-0.12187569588422775,1.9861559867858887,3.9776198863983154,0.2916088402271271,-0.5444240570068359,-0.16021394729614258,3.321300745010376
255,25641,25639,0.0032704733312129974,0.3008224368095398,1.014857292175293,0.07097665965557098,-9.398815155029297,0.6531935930252075,1.9853872060775757,3.976332426071167,0.29204925894737244,-0.2998918890953064,-0.19305554032325745,3.288435935974121
256,25651,25649,0.07896057516336441,-0.1056843027472496,0.9277682900428772,3.713029623031616,-11.141139030456543,1.6668084859848022,1.987315058708191,3.976109266281128,0.2923617362976074,-0.4142378866672516,-0.1624704897403717,3.2719836235046387
257,25661,25659,0.008902383036911488,-0.004435031674802303,1.0037809610366821,4.000088214874268,-10.482987403869629,1.9974591732025146,1.9869251251220703,3.975200891494751,0.2928219139575958,-0.12367686629295349,-0.09697044640779495,3.2858448028564453
258,25671,25669,0.05021755397319794,-0.21269163489341736,0.9648218750953674,2.876131296157837,-6.205591201782227,1.409241795539856,1.9888571500778198,3.974454879760742,0.2928098142147064,-0.2456161230802536,-0.03460505232214928,3.2885067462921143
259,25681,25679,0.006181506440043449,-0.24532759189605713,1.0195530652999878,1.5332708358764648,-6.511001110076904,1.8988821506500244,1.9879978895187378,3.9742183685302734,0.29059144854545593,0.06141985207796097,0.014638720080256462,3.312328577041626
260,25691,25689,0.03551618009805679,-0.142554372549057,0.9701845645904541,0.0719871073961258,-3.978686571121216,1.8419134616851807,1.98720383644104,3.9738316535949707,0.290647029876709,0.2684501111507416,0.031847547739744186,3.3316192626953125
261,25701,25699,-0.023959295824170113,0.000272912613581866,1.006937861442566,-3.772245407104492,-2.3892977237701416,2.6205461025238037,1.9884519577026367,3.974015712738037,0.29062139987945557,0.15440993010997772,-0.0036285186652094126,3.3400678634643555
262,25711,25709,-0.050001583993434906,-0.04655079543590546,0.9202356338500977,-5.063680648803711,4.472894191741943,1.5763570070266724,1.9886822700500488,3.973592758178711,0.29065680503845215,0.2315582036972046,0.026987705379724503,3.4023091793060303
263,25721,25719,-0.09100459516048431,0.1462440937757492,0.9617788195610046,-9.10794734954834,16.069351196289062,1.7406021356582642,1.9897500276565552,3.972301483154297,0.29105544090270996,0.0614488422870636,-0.03441943600773811,3.3711633682250977
264,25731,25729,-0.050496380776166916,0.31642666459083557,1.0954501628875732,-7.221646785736084,7.177858352661133,2.205946922302246,1.9904439449310303,3.9730491638183594,0.29107555747032166,-0.02020581066608429,-0.19824905693531036,3.3978466987609863
265,25741,25739,-0.05720703303813934,0.30324041843414307,1.1556316614151,-2.462594509124756,0.5966072082519531,2.7954883575439453,1.9910625219345093,3.972666025161743,0.29102668166160583,-0.047804806381464005,-0.31296905875205994,3.3830008506774902
266,25751,25749,-5.274223804008216e-05,-0.07103054225444794,0.9918608665466309,0.7607370018959045,-2.0235695838928223,3.230773687362671,1.991618037223816,3.9719126224517822,0.2951277792453766,-0.06570685654878616,-0.2326117902994156,3.397559881210327
267,25761,25759,0.03114919923245907,-0.16983981430530548,0.929682731628418,3.3518025875091553,-3.933520555496216,3.4232776165008545,1.9911893606185913,3.972200393676758,0.2956595718860626,0.11240796744823456,-0.2054479420185089,3.4925577640533447
268,25771,25769,-0.03949015215039253,-0.10890025645494461,0.9944080710411072,4.895036697387695,-6.59276819229126,2.7440390586853027,1.991640567779541,3.9709420204162598,0.2960270345211029,0.13697808980941772,-0.1628722846508026,3.480578899383545
269,25781,25779,-0.00048733086441643536,-0.09249494969844818,0.9851557612419128,4.208998203277588,-3.9263362884521484,2.910658121109009,1.9937455654144287,3.971327304840088,0.29550501704216003,0.0022771903313696384,-0.10451150685548782,3.526895523071289
270,25791,25789,-0.008407553657889366,0.06064152345061302,1.035649061203003,1.8339186906814575,-2.268833637237549,2.0416672229766846,1.9942277669906616,3.9712822437286377,0.2958764135837555,0.07447488605976105,-0.09884630888700485,3.544999361038208
271,25801,25799,-0.018497630953788757,0.34574297070503235,1.0071992874145508,0.6940529346466064,-8.58922290802002,3.9034948348999023,1.9949626922607422,3.971141815185547,0.29621270298957825,0.12089689075946808,-0.09890991449356079,3.5420563220977783
272,25811,25809,0.049217935651540756,0.05629564821720123,0.9690070152282715,-2.0733022689819336,-3.61625075340271,3.0611541271209717,1.9969937801361084,3.9713666439056396,0.29640060663223267,0.020233456045389175,-0.2086489349603653,3.5712783336639404
273,25821,25819,0.05204029753804207,-0.025318479165434837,0.9931578040122986,-2.8756930828094482,-0.025673577561974525,2.8983466625213623,1.9966167211532593,3.970637083053589,0.2968581020832062,0.08914018422365189,-0.2530179023742676,3.5904905796051025
274,25831,25829,-0.018472952768206596,0.04226096346974373,1.0719807147979736,-1.516242504119873,-4.591874599456787,3.399367094039917,1.9966764450073242,3.97117280960083,0.2971741855144501,0.17501316964626312,-0.28305989503860474,3.6268844604492188
275,25841,25839,0.02336842566728592,0.021018974483013153,1.0358660221099854,-0.2790496349334717,-5.1417236328125,2.6674911975860596,1.9956847429275513,3.9700496196746826,0.29757386445999146,0.3085276782512665,-0.2858850359916687,3.578277111053467
276,25851,25849,0.031101886183023453,-0.2651776075363159,0.8944894671440125,1.8707520961761475,-3.786846160888672,2.9037230014801025,1.9973222017288208,3.970297336578369,0.29761257767677307,0.25886112451553345,-0.2732655704021454,3.5735459327697754
277,25861,25859,-0.08193015307188034,0.177609384059906,1.2068121433258057,2.59277081489563,0.0625203549861908,2.67323899269104,1.9978744983673096,3.970238208770752,0.29786014556884766,0.25955238938331604,-0.3214768171310425,3.6320016384124756
278,25871,25869,-0.04477090761065483,0.017110861837863922,1.1190959215164185,3.9621810913085938,7.8405375480651855,2.3330657482147217,1.999004602432251,3.969916820526123,0.2982073426246643,0.24145694077014923,-0.26550090312957764,3.6800899505615234
279,25881,25879,-0.12578852474689484,0.06467010825872421,1.0192841291427612,4.138400554656982,3.873472213745117,2.833369255065918,1.9993174076080322,3.9706902503967285,0.2965182363986969,0.2667976915836334,-0.1736203134059906,3.741725444793701
280,25891,25889,-0.21477219462394714,0.17170964181423187,1.0542752742767334,-0.8653750419616699,13.78305435180664,2.646719455718994,1.9997358322143555,3.971148729324341,0.29694879055023193,0.25086671113967896,-0.18729950487613678,3.7793312072753906
281,25901,25899,-0.15398845076560974,0.3937435746192932,1.1089141368865967,3.3663060665130615,-0.5234051942825317,2.506204128265381,1.999549150466919,3.9720466136932373,0.2975246012210846,0.2486579567193985,-0.24435368180274963,3.796928882598877
282,25911,25909,-0.0990740954875946,0.34091901779174805,1.1703182458877563,4.199380874633789,-2.6804518699645996,2.680790424346924,1.9991021156311035,3.971337080001831,0.29812541604042053,0.2951735854148865,-0.22039474546909332,3.8005363941192627
283,25921,25919,-0.045259516686201096,0.138311505317688,1.1189178228378296,4.582265377044678,-3.163828134536743,3.1395628452301025,2.001025438308716,3.9711780548095703,0.300101637840271,0.12714794278144836,-0.17137093842029572,3.824032783508301
284,25931,25929,0.010292611084878445,-0.016840860247612,1.0454275608062744,5.293054580688477,-3.9031364917755127,3.2106964588165283,2.001438856124878,3.972271203994751,0.30099502205848694,0.13669182360172272,-0.17143340408802032,3.899519443511963
285,25941,25939,0.09831634163856506,-0.02114768512547016,1.0572060346603394,3.3318138122558594,0.23406179249286652,2.06475567817688,2.001253366470337,3.973159074783325,0.30211278796195984,0.25049033761024475,-0.14931508898735046,3.9372434616088867
286,25951,25949,0.09875556826591492,-0.20036031305789948,0.9356892704963684,2.783996820449829,-5.287345886230469,1.1693724393844604,2.0010476112365723,3.97273325920105,0.3035118281841278,0.35052791237831116,-0.04554291069507599,3.9595608711242676
287,25961,25959,-0.052207134664058685,-0.0943208709359169,0.9814878702163696,3.8582534790039062,1.627029538154602,1.2997931241989136,2.0016088485717773,3.973273515701294,0.3045758306980133,0.38483476638793945,-0.015854721888899803,3.989543914794922
288,25971,25969,0.00723510654643178,-0.0059777493588626385,0.9592568278312683,0.7703931927680969,9.552104949951172,1.4858864545822144,2.001919746398926,3.972717761993408,0.30552244186401367,0.31367650628089905,0.06794016808271408,3.979862689971924
289,25981,25979,-0.08677031099796295,0.0661308690905571,1.0357674360275269,4.614635944366455,6.439273834228516,2.6471478939056396,2.002594470977783,3.9726784229278564,0.3083736300468445,0.26377832889556885,0.09811991453170776,4.018500804901123
290,25991,25989,-0.11066462099552155,0.05487210676074028,0.9657351970672607,0.07585494965314865,12.743471145629883,1.091625690460205,2.003763437271118,3.971865653991699,0.30939215421676636,0.09718161076307297,0.12657618522644043,3.9984633922576904
291,26001,25999,-0.059788089245557785,0.36484456062316895,0.9942744970321655,-3.3895623683929443,12.696990966796875,1.47864830493927,2.00449800491333,3.972771167755127,0.3105003833770752,-0.06072233244776726,0.11462000012397766,4.051580429077148
292,26011,26009,-0.07116667926311493,0.4608180820941925,0.8804226517677307,-2.5868184566497803,10.389402389526367,1.1698554754257202,2.005537748336792,3.9730303287506104,0.3116682767868042,-0.24734720587730408,-0.01107369177043438,4.026557445526123
293,26021,26019,-0.12789015471935272,0.3655376136302948,1.022039771080017,-1.6790968179702759,5.223977088928223,1.570568561553955,2.006254196166992,3.9731860160827637,0.31263989210128784,-0.41035884618759155,-0.049893610179424286,4.0005621910095215
294,26031,26029,-0.14117959141731262,0.09172268211841583,1.0245991945266724,1.8946802616119385,-1.445746898651123,2.036851406097412,2.0061779022216797,3.9724419116973877,0.3137943148612976,-0.3362947702407837,-0.03617633879184723,4.0211381912231445
295,26041,26039,-0.05025012791156769,0.1875186264514923,0.9391026496887207,8.814461708068848,-11.811777114868164,2.2205393314361572,2.0073046684265137,3.9720373153686523,0.3146969676017761,-0.37516236305236816,-0.059790439903736115,3.989609718322754
296,26051,26049,0.1685699075460434,0.36538195610046387,0.9171240925788879,3.9017961025238037,0.9250047206878662,1.612962007522583,2.0074517726898193,3.9726483821868896,0.3155446946620941,-0.2006598562002182,0.05894780531525612,4.052227020263672
297,26061,26059,0.2710649073123932,0.20690394937992096,0.8627320528030396,2.595867156982422,-1.5730360746383667,0.7617648243904114,2.0088536739349365,3.9729862213134766,0.3165034353733063,-0.23289863765239716,0.07250192016363144,4.054488182067871
298,26071,26069,-0.052807241678237915,0.11647138744592667,0.8871297240257263,2.2593705654144287,0.3001161515712738,0.8755123615264893,2.0093560218811035,3.9728195667266846,0.3173140287399292,-0.2064339518547058,0.17210346460342407,4.111307621002197
299,26081,26079,-0.016706954687833786,-0.03297796472907066,0.9035502076148987,3.954272747039795,-4.367730617523193,0.8977584838867188,2.010930061340332,3.9746780395507812,0.31544652581214905,-0.2640078067779541,0.15617682039737701,4.1405720710754395
300,26091,26089,-0.07157609611749649,0.3375208079814911,0.9156122803688049,-0.1730291098356247,9.384842872619629,0.10594141483306885,2.012331008911133,3.9752633571624756,0.31574320793151855,-0.33979344367980957,0.1416172832250595,4.149195194244385
301,26101,26099,-0.01966099441051483,0.25838327407836914,0.9698519110679626,-1.0093244314193726,7.909731864929199,0.5591550469398499,2.0128185749053955,3.9755992889404297,0.3161274492740631,-0.37308764457702637,0.16979171335697174,4.168515205383301
302,26111,26109,0.12281063944101334,-0.20443791151046753,0.7818928360939026,-3.7818562984466553,6.054251670837402,-0.2954716384410858,2.0125863552093506,3.974961757659912,0.31729400157928467,-0.3953752815723419,0.1985936313867569,4.160793304443359
303,26121,26119,-0.02647494338452816,-0.11064421385526657,0.9954838156700134,-2.1580617427825928,4.9447712898254395,-0.9766789674758911,2.012026309967041,3.97522234916687,0.31758877635002136,-0.3242824375629425,0.1273137778043747,4.144393444061279
304,26131,26129,-0.2225719690322876,0.29063719511032104,0.9844321012496948,-0.2755089998245239,1.9886562824249268,-0.3448066711425781,2.011535167694092,3.9744396209716797,0.3177819550037384,-0.23522861301898956,0.2099856734275818,4.163475036621094
305,26141,26139,-0.10530602931976318,0.13042542338371277,0.9143424034118652,0.7221772074699402,9.130804061889648,-0.5161292552947998,2.0133566856384277,3.97424054145813,0.31784385442733765,-0.36880019307136536,0.21812695264816284,4.150918483734131
306,26151,26149,0.044175587594509125,0.041891586035490036,0.9494473934173584,1.6646608114242554,3.231034755706787,-0.29317012429237366,2.014658212661743,3.9753952026367188,0.31860780715942383,-0.5491601228713989,0.22063325345516205,4.175194263458252
307,26161,26159,0.05274495854973793,0.00868515856564045,0.9302385449409485,1.4654093980789185,3.0446789264678955,-0.6451169848442078,2.015831708908081,3.975337028503418,0.3186694383621216,-0.6015537977218628,0.25372663140296936,4.166884899139404
308,26171,26169,-0.1785157471895218,0.21468573808670044,0.9797449707984924,1.690507411956787,0.24203677475452423,-0.8755224943161011,2.015794038772583,3.975109815597534,0.31873536109924316,-0.5271757245063782,0.2881701588630676,4.164433002471924
309,26181,26179,-0.3291783928871155,0.42120927572250366,1.0383343696594238,1.9931988716125488,-5.7314453125,-1.700339674949646,2.016913652420044,3.975100517272949,0.320928156375885,-0.5121960639953613,0.3181442618370056,4.142100811004639
310,26191,26189,-0.26562514901161194,0.4834839999675751,1.1011711359024048,-0.46024850010871887,1.5181987285614014,-1.6925249099731445,2.0176496505737305,3.9751408100128174,0.3210355043411255,-0.4640195965766907,0.26420724391937256,4.12746000289917
311,26201,26199,-0.0031464858911931515,0.19218234717845917,0.9890504479408264,-0.1575392782688141,-0.9518495798110962,0.05124276876449585,2.0169923305511475,3.975707530975342,0.3212510049343109,-0.40067076683044434,0.2619788944721222,4.120375156402588
312,26211,26209,-0.062448497861623764,0.26586440205574036,1.0239369869232178,1.3834681510925293,-5.316626071929932,0.22941842675209045,2.0193192958831787,3.9754257202148438,0.32222750782966614,-0.5741762518882751,0.2590610086917877,4.0751633644104
313,26221,26219,-0.3177391290664673,0.35316002368927,1.1009111404418945,-1.7935583591461182,0.8142785429954529,-0.15153424441814423,2.0198452472686768,3.9759819507598877,0.322588175535202,-0.4606090486049652,0.2627072036266327,4.0966949462890625
314,26231,26229,-0.14900954067707062,0.25772008299827576,0.8447585701942444,-2.8226163387298584,2.791860580444336,-1.602494716644287,2.020045280456543,3.9767801761627197,0.3229566216468811,-0.37095531821250916,0.27459439635276794,4.145440578460693
315,26241,26239,-0.0020030629821121693,0.07940702140331268,0.9701967239379883,-1.4770939350128174,2.50966215133667,-1.4454470872879028,2.0204391479492188,3.9767887592315674,0.3233430087566376,-0.3418450653553009,0.27966710925102234,4.160548686981201
316,26251,26249,-0.11950839310884476,-0.006526859011501074,0.9872514009475708,-1.5721652507781982,3.002034902572632,-0.9053710103034973,2.020045757293701,3.9779529571533203,0.31964296102523804,-0.24380004405975342,0.26605722308158875,4.183827877044678
317,26261,26259,-0.13949784636497498,0.06201848015189171,1.0793012380599976,-4.825145244598389,11.949501037597656,-0.8514138460159302,2.0226056575775146,3.977416753768921,0.31952741742134094,-0.49206727743148804,0.30460527539253235,4.182603359222412
318,26271,26269,0.10709630697965622,-0.09122388064861298,0.9741078615188599,0.8660401105880737,0.7911027669906616,-0.21383671462535858,2.0225934982299805,3.9775052070617676,0.3196375072002411,-0.4941275417804718,0.3055024743080139,4.218265533447266
319,26281,26279,0.05882977694272995,-0.11814218759536743,0.9617143869400024,-0.6697013974189758,-2.335561513900757,-1.0237244367599487,2.0236644744873047,3.9790875911712646,0.31768426299095154,-0.5341644287109375,0.2812032103538513,4.278461456298828
320,26291,26289,-0.21480335295200348,0.36942625045776367,1.0189123153686523,-3.4978082180023193,1.0692851543426514,-1.3848836421966553,2.0235533714294434,3.978599786758423,0.3175886273384094,-0.43395301699638367,0.2629331350326538,4.262485027313232
321,26301,26299,-0.22564338147640228,1.0745517015457153,1.0513349771499634,-1.5761667490005493,-0.738751232624054,-1.2931023836135864,2.023597240447998,3.979682445526123,0.31745269894599915,-0.4385884702205658,0.21949410438537598,4.2701263427734375
322,26311,26309,-0.16224944591522217,0.9682526588439941,1.0410887002944946,-1.3545585870742798,-2.629702568054199,-1.5777043104171753,2.0234923362731934,3.9793572425842285,0.31585243344306946,-0.42559438943862915,0.1699986755847931,4.232880592346191
323,26321,26319,-0.19140712916851044,0.12268651276826859,0.9794347882270813,-1.560296654701233,-0.4615737199783325,-0.8332859873771667,2.0229744911193848,3.979161024093628,0.3157544732093811,-0.3166941702365875,0.1440945267677307,4.193307399749756
324,26331,26329,-0.17514203488826752,0.10981183499097824,1.1379244327545166,1.1552921533584595,-2.328573703765869,-0.7833330035209656,2.0224480628967285,3.9788906574249268,0.31558868288993835,-0.2727152407169342,0.09209870547056198,4.168588638305664
325,26341,26339,-0.0022942351642996073,0.12534840404987335,1.0486887693405151,-2.0674092769622803,4.615434169769287,-0.9146208167076111,2.0246059894561768,3.979248046875,0.3175686001777649,-0.45194804668426514,0.057835351675748825,4.160361289978027
326,26351,26349,-0.21550703048706055,0.4733245372772217,1.089754343032837,0.6892783641815186,-0.4096373915672302,-1.1044867038726807,2.0244431495666504,3.9801392555236816,0.31772711873054504,-0.41072314977645874,0.03110758773982525,4.201962471008301
327,26361,26359,0.019654633477330208,0.8396820425987244,0.9630707502365112,0.3574390113353729,2.3800714015960693,-1.326019048690796,2.025541305541992,3.979642391204834,0.31786009669303894,-0.45602864027023315,0.1263485997915268,4.223855018615723
328,26371,26369,0.11800746619701385,0.1716880351305008,0.9271273612976074,0.7266237139701843,2.1262519359588623,-1.3476015329360962,2.026378631591797,3.9799306392669678,0.31802111864089966,-0.5020761489868164,0.139817014336586,4.220246315002441
329,26381,26379,-0.040165260434150696,-0.1318584680557251,0.9464573264122009,0.5722637176513672,-2.970421552658081,-1.14212167263031,2.0265026092529297,3.980926990509033,0.31539255380630493,-0.4811089038848877,0.08831381052732468,4.23914098739624
330,26391,26389,-0.199424147605896,-0.07982441037893295,0.9877334833145142,-1.4823707342147827,1.2456915378570557,-1.0596461296081543,2.0277702808380127,3.981003761291504,0.31524181365966797,-0.5518033504486084,0.11486760526895523,4.201004981994629
331,26401,26399,-0.12556585669517517,0.23337331414222717,1.0825138092041016,-4.3781208992004395,2.0120620727539062,-1.2176761627197266,2.029273509979248,3.9807305335998535,0.31499266624450684,-0.6202177405357361,0.163564532995224,4.253075122833252
332,26411,26409,-0.24772493541240692,0.4715542197227478,1.1711431741714478,-2.979128360748291,-0.6628293991088867,-2.7658934593200684,2.0293331146240234,3.9817092418670654,0.31256693601608276,-0.5674408674240112,0.06023279204964638,4.266748905181885
333,26421,26419,-0.03779635950922966,0.5365057587623596,1.1010984182357788,-1.7439165115356445,-3.6263720989227295,-2.32692289352417,2.0306968688964844,3.9829795360565186,0.3123302757740021,-0.6521157026290894,-0.11347553133964539,4.219790458679199
334,26431,26429,-0.057462114840745926,0.3672163188457489,1.0766726732254028,-0.529194712638855,-1.6820650100708008,-2.0535166263580322,2.0314605236053467,3.9838671684265137,0.3122907876968384,-0.648473858833313,-0.09210625290870667,4.2720723152160645
335,26441,26439,-0.008546534925699234,0.1285562813282013,1.0808812379837036,4.408222198486328,-10.007969856262207,-1.7888953685760498,2.0327858924865723,3.9846086502075195,0.31261497735977173,-0.601892352104187,-0.0990053340792656,4.299736976623535
336,26451,26449,0.12566989660263062,-0.2040705531835556,0.8906037211418152,1.8687039613723755,-6.392033576965332,-2.5566046237945557,2.0339813232421875,3.985184907913208,0.31269538402557373,-0.5618531703948975,-0.11086276918649673,4.270290851593018
337,26461,26459,0.07604144513607025,-0.2115243375301361,0.9342170357704163,2.366335868835449,-5.489422798156738,-2.238137722015381,2.0345253944396973,3.9839634895324707,0.3127896785736084,-0.4835835099220276,-0.04438227042555809,4.186398506164551
338,26471,26469,-0.01857578568160534,-0.1958465278148651,0.8706184029579163,3.1877858638763428,-6.5437397956848145,-1.9809060096740723,2.0345451831817627,3.983933925628662,0.312925785779953,-0.2784918248653412,0.047040846198797226,4.195258617401123
339,26481,26479,-0.04212912544608116,0.25619107484817505,0.9977155327796936,2.4286410808563232,-6.537280559539795,-2.2921669483184814,2.037316083908081,3.985246419906616,0.3159717619419098,-0.3926743268966675,0.09514985233545303,4.247876167297363
340,26491,26489,-0.10557932406663895,0.5392894148826599,1.104697823524475,0.23694904148578644,-0.24364666640758514,-2.858032464981079,2.0385923385620117,3.9855916500091553,0.31607431173324585,-0.2889161705970764,0.12075045704841614,4.262021541595459
341,26501,26499,0.0706554725766182,-0.027203742414712906,1.0064842700958252,-1.9510926008224487,2.751157283782959,-3.2456748485565186,2.038377523422241,3.9869375228881836,0.31624484062194824,-0.20200158655643463,0.1202530488371849,4.301870822906494
342,26511,26509,0.06353271752595901,0.11261847615242004,1.0570216178894043,-5.778536796569824,6.8367919921875,-3.8928749561309814,2.0386946201324463,3.9873011112213135,0.31376928091049194,-0.2240843027830124,0.054279573261737823,4.266843318939209
343,26521,26519,-0.017068101093173027,0.4373967945575714,1.2181954383850098,-6.845294952392578,4.95219612121582,-3.233898639678955,2.0407419204711914,3.988603115081787,0.31369155645370483,-0.4613872170448303,-0.0764555111527443,4.250927448272705
344,26531,26529,-0.04342027008533478,0.7935861349105835,1.0466723442077637,-1.8916089534759521,-4.2724080085754395,-3.814108371734619,2.0400545597076416,3.98832368850708,0.3139627277851105,-0.3918818235397339,-0.1641826182603836,4.185249328613281
345,26541,26539,-0.1383778303861618,-0.2605012357234955,0.9310141205787659,1.0335736274719238,-3.894505500793457,-3.17901873588562,2.042018175125122,3.987844228744507,0.3137107789516449,-0.47642332315444946,-0.1599978506565094,4.100073337554932
346,26551,26549,-0.09269890189170837,-0.37110987305641174,0.9016438722610474,3.8792576789855957,-7.030802249908447,-2.512772560119629,2.043743371963501,3.987044334411621,0.3137595057487488,-0.578428328037262,-0.09087642282247543,4.092320919036865
347,26561,26559,0.06747693568468094,-0.13039661943912506,0.9113929271697998,4.76124906539917,-7.2955780029296875,-2.914750814437866,2.0434117317199707,3.9873805046081543,0.3141683340072632,-0.32618802785873413,-0.0066845654509961605,4.131643295288086
348,26571,26569,-0.02414173074066639,0.13232293725013733,1.1106698513031006,4.223894119262695,-5.072165489196777,-3.416133165359497,2.044862747192383,3.9890074729919434,0.31413733959198,-0.34319165349006653,-0.015977660194039345,4.135946273803711
349,26581,26579,-0.19872553646564484,0.2990573048591614,1.202021837234497,5.012101650238037,-9.057225227355957,-3.3858306407928467,2.045325517654419,3.9896352291107178,0.31454217433929443,-0.25252464413642883,-0.09208879619836807,4.065582275390625
350,26591,26589,-0.2003372311592102,0.3772731423377991,1.1365944147109985,1.6325523853302002,-6.566288948059082,-3.957636594772339,2.046876907348633,3.990427255630493,0.31470987200737,-0.2412150502204895,-0.09352532774209976,4.020024299621582
351,26601,26599,-0.09465157985687256,0.5174328684806824,1.1125694513320923,2.3788719177246094,-6.179866790771484,-4.445291996002197,2.0478806495666504,3.990374803543091,0.31505411863327026,-0.19523854553699493,-0.12825146317481995,3.9694974422454834
352,26611,26609,-0.17298530042171478,0.24382689595222473,1.0019280910491943,2.5979297161102295,-10.747811317443848,-4.144168853759766,2.046774387359619,3.9900083541870117,0.31430691480636597,0.05259697511792183,-0.1551632434129715,3.8547732830047607
353,26621,26619,-0.2310207039117813,0.37721145153045654,1.1742486953735352,2.7937684059143066,-5.116308689117432,-3.075326681137085,2.04952335357666,3.9912257194519043,0.31472840905189514,-0.050838734954595566,-0.19389809668064117,3.8395748138427734
354,26631,26629,0.015981223434209824,0.28120991587638855,1.086832880973816,7.374347686767578,-1.8829349279403687,-2.8217885494232178,2.0484750270843506,3.991151809692383,0.3154471814632416,0.1301068216562271,-0.09240243583917618,3.825456380844116
355,26641,26639,-0.03582562878727913,-0.09357491135597229,0.9262753129005432,9.363242149353027,-2.3585071563720703,-2.580319404602051,2.0504229068756104,3.9912774562835693,0.30933260917663574,0.0631406158208847,0.012107538990676403,3.8024280071258545
356,26651,26649,-0.09053023159503937,-0.08109720051288605,0.9046557545661926,8.858597755432129,-6.033623218536377,-2.15787935256958,2.0506131649017334,3.990525722503662,0.3097130358219147,0.2136896699666977,0.18570202589035034,3.7527806758880615
357,26661,26659,-0.4238658547401428,0.23029345273971558,1.0329004526138306,5.460238933563232,-1.1469752788543701,-3.577359199523926,2.0510621070861816,3.989989757537842,0.30994805693626404,0.3108113408088684,0.34003427624702454,3.7258248329162598
358,26671,26669,-0.08479362726211548,0.11052244156599045,0.9809142351150513,2.633837938308716,2.4683778285980225,-3.420311689376831,2.0523674488067627,3.989651679992676,0.3090335726737976,0.2533159852027893,0.438263475894928,3.684074878692627
359,26681,26679,-0.11432948708534241,0.4206990599632263,1.0597248077392578,-1.877047061920166,7.011004447937012,-3.2459421157836914,2.052945852279663,3.990049362182617,0.30921703577041626,0.26497882604599,0.37343043088912964,3.6161439418792725
360,26691,26689,0.07779411226511002,0.1315188705921173,0.9600241780281067,-5.482119560241699,7.581660270690918,-2.9063525199890137,2.0551095008850098,3.990785837173462,0.309270441532135,0.002488041063770652,0.30327197909355164,3.595520257949829
361,26701,26699,-0.012531667947769165,0.03794742375612259,1.070218563079834,-4.394091606140137,2.846059560775757,-2.8796885013580322,2.0552146434783936,3.9925758838653564,0.3095080256462097,0.003129205433651805,0.16008245944976807,3.5977511405944824
362,26711,26709,0.10600318759679794,-0.11112086474895477,1.0397827625274658,-4.176065444946289,0.7415643930435181,-3.020320177078247,2.056849718093872,3.992109775543213,0.3090949058532715,-0.1158331036567688,0.1781885176897049,3.6081902980804443
363,26721,26719,-0.0007268319022841752,0.4802522659301758,1.0406737327575684,-1.0147985219955444,-6.952229022979736,-3.553774356842041,2.0561704635620117,3.993849754333496,0.30947181582450867,0.01861051842570305,0.12833574414253235,3.6679325103759766
364,26731,26729,0.0005776972975581884,0.3583906888961792,0.9245406985282898,-0.6836777925491333,-7.986647129058838,-3.982365369796753,2.0550975799560547,3.9926586151123047,0.30987101793289185,0.23690134286880493,0.2075766921043396,3.6561522483825684
365,26741,26739,-0.09869006276130676,-0.12424829602241516,0.9217497706413269,5.585378170013428,-9.63568115234375,-3.5832021236419678,2.0565483570098877,3.9932425022125244,0.30792999267578125,0.19160084426403046,0.2749399244785309,3.646491050720215
366,26751,26749,-0.030875250697135925,0.08842406421899796,1.0066962242126465,5.114369869232178,-1.334296464920044,-3.6732754707336426,2.0579845905303955,3.994535446166992,0.30799952149391174,0.25019559264183044,0.28955739736557007,3.6423749923706055
367,26761,26759,-0.02785547636449337,0.12043193727731705,1.0661767721176147,1.3403064012527466,7.061978816986084,-3.859806776046753,2.05907940864563,3.9954800605773926,0.30812951922416687,0.27377617359161377,0.3780718147754669,3.7176218032836914
368,26771,26769,0.23532450199127197,-0.09701737016439438,0.9366275072097778,-2.251404047012329,17.780773162841797,-4.610571384429932,2.060170888900757,3.9967496395111084,0.3084987998008728,0.2142801731824875,0.40882381796836853,3.732232093811035
369,26781,26779,0.009593826718628407,0.3244364857673645,1.1035534143447876,-2.1851274967193604,4.085851669311523,-4.006010055541992,2.061502456665039,3.9985873699188232,0.3085530996322632,-0.03882880508899689,0.2811226546764374,3.737607002258301
370,26791,26789,0.07368428260087967,0.6499123573303223,1.0288419723510742,-4.3114519119262695,-0.13291262090206146,-4.8912858963012695,2.0630929470062256,3.9998133182525635,0.3086334466934204,-0.15797235071659088,0.24082285165786743,3.748767852783203
371,26801,26799,-0.01907878927886486,0.6359267830848694,0.9653104543685913,-4.453299045562744,-3.285446882247925,-4.363924980163574,2.063502788543701,3.999938726425171,0.30889588594436646,-0.09288833290338516,0.19454628229141235,3.7093610763549805
372,26811,26809,-0.10552414506673813,0.16563037037849426,1.0377942323684692,-3.041114568710327,-6.910680770874023,-3.493056297302246,2.0628960132598877,3.9993538856506348,0.30846714973449707,0.04810607433319092,0.1472720354795456,3.5998809337615967
373,26821,26819,-0.00011934486974496394,-0.06604102998971939,0.9648255109786987,-4.232545852661133,-1.9342169761657715,-4.455415725708008,2.063277006149292,3.9988765716552734,0.3086596727371216,0.14416269958019257,0.1742691546678543,3.6067278385162354
374,26831,26829,-0.10170386731624603,0.14204753935337067,1.0695345401763916,-2.2828166484832764,-1.860577940940857,-2.9274117946624756,2.0640478134155273,3.998687982559204,0.308747261762619,0.12363637238740921,0.04750145971775055,3.525104522705078
375,26841,26839,-0.03889737278223038,0.16948379576206207,1.086848258972168,0.8624048233032227,-0.09989909827709198,-3.0270020961761475,2.0644755363464355,3.999566078186035,0.3086779713630676,0.14158576726913452,0.036137063056230545,3.5108959674835205
376,26851,26849,-0.0029882434755563736,0.18522372841835022,1.1136468648910522,2.566113233566284,2.617567777633667,-2.6687891483306885,2.064821481704712,4.001306533813477,0.3089853823184967,0.1968579739332199,0.06282682716846466,3.600388526916504
377,26861,26859,0.04115043953061104,0.04866304621100426,1.015600562095642,5.111928939819336,4.194387435913086,-3.857797861099243,2.0653862953186035,4.001021862030029,0.3093354403972626,0.18995662033557892,0.1253269463777542,3.5579142570495605
378,26871,26869,0.06285356730222702,0.2828427255153656,1.0674618482589722,4.711212158203125,0.8944908380508423,-3.0888493061065674,2.0654168128967285,4.000650882720947,0.30733591318130493,0.16067107021808624,0.18399623036384583,3.5284743309020996
379,26881,26879,0.17129622399806976,0.4953654408454895,0.9682531356811523,6.122897148132324,-1.2547929286956787,-3.5334930419921875,2.0672402381896973,4.000056743621826,0.30744534730911255,-0.05848102271556854,0.29627725481987,3.5063769817352295
380,26891,26889,0.20666848123073578,-0.1384720355272293,0.8346251845359802,3.0352656841278076,-2.213411808013916,-2.4853873252868652,2.0684709548950195,4.000532627105713,0.3075866103172302,-0.09438508749008179,0.3910047113895416,3.4987874031066895
381,26901,26899,-0.02684819884598255,-0.26532942056655884,0.894126832485199,-0.16400207579135895,-4.581573486328125,-2.547407627105713,2.0666162967681885,3.9987306594848633,0.3077661693096161,0.1017279401421547,0.4421551823616028,3.424314260482788
382,26911,26909,-0.13490422070026398,-0.2236258089542389,0.9745948314666748,-5.20409631729126,0.510339081287384,-2.3520405292510986,2.0686206817626953,3.999194860458374,0.30995988845825195,0.07808861136436462,0.418683797121048,3.38838791847229
383,26921,26919,-0.25077706575393677,0.2094123512506485,1.0915740728378296,-10.510706901550293,8.855225563049316,-2.7222402095794678,2.068681240081787,3.999851942062378,0.31010767817497253,0.15173858404159546,0.37710052728652954,3.4253625869750977
384,26931,26929,-0.2613725960254669,0.5082721710205078,1.1359832286834717,-12.69815444946289,10.279136657714844,-3.3628196716308594,2.070103406906128,3.9998645782470703,0.3102298974990845,-0.03387654945254326,0.13643778860569,3.3515591621398926
385,26941,26939,-0.00014933316560927778,0.24851350486278534,1.0954796075820923,-10.328184127807617,5.403107643127441,-2.5047800540924072,2.0708208084106445,4.001119613647461,0.3096340000629425,-0.17029495537281036,-0.054760705679655075,3.336899518966675
386,26951,26949,0.006692724768072367,-0.00013314778334461153,1.039218544960022,-6.860276222229004,8.404097557067871,-2.632478713989258,2.070439338684082,4.000694751739502,0.30991989374160767,-0.15503081679344177,-0.18243657052516937,3.300184965133667
387,26961,26959,0.10211874544620514,0.15059073269367218,1.0320301055908203,0.12085168063640594,1.2023414373397827,-2.7788736820220947,2.0707597732543945,4.000752925872803,0.31038856506347656,-0.14220276474952698,-0.15425501763820648,3.2602314949035645
388,26971,26969,0.008738363161683083,0.1532851606607437,1.0650172233581543,6.212199687957764,-1.6512097120285034,-1.2281160354614258,2.0709924697875977,3.9992339611053467,0.3095353841781616,-0.15434356033802032,-0.10803922265768051,3.1971638202667236
389,26981,26979,0.062898188829422,-0.015942510217428207,0.9746658802032471,10.254115104675293,-3.7040657997131348,-1.1893055438995361,2.072360038757324,3.9990625381469727,0.3098406493663788,-0.19052307307720184,0.05120009928941727,3.2283644676208496
390,26991,26989,0.08146990090608597,-0.11917702108621597,0.9680343270301819,10.132318496704102,-3.337684392929077,-1.786319613456726,2.0722603797912598,3.999361276626587,0.31027016043663025,-0.054287489503622055,0.22131860256195068,3.2595224380493164
391,27001,26999,0.15125568211078644,-0.21774007380008698,0.9604008793830872,6.32157039642334,-4.615878105163574,-2.5576436519622803,2.0716335773468018,3.9986939430236816,0.31213605403900146,0.012722882442176342,0.21927550435066223,3.1409051418304443
392,27011,27009,-0.0012801578268408775,-0.17465387284755707,0.9173113107681274,2.774371862411499,-4.527994155883789,-2.247925281524658,2.0710318088531494,3.9981863498687744,0.3125564754009247,0.20212595164775848,0.32310694456100464,3.1348087787628174
393,27021,27019,-0.11248357594013214,0.00990425143390894,1.0234715938568115,-4.53876256942749,-1.726854920387268,-2.9148733615875244,2.07090425491333,3.9988298416137695,0.31292587518692017,0.35686495900154114,0.38072580099105835,3.1847681999206543
394,27031,27029,-0.023553477600216866,0.094400554895401,0.9734130501747131,-7.61295747756958,3.5777134895324707,-2.435500144958496,2.071396827697754,3.9983890056610107,0.3129024803638458,0.1304929107427597,0.24543538689613342,3.041776418685913
395,27041,27039,-0.10949890315532684,0.03773318976163864,1.0336190462112427,-8.61642837524414,8.292579650878906,-1.5571919679641724,2.071699857711792,3.998474359512329,0.3104263246059418,0.13591794669628143,0.1867741495370865,3.0999231338500977
396,27051,27049,-0.06654147803783417,-0.024652624502778053,1.0013335943222046,-8.891034126281738,20.25971031188965,-3.170529365539551,2.0714542865753174,3.9977452754974365,0.3105417788028717,0.034782469272613525,0.08870098739862442,3.037587881088257
397,27061,27059,0.2835952043533325,-0.2555132210254669,0.9851389527320862,-10.070648193359375,19.208284378051758,-2.3562633991241455,2.0724527835845947,3.997269630432129,0.31064996123313904,-0.27254679799079895,0.053543563932180405,3.0327672958374023
398,27071,27069,0.3020978271961212,-0.3163755536079407,0.8667893409729004,-5.463781356811523,13.265514373779297,-3.240251302719116,2.0726146697998047,3.998405694961548,0.3112339973449707,-0.4007040560245514,-0.07113145291805267,3.0427403450012207
399,27081,27079,0.013128889724612236,-0.016539543867111206,1.0032238960266113,-5.532015800476074,12.037944793701172,-3.436558485031128,2.0736002922058105,3.998983144760132,0.31137871742248535,-0.5154213309288025,-0.17313779890537262,3.0529873371124268
400,27091,27089,-0.01930571347475052,0.36960992217063904,0.9614657759666443,1.515710473060608,2.2816343307495117,-2.689669370651245,2.0743954181671143,3.9990451335906982,0.31142210960388184,-0.6032690405845642,-0.18576009571552277,3.0328052043914795
401,27101,27099,-0.1061045303940773,0.4406129717826843,1.0102219581604004,3.9376323223114014,-1.3204604387283325,-1.8848774433135986,2.0745420455932617,3.998562812805176,0.3100382685661316,-0.5504889488220215,-0.14960505068302155,2.9619765281677246
402,27111,27109,-0.04901868849992752,0.033632900565862656,0.9864626526832581,5.977813243865967,-1.0031155347824097,-1.6606504917144775,2.07452654838562,3.9980275630950928,0.31002277135849,-0.4710909426212311,-0.07373858243227005,2.920138359069824
403,27121,27119,-0.02285011112689972,-0.14005261659622192,0.9470767974853516,5.005221843719482,-1.3447861671447754,-1.3335131406784058,2.0739667415618896,3.997318744659424,0.30999496579170227,-0.3742824196815491,0.016087820753455162,2.908405065536499
404,27131,27129,-0.06983653455972672,0.036271944642066956,1.0474188327789307,4.294531345367432,-1.2142084836959839,-1.2680467367172241,2.0749692916870117,3.9967691898345947,0.30984237790107727,-0.47148916125297546,0.07065845280885696,2.842257499694824
405,27141,27139,-0.10300318151712418,0.19850115478038788,1.0905147790908813,0.49378854036331177,-2.363286256790161,-2.074549674987793,2.0744051933288574,3.9973878860473633,0.3102605938911438,-0.35008829832077026,0.013667278923094273,2.876887559890747
406,27151,27149,-0.08342676609754562,0.30580464005470276,1.1336686611175537,-4.866680145263672,7.821413516998291,-1.9350422620773315,2.075713634490967,3.9980695247650146,0.310203492641449,-0.5298285484313965,-0.06948268413543701,2.886894464492798
407,27161,27159,-0.09282433986663818,0.3684369921684265,1.0240058898925781,-5.196225166320801,5.625574111938477,-2.9659423828125,2.076848268508911,3.9991202354431152,0.3102323114871979,-0.664641797542572,-0.17884746193885803,2.88368558883667
408,27171,27169,-0.011154348030686378,-0.0045738848857581615,1.0079175233840942,-6.563867568969727,3.20332407951355,-3.328681468963623,2.077577829360962,4.0001115798950195,0.3098723590373993,-0.7474250197410583,-0.2010646015405655,2.933530330657959
409,27181,27179,0.03632928058505058,-0.08165884763002396,1.0298384428024292,-4.02608060836792,2.815005302429199,-2.9098289012908936,2.078451156616211,3.999664545059204,0.3100276589393616,-0.7654982805252075,-0.15136346220970154,2.93656587600708
410,27191,27189,0.1600564867258072,-0.07992610335350037,0.9766048192977905,0.6208338141441345,-0.2657753527164459,-2.438459873199463,2.0794026851654053,4.000750541687012,0.3101130425930023,-0.8760619163513184,-0.2954649329185486,2.9425597190856934
411,27201,27199,0.023822246119379997,-0.18192704021930695,0.9413309693336487,2.0920848846435547,-1.1818259954452515,-3.7932729721069336,2.0806503295898438,4.001944065093994,0.3084798753261566,-0.9343062043190002,-0.3659454882144928,2.9684009552001953
412,27211,27209,0.03857196867465973,-0.01301596499979496,1.007115364074707,3.9855806827545166,-4.746255874633789,-3.6017916202545166,2.080792188644409,4.00252103805542,0.3085891902446747,-0.8752013444900513,-0.31079596281051636,2.9641201496124268
413,27221,27219,-0.11013142764568329,0.5072497129440308,1.064295768737793,5.3442816734313965,-10.041512489318848,-3.806954860687256,2.0817978382110596,4.002443790435791,0.3085249066352844,-0.9060128331184387,-0.311332106590271,2.9081947803497314
414,27231,27229,-0.29336118698120117,0.2824678122997284,1.0683071613311768,8.028159141540527,-11.477583885192871,-4.128284931182861,2.0809764862060547,4.0025811195373535,0.30897384881973267,-0.5756545662879944,-0.18261128664016724,2.9259300231933594
415,27241,27239,-0.19226129353046417,0.2938659191131592,0.9760859608650208,3.573707103729248,-6.727499961853027,-3.9746813774108887,2.0808253288269043,4.003961086273193,0.3060067594051361,-0.35471752285957336,-0.1488179713487625,2.922581672668457
416,27251,27249,-0.4230056703090668,0.8052363395690918,1.187782645225525,3.58365535736084,0.8042789101600647,-4.455888271331787,2.0817952156066895,4.00393533706665,0.3060213625431061,-0.29582494497299194,-0.083714559674263,2.914393424987793
417,27261,27259,-0.03843226656317711,0.16490763425827026,1.0181704759597778,1.00502610206604,4.722906112670898,-4.60317325592041,2.082582950592041,4.004336833953857,0.3060646057128906,-0.33977845311164856,-0.044296812266111374,2.86946439743042
418,27271,27269,0.12936753034591675,-0.10685796290636063,0.9222396016120911,-0.9434755444526672,9.015156745910645,-4.214009761810303,2.0842435359954834,4.004366397857666,0.3079012632369995,-0.502266526222229,-0.03842521086335182,2.825908660888672
419,27281,27279,0.19969865679740906,-0.18769888579845428,0.9345715641975403,-1.0554481744766235,7.2747297286987305,-3.758394479751587,2.084571599960327,4.0046563148498535,0.30817660689353943,-0.5595515370368958,-0.038623128086328506,2.8080482482910156
420,27291,27289,0.06633248180150986,-0.27615687251091003,0.9099308252334595,-2.963209867477417,2.0405168533325195,-4.997105121612549,2.08487868309021,4.00523567199707,0.30845895409584045,-0.5410915613174438,-0.04653497412800789,2.76899790763855
421,27301,27299,-0.0929945632815361,0.18819615244865417,1.0411694049835205,-5.159617900848389,4.636213779449463,-5.824132919311523,2.0858473777770996,4.005396842956543,0.30584344267845154,-0.5930839776992798,-0.09902982413768768,2.720733880996704
422,27311,27309,-0.13666164875030518,0.18327967822551727,0.982606053352356,-2.237468719482422,1.4334675073623657,-4.748173236846924,2.0871503353118896,4.005834102630615,0.3057175874710083,-0.6818212270736694,-0.15365363657474518,2.684875726699829
423,27321,27319,-0.14685532450675964,0.27807891368865967,1.0572068691253662,-0.12294283509254456,-0.9868831634521484,-3.95511794090271,2.0884501934051514,4.0056681632995605,0.3055940568447113,-0.7287948131561279,-0.17062468826770782,2.6348469257354736
424,27331,27329,-0.08413169533014297,0.12484902143478394,1.0094428062438965,-0.37545663118362427,1.6801151037216187,-5.2645344734191895,2.088521957397461,4.00567626953125,0.3056361973285675,-0.6463715434074402,-0.1744304895401001,2.5573573112487793
425,27341,27339,-0.08723265677690506,-0.052416298538446426,0.9126385450363159,1.4915611743927002,3.2100818157196045,-4.2717132568359375,2.089390277862549,4.005993843078613,0.30785176157951355,-0.7186848521232605,-0.1420668512582779,2.5373451709747314
426,27351,27349,-0.10174858570098877,0.25734907388687134,1.0831354856491089,4.340897083282471,-3.289072275161743,-4.122436046600342,2.0909013748168945,4.006361484527588,0.307897686958313,-0.7728234529495239,-0.08986564725637436,2.6059632301330566
427,27361,27359,0.01393127255141735,0.1461910456418991,1.0518300533294678,2.745972156524658,-0.846907377243042,-4.632139205932617,2.0906407833099365,4.007797718048096,0.3080773651599884,-0.6817479133605957,-0.12409637868404388,2.592707395553589
428,27371,27369,-0.02989054098725319,0.13247668743133545,1.0822056531906128,4.232858657836914,-3.7154104709625244,-5.830698490142822,2.0923519134521484,4.008733749389648,0.31026491522789,-0.7598942518234253,-0.14642556011676788,2.544135332107544
429,27381,27379,-0.01175656821578741,0.4876801073551178,1.0266183614730835,3.3109817504882812,-8.029611587524414,-5.076505184173584,2.0930140018463135,4.008559226989746,0.3106529116630554,-0.7081676125526428,-0.06817053258419037,2.4754106998443604
430,27391,27389,0.21253377199172974,0.5221555233001709,0.9261084794998169,3.668617010116577,-8.324705123901367,-5.380436420440674,2.0933055877685547,4.007080078125,0.3111063539981842,-0.5606189370155334,0.08250951021909714,2.4213221073150635
431,27401,27399,0.08255894482135773,-0.009476903825998306,0.9882436990737915,2.5184450149536133,-9.53230094909668,-4.487926959991455,2.094578266143799,4.007566452026367,0.3123176097869873,-0.5499551892280579,0.0639766976237297,2.3641812801361084
432,27411,27409,0.05899345874786377,-0.24820806086063385,0.8980801105499268,-0.36293280124664307,-7.667140007019043,-5.15443229675293,2.0945053100585938,4.007848262786865,0.31281015276908875,-0.35351595282554626,0.11328674852848053,2.3386621475219727
433,27421,27419,0.00045229418901726604,-0.19518010318279266,0.9420294761657715,-2.173889398574829,-1.0673093795776367,-5.123631000518799,2.0964958667755127,4.008309364318848,0.3131162226200104,-0.37388595938682556,0.11205992102622986,2.333235502243042
434,27431,27429,-0.06286580860614777,0.011931387707591057,0.9963930249214172,-2.400052070617676,-2.6927552223205566,-5.405609607696533,2.0967347621917725,4.008710861206055,0.31298941373825073,-0.2641867399215698,0.09047691524028778,2.2865514755249023
435,27441,27439,-0.32939088344573975,0.2624082863330841,1.1663386821746826,-6.098005771636963,1.357263445854187,-5.5772929191589355,2.098062038421631,4.008960247039795,0.31320488452911377,-0.2906244397163391,0.08978602290153503,2.249171733856201
436,27451,27449,-0.1826922446489334,0.30870869755744934,1.0425337553024292,-5.439136981964111,6.18622350692749,-5.276666641235352,2.098752975463867,4.008605480194092,0.3134898841381073,-0.33576974272727966,-0.027520887553691864,2.1545727252960205
437,27461,27459,-0.110152967274189,0.25441858172416687,1.0765368938446045,-3.879653215408325,8.109917640686035,-4.741489887237549,2.0993871688842773,4.0092854499816895,0.3139258325099945,-0.3774563670158386,-0.1184580847620964,2.1280393600463867
438,27471,27469,0.031150802969932556,0.18979765474796295,1.0840319395065308,-1.5601545572280884,3.3278074264526367,-4.567009449005127,2.100050926208496,4.009148597717285,0.31577417254447937,-0.4844934046268463,-0.17297512292861938,2.0806362628936768
439,27481,27479,-0.009153458289802074,0.09549856930971146,1.0758103132247925,2.119234323501587,-0.3233166038990021,-3.976126194000244,2.1012473106384277,4.009546279907227,0.31637874245643616,-0.5151498913764954,-0.2517351806163788,2.025820016860962
440,27491,27489,0.08501000702381134,-0.13129274547100067,0.9569078683853149,5.437066555023193,-2.2781786918640137,-4.160085201263428,2.1011781692504883,4.010181903839111,0.3170524537563324,-0.4930649399757385,-0.17527435719966888,2.023872137069702
441,27501,27499,0.15274757146835327,-0.32880085706710815,0.859734296798706,7.429713726043701,-6.761107444763184,-5.493740558624268,2.1026041507720947,4.010821342468262,0.3161025643348694,-0.40600430965423584,-0.13249054551124573,2.049485921859741
442,27511,27509,0.06577052175998688,-0.0028587179258465767,0.8636003732681274,3.8888375759124756,-3.400070905685425,-5.266197204589844,2.102792263031006,4.011923313140869,0.3166951537132263,-0.41332292556762695,-0.0657491534948349,2.02793288230896
443,27521,27519,-0.10722683370113373,0.21508640050888062,0.9948844909667969,6.297415733337402,-8.3275146484375,-5.549980163574219,2.1030020713806152,4.011434555053711,0.3171534240245819,-0.1503113955259323,0.05825724080204964,1.9849963188171387
444,27531,27529,-0.10488205403089523,-0.07621607929468155,0.976029098033905,3.3125760555267334,-4.866696357727051,-5.411237716674805,2.104517936706543,4.013131618499756,0.3196840286254883,-0.1560617834329605,0.017584631219506264,1.928671956062317
445,27541,27539,-0.10813513398170471,-0.13759319484233856,0.9639692902565002,2.485847234725952,-2.371506452560425,-4.710704803466797,2.105452299118042,4.012816429138184,0.32016023993492126,-0.13361431658267975,0.09634363651275635,1.8329793214797974
446,27551,27549,-0.05407790467143059,0.06339304149150848,1.043235182762146,1.253623366355896,3.0344362258911133,-4.586695671081543,2.1068193912506104,4.012070655822754,0.32056453824043274,-0.14807464182376862,0.1360015571117401,1.763770580291748
447,27561,27559,-0.07077000290155411,0.09391321986913681,0.9672288298606873,-1.760264277458191,7.675583839416504,-4.494248867034912,2.1070756912231445,4.012441158294678,0.32108259201049805,-0.1310202181339264,0.14912013709545135,1.747700810432434
448,27571,27569,-0.14809678494930267,0.6723662614822388,0.9999381303787231,-3.263953924179077,9.186944007873535,-6.229755401611328,2.1082680225372314,4.013072967529297,0.32181674242019653,-0.2334248274564743,0.12668679654598236,1.7576159238815308
449,27581,27579,-0.27920442819595337,0.6215582489967346,1.2034883499145508,-2.0852766036987305,5.760674476623535,-5.864234447479248,2.1090335845947266,4.013942241668701,0.32230469584465027,-0.31723731756210327,0.0899011492729187,1.7310746908187866
450,27591,27589,-0.0484846830368042,0.1050552949309349,0.961942195892334,1.3986059427261353,-1.777174949645996,-4.574814796447754,2.1098792552948,4.013669490814209,0.3228626251220703,-0.2992873191833496,-0.048258762806653976,1.6449768543243408
451,27601,27599,-0.05706571787595749,-0.024190429598093033,0.9762552380561829,-0.7945702075958252,2.5441322326660156,-5.45058536529541,2.1101949214935303,4.014643669128418,0.32530176639556885,-0.2787633240222931,-0.0147160105407238,1.561583399772644
452,27611,27609,-0.16750147938728333,0.19629885256290436,1.067428708076477,1.0265251398086548,3.813572406768799,-3.406337261199951,2.1116435527801514,4.0156145095825195,0.32598695158958435,-0.34151241183280945,-0.07622891664505005,1.5426898002624512
453,27621,27619,0.010673986747860909,0.1298070102930069,0.9752359986305237,2.539778470993042,2.899369955062866,-3.6071221828460693,2.1141717433929443,4.016012668609619,0.3265360891819,-0.5475739240646362,-0.021294262260198593,1.5437541007995605
454,27631,27629,-0.01620444655418396,0.31743255257606506,1.0378211736679077,4.093806266784668,-2.006122350692749,-3.9365487098693848,2.115176200866699,4.016651630401611,0.32574936747550964,-0.4254475235939026,0.07601193338632584,1.5260671377182007
455,27641,27639,0.04692637547850609,0.07554035633802414,0.9086700677871704,6.9776811599731445,-2.3803303241729736,-4.299076080322266,2.1141371726989746,4.017178535461426,0.3264722526073456,-0.40638452768325806,0.12597255408763885,1.5695319175720215
456,27651,27649,-0.04865313693881035,0.45595356822013855,0.9899063110351562,5.916744709014893,-7.512389659881592,-5.2120466232299805,2.1149392127990723,4.017274856567383,0.32709455490112305,-0.32877904176712036,0.19132667779922485,1.5141745805740356
457,27661,27659,-0.07233163714408875,0.10789771378040314,0.9618911743164062,6.6674933433532715,-11.762749671936035,-5.209438323974609,2.1175901889801025,4.016736030578613,0.32528525590896606,-0.40142297744750977,0.2718561291694641,1.4160999059677124
458,27671,27669,-0.34328681230545044,0.4889291524887085,1.103639841079712,3.513631820678711,-9.819855690002441,-4.998845100402832,2.1164443492889404,4.017051696777344,0.3258764445781708,-0.08889804035425186,0.27910420298576355,1.3442449569702148
459,27681,27679,-0.2718390226364136,0.32373949885368347,1.0307623147964478,2.030427932739258,-2.9091882705688477,-4.225950717926025,2.1180012226104736,4.017321586608887,0.32626742124557495,-0.054949358105659485,0.2582716941833496,1.2551887035369873
460,27691,27689,-0.06746990233659744,0.13515985012054443,0.946838915348053,1.420682430267334,-1.5017950534820557,-3.6223812103271484,2.1198322772979736,4.017826557159424,0.3267139494419098,-0.06961032748222351,0.23210062086582184,1.218851089477539
461,27701,27699,0.0831473246216774,0.5638996958732605,0.9382087588310242,1.1776564121246338,1.061498999595642,-3.0464577674865723,2.121351718902588,4.017588138580322,0.3258339762687683,-0.0935792326927185,0.3019310534000397,1.1559783220291138
462,27711,27709,0.11906306445598602,1.0538034439086914,0.8961582183837891,6.291987895965576,-5.589237689971924,-4.02987813949585,2.122440814971924,4.017725944519043,0.32616764307022095,0.01361370924860239,0.32780909538269043,1.1185462474822998
463,27721,27719,0.043697237968444824,0.7295079827308655,0.9852440357208252,0.30725961923599243,2.7946484088897705,-3.3970189094543457,2.1217713356018066,4.016166687011719,0.3265119194984436,0.07798710465431213,0.408363938331604,0.9799894094467163
464,27731,27729,0.059740692377090454,0.32721564173698425,0.894465982913971,-0.29083001613616943,-0.5094772577285767,-4.312315464019775,2.12263822555542,4.016638278961182,0.3247493505477905,0.07758542895317078,0.4198867082595825,0.955123782157898
465,27741,27739,-0.10543712973594666,0.3553459942340851,1.0102678537368774,-0.10188750177621841,6.672361373901367,-3.8000595569610596,2.122459650039673,4.016339302062988,0.32473498582839966,0.10398628562688828,0.4363030791282654,0.9324421286582947
466,27751,27749,-0.009469624608755112,0.22448037564754486,0.9915214776992798,-5.514542579650879,15.14703369140625,-3.9945156574249268,2.123389482498169,4.016783714294434,0.3247411549091339,-0.04685927927494049,0.41299644112586975,0.9339153170585632
467,27761,27759,0.1605709344148636,0.3160669207572937,1.0173163414001465,-1.459346055984497,3.724179267883301,-2.0173826217651367,2.1260018348693848,4.018524169921875,0.320879727602005,-0.23197714984416962,0.2995285093784332,0.9193094968795776
468,27771,27769,0.1678173989057541,0.09136579185724258,0.897519052028656,-1.5546741485595703,0.37971803545951843,-2.653884172439575,2.1265578269958496,4.017610549926758,0.3204827904701233,-0.2994718551635742,0.3025505542755127,0.7783373594284058
469,27781,27779,-0.26354995369911194,0.502436637878418,1.0327367782592773,3.396057605743408,-12.308655738830566,-1.774997353553772,2.1277620792388916,4.016808986663818,0.32016682624816895,-0.11684402823448181,0.3403296172618866,0.7436978220939636
470,27791,27789,-0.46610093116760254,0.9480654001235962,1.0554019212722778,4.255928039550781,-13.07739543914795,-1.6026602983474731,2.126993417739868,4.015551567077637,0.3199814558029175,0.10726777464151382,0.3092539310455322,0.6741078495979309
471,27801,27799,-0.3812999427318573,1.151024341583252,1.059270977973938,2.1849899291992188,-8.046727180480957,-1.3451616764068604,2.125901937484741,4.016274929046631,0.3168652355670929,0.25265204906463623,0.2658124566078186,0.6167429685592651
472,27811,27809,-0.24897265434265137,0.6682907938957214,1.1390234231948853,2.3701419830322266,-0.24921776354312897,-0.5734897255897522,2.127971649169922,4.015539646148682,0.316390722990036,0.13356733322143555,0.3191446363925934,0.5519869923591614
473,27821,27819,-0.08111853897571564,0.2433643937110901,1.099850058555603,1.9281091690063477,4.575780868530273,-0.9862467050552368,2.1279795169830322,4.014575004577637,0.31597012281417847,0.18408453464508057,0.30264878273010254,0.4277780055999756
474,27831,27829,0.02270735800266266,-0.05840640142560005,1.0366607904434204,1.162973403930664,10.298056602478027,-0.7420191168785095,2.1281893253326416,4.014242172241211,0.3126031756401062,0.09952256828546524,0.3686651885509491,0.40499839186668396
475,27841,27839,0.06730690598487854,-0.04318324476480484,1.0762966871261597,1.3997316360473633,9.558126449584961,0.05465712025761604,2.1300501823425293,4.014247894287109,0.3122085928916931,-0.018946457654237747,0.4399610161781311,0.4528079628944397
476,27851,27849,0.07254863530397415,0.10869583487510681,1.059403657913208,-2.1985647678375244,8.98055362701416,0.1849500685930252,2.131983518600464,4.014649391174316,0.31180310249328613,-0.20511257648468018,0.46743863821029663,0.46010148525238037
477,27861,27859,0.032723817974328995,0.4283292889595032,1.1033666133880615,-1.7443128824234009,6.706789970397949,-0.14115309715270996,2.1333138942718506,4.015554428100586,0.3096010684967041,-0.19239084422588348,0.47178807854652405,0.5172719955444336
478,27871,27869,0.3044438362121582,0.15155953168869019,0.8866081833839417,1.631066083908081,0.7186506390571594,-0.5220268368721008,2.13362455368042,4.0159010887146,0.30940061807632446,-0.29242756962776184,0.41869527101516724,0.48519474267959595
479,27881,27879,0.07665739953517914,-0.0020180281717330217,0.9754586815834045,-2.470759153366089,-5.450098037719727,-0.3497539460659027,2.135401964187622,4.0168938636779785,0.3090210556983948,-0.272879034280777,0.34249240159988403,0.5144360661506653
480,27891,27889,-0.00995168648660183,0.03475704416632652,1.0157207250595093,-2.173309803009033,-7.38615083694458,-0.4678603708744049,2.1351282596588135,4.017072677612305,0.30892953276634216,-0.044654782861471176,0.4019199311733246,0.6303117275238037
481,27901,27899,-0.02766154706478119,0.10339479148387909,1.0928144454956055,-2.5341405868530273,-9.833660125732422,-0.19342435896396637,2.136509418487549,4.0190815925598145,0.30275604128837585,-0.11999933421611786,0.27858319878578186,0.6451035141944885
