,timestamp_start,timestamp_end,acc.x,acc.y,acc.z,gyro.x,gyro.y,gyro.z,stateEstimate.x,stateEstimate.y,stateEstimate.z,stabilizer.pitch,stabilizer.roll,stabilizer.yaw
0,30130,30126,0.027436640113592148,-0.05825069174170494,0.9927692413330078,5.244578838348389,-9.762456893920898,5.163732528686523,1.970428228378296,3.8965935707092285,0.17378315329551697,-0.06951858103275299,0.2684144973754883,1.862676978111267
1,30140,30136,-0.016484195366501808,0.06256752461194992,0.9997676610946655,2.565002679824829,-8.762577056884766,5.831430435180664,1.969739556312561,3.895348310470581,0.17578434944152832,0.07646819204092026,0.28889936208724976,1.9176416397094727
2,30150,30146,0.004991345107555389,0.05035412311553955,1.0301461219787598,-0.27262237668037415,-6.916057109832764,5.544528484344482,1.9691578149795532,3.8993537425994873,0.17595437169075012,0.057716891169548035,0.2534410357475281,1.9641817808151245
3,30160,30156,0.01907242275774479,-0.002925253938883543,1.0974087715148926,-0.4635184705257416,-5.371733665466309,5.166393756866455,1.9703352451324463,3.9018778800964355,0.17765702307224274,0.18003827333450317,0.19261853396892548,2.020815372467041
4,30170,30166,0.0010475097224116325,-0.11614694446325302,1.0565327405929565,1.7547881603240967,-2.0755655765533447,5.020185947418213,1.9704276323318481,3.9047837257385254,0.17936308681964874,0.19411268830299377,0.29200056195259094,2.0703625679016113
5,30180,30176,0.0008791970903985202,-0.11253707855939865,1.0150686502456665,5.072781562805176,2.5301263332366943,5.922032356262207,1.9714852571487427,3.9044768810272217,0.1814018338918686,0.22640138864517212,0.41699400544166565,2.121039867401123
6,30190,30186,0.04781031236052513,-0.04347012937068939,1.0213358402252197,7.167520046234131,2.794071674346924,6.556428909301758,1.971222996711731,3.9064342975616455,0.18426157534122467,0.12468788772821426,0.5750271081924438,2.1709659099578857
7,30200,30196,0.07593800127506256,-0.07293100655078888,1.0493155717849731,7.177093029022217,2.172473192214966,5.868856906890869,1.9716688394546509,3.9059271812438965,0.18621614575386047,0.17209453880786896,0.7499796152114868,2.2398905754089355
8,30210,30206,0.06347215175628662,-0.14677980542182922,0.9885091781616211,6.921519756317139,2.1622109413146973,4.973019123077393,1.9717622995376587,3.9061062335968018,0.18839141726493835,0.13793104887008667,0.5437077283859253,2.301771879196167
9,30220,30216,-0.03491085767745972,0.008302644826471806,0.9806506633758545,1.8265832662582397,-0.552780270576477,5.892971515655518,1.97173273563385,3.90899395942688,0.19213958084583282,0.055974870920181274,0.7765907049179077,2.352498769760132
10,30230,30226,-0.008816132321953773,0.019876183941960335,1.00120210647583,-1.0831528902053833,-4.144678592681885,6.297967910766602,1.9724619388580322,3.908348560333252,0.1942853480577469,0.11043158173561096,0.8325687050819397,2.417776107788086
11,30240,30236,0.021976878866553307,0.002481230068951845,1.036422610282898,-3.7784788608551025,-5.256933212280273,6.292627811431885,1.9724777936935425,3.9088480472564697,0.19639228284358978,0.19773726165294647,1.2105553150177002,2.488295078277588
12,30250,30246,-0.013526767492294312,0.045616514980793,1.0457801818847656,-4.302709102630615,-3.352802276611328,6.263063907623291,1.9728108644485474,3.906533718109131,0.19888946413993835,0.5794262290000916,1.0580419301986694,2.5994338989257812
13,30260,30256,-0.03810372203588486,0.10532546043395996,0.945777177810669,-7.768521308898926,-0.35141515731811523,5.806637763977051,1.9701274633407593,3.907641887664795,0.20122577250003815,2.213130474090576,0.21221700310707092,2.9397196769714355
14,30270,30266,-0.02366897650063038,0.10661889612674713,0.9869745373725891,-9.500350952148438,2.7225537300109863,4.531895160675049,1.9573390483856201,3.9129273891448975,0.20137736201286316,1.9282782077789307,0.1781618893146515,2.949206829071045
15,30280,30276,0.0019697186071425676,0.0237959586083889,1.1019197702407837,-5.294802188873291,15.008872985839844,4.011472225189209,1.9578067064285278,3.913256883621216,0.2065257728099823,1.6758614778518677,0.12371783703565598,2.9592671394348145
16,30290,30286,-0.004371923860162497,0.006229506805539131,0.9534135460853577,1.4371461868286133,26.644638061523438,4.505631446838379,1.9576330184936523,3.913996458053589,0.2079997956752777,1.2405775785446167,0.22936828434467316,2.942596912384033
17,30300,30296,-0.0720687210559845,0.07548172771930695,0.9545455574989319,5.287380695343018,42.90183639526367,4.8657684326171875,1.9587090015411377,3.9141077995300293,0.2117146998643875,0.6491256952285767,0.33476704359054565,2.943441390991211
18,30310,30306,-0.0707678347826004,0.1122923195362091,0.9524161219596863,7.981053352355957,47.236934661865234,5.411690711975098,1.9597219228744507,3.91426944732666,0.2148464173078537,-0.09130445867776871,0.4956594407558441,2.947906970977783
19,30320,30316,-0.0024056178517639637,0.10373037308454514,1.0406951904296875,9.369307518005371,39.82417297363281,5.409240245819092,1.9613533020019531,3.9141385555267334,0.21522212028503418,-0.34049251675605774,0.5303781032562256,3.033201217651367
20,30330,30326,0.048251617699861526,0.03546543046832085,1.0576622486114502,8.678786277770996,25.45331382751465,4.3467631340026855,1.9595814943313599,3.914076805114746,0.21753856539726257,-0.9077476859092712,0.6506149768829346,3.0689377784729004
21,30340,30336,-0.008031548000872135,0.02839510329067707,1.0236825942993164,5.931969165802002,13.286603927612305,3.4240024089813232,1.9600571393966675,3.9142205715179443,0.2197132557630539,-1.1406517028808594,0.8165141344070435,3.114752769470215
22,30350,30346,-0.043644994497299194,0.10540230572223663,0.9009445309638977,0.9929343461990356,1.8895766735076904,3.3094611167907715,1.959537148475647,3.9132144451141357,0.2191053032875061,-1.321423888206482,0.9129704236984253,3.14505934715271
23,30360,30356,-0.03106348216533661,0.11639430373907089,0.9439831376075745,-2.8567206859588623,-9.06436824798584,2.8845629692077637,1.9591163396835327,3.912787437438965,0.22101569175720215,-1.3498387336730957,0.8430449366569519,3.1710124015808105
24,30370,30366,0.014440257102251053,0.06191813573241234,0.974776566028595,-6.228149890899658,-19.36282730102539,2.686255693435669,1.9589117765426636,3.9142918586730957,0.22294865548610687,-1.4417529106140137,0.7967568635940552,3.17146635055542
25,30380,30376,-0.0678710862994194,0.06833600252866745,0.9789626598358154,-7.153079032897949,-24.15816307067871,2.0725834369659424,1.959867000579834,3.914062738418579,0.22468087077140808,-1.2913429737091064,0.7106544375419617,3.1867868900299072
26,30390,30386,-0.1381368786096573,0.18835970759391785,0.9674938321113586,-9.69886302947998,-15.52486801147461,2.7457399368286133,1.9597160816192627,3.9141666889190674,0.2272893339395523,-1.2913426160812378,0.8933095335960388,3.2116291522979736
27,30400,30396,-0.01817125640809536,0.029118528589606285,0.9893239736557007,-8.9013090133667,-12.341547966003418,2.0912275314331055,1.9607794284820557,3.9120330810546875,0.22903913259506226,-1.0613950490951538,0.7250646948814392,3.2367374897003174
28,30410,30406,-0.007768714334815741,-0.041529666632413864,0.9821597933769226,-8.835537910461426,-5.555810928344727,2.2515034675598145,1.9592512845993042,3.912442207336426,0.23106621205806732,-0.98964524269104,0.725026547908783,3.264737367630005
29,30420,30416,0.025384824723005295,-0.01689034141600132,0.999437689781189,-7.4944748878479,-3.841679811477661,1.3261568546295166,1.9595609903335571,3.9116365909576416,0.23316174745559692,-0.9889490008354187,0.5725168585777283,3.2669925689697266
30,30430,30426,0.031015997752547264,-0.0282282717525959,0.9415838122367859,-7.530941009521484,-1.2869261503219604,0.8043009042739868,1.9595589637756348,3.9122211933135986,0.23498287796974182,-1.0126972198486328,0.5109608173370361,3.27469801902771
31,30440,30436,0.022233260795474052,-0.09130562841892242,0.9535168409347534,-7.842952728271484,-2.638164758682251,0.8207570910453796,1.9601259231567383,3.91202974319458,0.23673869669437408,-1.0550768375396729,0.3690432906150818,3.263054370880127
32,30450,30446,0.019008278846740723,-0.040903132408857346,0.9426816701889038,-7.579543590545654,-5.9047932624816895,0.27456220984458923,1.9610011577606201,3.9119701385498047,0.23649704456329346,-1.512742042541504,1.0027185678482056,3.3325557708740234
33,30460,30456,-0.028023019433021545,-0.035121213644742966,0.9497589468955994,-6.531835556030273,-8.749920845031738,-0.22878099977970123,1.9661697149276733,3.9060018062591553,0.23775720596313477,-1.3937435150146484,0.8626548647880554,3.3287124633789062
34,30470,30466,0.05784469097852707,-0.0705229640007019,0.9653100371360779,-10.71567440032959,-14.93681812286377,-1.1590054035186768,1.966060996055603,3.905318260192871,0.23959733545780182,-1.1941750049591064,0.7099930047988892,3.320648431777954
35,30480,30476,0.027677174657583237,-0.057827018201351166,1.0189763307571411,-14.506072998046875,-20.507450103759766,-1.0167959928512573,1.9665801525115967,3.906216621398926,0.2410193681716919,-1.1354542970657349,0.576668918132782,3.292069435119629
36,30490,30486,0.035592544823884964,-0.04782448709011078,0.93861323595047,-17.188716888427734,-20.984066009521484,-0.9853455424308777,1.968117356300354,3.9059174060821533,0.24243633449077606,-0.9176350235939026,0.2363327294588089,3.2452633380889893
37,30500,30496,0.01946033537387848,-0.07420632243156433,0.8845528960227966,-19.174997329711914,-24.942218780517578,0.19643910229206085,1.968923807144165,3.906891345977783,0.24408942461013794,-0.6635265946388245,-0.05275030434131622,3.21962833404541
38,30510,30506,0.006794376764446497,-0.014563282020390034,0.9544368982315063,-17.669897079467773,-23.782182693481445,0.6571687459945679,1.9695971012115479,3.907850503921509,0.24555592238903046,-0.6306749582290649,-0.18596984446048737,3.2095963954925537
39,30520,30516,0.0327623076736927,-0.09341632574796677,1.0243620872497559,-10.4263277053833,-21.892314910888672,0.2869654595851898,1.9720027446746826,3.9072012901306152,0.24762007594108582,-0.20314902067184448,-0.41172829270362854,3.2224621772766113
40,30530,30526,0.04342513531446457,-0.068330779671669,0.9544888138771057,-4.4765191078186035,-20.077356338500977,0.8385736346244812,1.971694827079773,3.9073550701141357,0.2492194026708603,0.026075538247823715,-0.5202915668487549,3.228088617324829
41,30540,30536,0.026819588616490364,-0.10714045912027359,1.0093860626220703,0.4876864552497864,-13.592005729675293,-0.021324142813682556,1.972054123878479,3.9073612689971924,0.25059962272644043,0.2591899633407593,-0.4583774507045746,3.2507989406585693
42,30550,30546,0.0035464526154100895,-0.03744645044207573,0.9548923373222351,3.128659963607788,-8.682467460632324,-0.4552624225616455,1.9723464250564575,3.905442476272583,0.25364017486572266,0.339071124792099,-0.4831903874874115,3.24605131149292
43,30560,30556,-0.026221752166748047,-0.07463737577199936,0.9151455163955688,3.38301682472229,-6.529451370239258,0.2900490462779999,1.97270929813385,3.9056458473205566,0.25363871455192566,0.5019281506538391,-0.47108784317970276,3.244420289993286
44,30570,30566,0.004349543713033199,-0.08324024826288223,0.8842417001724243,1.8214242458343506,-7.001859664916992,0.9706448912620544,1.9732592105865479,3.9054253101348877,0.2551878094673157,0.5358219146728516,-0.46852758526802063,3.2455456256866455
45,30580,30576,0.07060744613409042,-0.1369822472333908,1.0135622024536133,-1.9045394659042358,-5.1239728927612305,-0.00461888313293457,1.9746249914169312,3.9055747985839844,0.25534868240356445,0.6509208679199219,-0.4358728229999542,3.2552618980407715
46,30590,30586,0.04564711079001427,-0.01701987348496914,0.9880942702293396,-4.403915882110596,-5.640890121459961,0.22274594008922577,1.9756485223770142,3.905283212661743,0.2576305568218231,0.657462477684021,-0.5307485461235046,3.256848096847534
47,30600,30596,0.011454358696937561,0.0146707808598876,0.9900966882705688,-5.159766674041748,-8.209013938903809,-0.4633554220199585,1.9762481451034546,3.9058282375335693,0.25765031576156616,0.7639467716217041,-0.5697910189628601,3.2549338340759277
48,30610,30606,-0.027904095128178596,0.0019824861083179712,0.97532719373703,-4.8963303565979,-7.710943698883057,-0.5182300209999084,1.9764636754989624,3.9054582118988037,0.2587796151638031,0.9621404409408569,-0.6878329515457153,3.2524664402008057
49,30620,30616,-0.06998567283153534,0.08018449693918228,0.9447317719459534,-3.7145700454711914,-7.570779800415039,-0.8061744570732117,1.976098895072937,3.9074530601501465,0.2612948715686798,0.9206158518791199,-0.7802509665489197,3.2531509399414062
50,30630,30626,-0.031043950468301773,0.07678847759962082,0.889829158782959,-1.3775266408920288,-8.207719802856445,-0.1776483803987503,1.9779726266860962,3.9078853130340576,0.2624788284301758,1.1134871244430542,-0.837840735912323,3.2420454025268555
51,30640,30636,-0.026422912254929543,0.06366191804409027,0.9895448088645935,1.390450119972229,-7.933834075927734,-0.06821280717849731,1.9779666662216187,3.9083597660064697,0.26356011629104614,1.0555161237716675,-0.8513345718383789,3.2470009326934814
52,30650,30646,-0.011896618641912937,0.04586467891931534,1.0372146368026733,4.81973934173584,-3.7236545085906982,-0.8943989276885986,1.9803416728973389,3.9085159301757812,0.265385240316391,0.9774749279022217,-0.8049749135971069,3.25201678276062
53,30660,30656,-0.019266299903392792,-0.0038274740800261497,0.9902435541152954,8.194472312927246,-5.3328857421875,-1.5638923645019531,1.9814139604568481,3.908839702606201,0.26538681983947754,1.142137885093689,-0.7040349245071411,3.227569818496704
54,30670,30666,-0.0701209083199501,0.016384480521082878,0.9502997398376465,8.393036842346191,-2.0353190898895264,-1.8166292905807495,1.9813250303268433,3.9085867404937744,0.2664940059185028,1.1110323667526245,-0.5770028233528137,3.215550184249878
55,30680,30676,-0.09507386386394501,0.0808258205652237,0.9435184597969055,6.367214679718018,-1.0669152736663818,-1.8275344371795654,1.9825117588043213,3.908667802810669,0.2666817605495453,1.1973713636398315,-0.4728718400001526,3.190974235534668
56,30690,30686,-0.04366389662027359,0.08798158913850784,0.8972822427749634,2.2443413734436035,-2.9458096027374268,-1.571378231048584,1.982496976852417,3.9091708660125732,0.26763108372688293,1.2718334197998047,-0.4922325015068054,3.1778767108917236
57,30700,30696,-0.02827918715775013,0.0846889466047287,0.9848996996879578,-1.1096457242965698,-2.202759027481079,-1.6875312328338623,1.9824084043502808,3.909637689590454,0.2685111165046692,1.2788928747177124,-0.4932110905647278,3.1656224727630615
58,30710,30706,0.01057535968720913,0.00725983502343297,0.9963767528533936,-2.6005914211273193,-5.881446838378906,-1.8597899675369263,1.9827555418014526,3.9097704887390137,0.26931220293045044,1.2306357622146606,-0.6043631434440613,3.1683592796325684
59,30720,30716,-0.07166846096515656,0.11638841778039932,1.0352566242218018,-2.1185848712921143,-3.0388221740722656,-2.68861722946167,1.9842278957366943,3.910841226577759,0.2700246274471283,1.3600667715072632,-0.6320146918296814,3.1399080753326416
60,30730,30726,-0.06816796958446503,0.11681881546974182,0.9830175638198853,-0.20329001545906067,1.1216381788253784,-3.396897077560425,1.9836928844451904,3.911250352859497,0.270817369222641,1.4146724939346313,-0.649444043636322,3.1104025840759277
61,30740,30736,-0.08025074005126953,0.13456842303276062,0.9511380195617676,1.4573323726654053,3.756823778152466,-3.1287848949432373,1.9835809469223022,3.9116127490997314,0.27161526679992676,1.4135411977767944,-0.6355758309364319,3.0763330459594727
62,30750,30746,-0.015903055667877197,0.09221881628036499,0.9177917242050171,4.539599418640137,4.775416374206543,-2.9106833934783936,1.9841585159301758,3.911358118057251,0.2729029357433319,1.3081789016723633,-0.5699267983436584,3.043806314468384
63,30760,30756,0.018540874123573303,0.05998740345239639,1.006705641746521,6.846461296081543,1.5982539653778076,-2.311699867248535,1.9846880435943604,3.911121129989624,0.2736654281616211,1.3724459409713745,-0.6129410862922668,3.025958299636841
64,30770,30766,0.03828445449471474,0.023865826427936554,1.0729939937591553,7.226627826690674,0.49526768922805786,-3.115176200866699,1.984209418296814,3.912086009979248,0.2743571698665619,1.363973617553711,-0.47871309518814087,2.98384952545166
65,30780,30776,0.030044812709093094,-0.02956557460129261,1.0616461038589478,7.750888824462891,2.188018560409546,-3.5847723484039307,1.9843132495880127,3.9116721153259277,0.2769934833049774,1.3361716270446777,-0.35367271304130554,2.9401869773864746
66,30790,30786,-0.023753957822918892,0.029168423265218735,0.9641786217689514,5.856672763824463,4.406410217285156,-3.371628999710083,1.984102725982666,3.9118473529815674,0.27790749073028564,1.2194182872772217,-0.23946842551231384,2.9040164947509766
67,30800,30796,-0.06978058815002441,0.11302251368761063,0.921631395816803,2.887023687362671,4.878399848937988,-3.0121026039123535,1.9849251508712769,3.9111328125,0.2788509130477905,1.231140375137329,-0.1610177904367447,2.8630940914154053
68,30810,30806,-0.02878756634891033,0.10642542690038681,0.9371009469032288,1.085658073425293,4.298131465911865,-2.4110915660858154,1.9836300611495972,3.9112250804901123,0.2798338532447815,1.2407492399215698,-0.20362183451652527,2.845024824142456
69,30820,30816,-0.002756355796009302,0.03535330295562744,0.9496479630470276,-1.1083179712295532,0.6552295088768005,-1.88392174243927,1.983139991760254,3.9118330478668213,0.279013067483902,1.2670345306396484,-0.34469109773635864,2.84789776802063
70,30830,30826,-0.0007128918659873307,-0.028483638539910316,1.0474228858947754,-1.3036460876464844,3.4193286895751953,-2.2742531299591064,1.982417345046997,3.913231134414673,0.2796778082847595,1.143107295036316,-0.4905432462692261,2.8599953651428223
71,30840,30836,0.005551900714635849,-0.03389766439795494,0.9849281311035156,1.3212167024612427,1.6536566019058228,-2.284053325653076,1.9831359386444092,3.915619373321533,0.2803580164909363,1.3320361375808716,-0.23329833149909973,2.771679162979126
72,30850,30846,-0.05146453157067299,0.05441813915967941,0.9773992300033569,5.183675289154053,5.717321395874023,-2.3314995765686035,1.980930209159851,3.913395404815674,0.2828439772129059,1.32244074344635,-0.2502743899822235,2.755483865737915
73,30860,30856,-0.049534477293491364,0.1231345534324646,0.9113145470619202,8.192861557006836,8.252836227416992,-1.8118054866790771,1.9803146123886108,3.9142181873321533,0.2836490273475647,1.1800843477249146,-0.201983243227005,2.7424259185791016
74,30870,30866,-0.011563019827008247,0.11930359154939651,0.9362540245056152,8.371574401855469,8.909408569335938,-1.9192992448806763,1.980780005455017,3.914464235305786,0.28446415066719055,1.0955758094787598,-0.19458742439746857,2.738191843032837
75,30880,30876,0.008944191969931126,0.004827268421649933,0.9648771286010742,8.972043991088867,4.679438591003418,-2.120861053466797,1.980421781539917,3.915114402770996,0.28605297207832336,0.9322279095649719,-0.025822127237915993,2.7052717208862305
76,30890,30886,0.0011218463769182563,-0.08784452080726624,0.998750627040863,7.292654514312744,7.085617542266846,-2.153566837310791,1.9807519912719727,3.91426682472229,0.2867686450481415,0.7827485203742981,-0.16733811795711517,2.7243900299072266
77,30900,30896,-0.033985838294029236,-0.041089605540037155,1.0507234334945679,5.92942476272583,6.251083850860596,-2.962726354598999,1.9815009832382202,3.9162492752075195,0.28746405243873596,0.7888634204864502,-0.09124653041362762,2.695101022720337
78,30910,30906,-0.05692552402615547,-0.0024724819231778383,1.006956934928894,3.9982972145080566,8.829585075378418,-2.8571112155914307,1.9802579879760742,3.9168479442596436,0.2877935767173767,0.7079251408576965,-0.04225167632102966,2.6663100719451904
79,30920,30916,-0.0043461378663778305,-0.11350114643573761,1.0289857387542725,3.0314550399780273,6.783875942230225,-2.372389554977417,1.9797890186309814,3.9173667430877686,0.2884993553161621,0.7099476456642151,-0.004866320174187422,2.636859178543091
80,30930,30926,0.054511625319719315,-0.19430650770664215,1.0167032480239868,5.329645156860352,4.805188179016113,-2.8337371349334717,1.9787501096725464,3.9172513484954834,0.2892323434352875,0.6509348154067993,0.03800280764698982,2.610529899597168
81,30940,30936,0.002042637439444661,0.05357735976576805,1.0187032222747803,5.416064739227295,4.180362224578857,-2.8049261569976807,1.9782867431640625,3.9176535606384277,0.29000601172447205,0.5458019971847534,0.16800761222839355,2.572509527206421
82,30950,30946,-0.004302946850657463,0.045959457755088806,1.03513765335083,5.156531810760498,1.0458447933197021,-2.911174774169922,1.9784659147262573,3.91752552986145,0.2933644950389862,0.45937609672546387,0.2222992479801178,2.5435099601745605
83,30960,30956,-0.05758918821811676,-0.0424453467130661,1.0912067890167236,5.0108771324157715,6.787711143493652,-3.4091570377349854,1.978381633758545,3.917391300201416,0.2943469285964966,0.6384433507919312,0.2674108147621155,2.514220952987671
84,30970,30966,0.008558017201721668,-0.016490386798977852,0.9776629209518433,4.981668949127197,5.436471462249756,-3.379755735397339,1.9754605293273926,3.917841672897339,0.29534393548965454,0.4845990538597107,0.3819772005081177,2.4722330570220947
85,30980,30976,-0.039448563009500504,0.058541957288980484,0.9603770971298218,4.244874954223633,9.713272094726562,-3.315887212753296,1.9755018949508667,3.917330026626587,0.2976788282394409,0.3135334849357605,0.3387535512447357,2.444096088409424
86,30990,30986,-0.029677048325538635,0.12048006802797318,0.9375682473182678,2.420633316040039,10.943700790405273,-3.206474781036377,1.9761744737625122,3.918297290802002,0.29889675974845886,0.32835203409194946,0.42849934101104736,2.4089348316192627
87,31000,30996,0.012725433334708214,0.1138501688838005,0.9296295642852783,1.1258046627044678,10.208553314208984,-3.36447811126709,1.974992036819458,3.918351650238037,0.30002954602241516,0.25559642910957336,0.33419376611709595,2.38446044921875
88,31010,31006,0.009167746640741825,-0.009823758155107498,0.9474601149559021,0.6233341097831726,7.865738868713379,-3.449246644973755,1.9741604328155518,3.9195775985717773,0.2983805537223816,0.20107311010360718,0.3200267255306244,2.3536057472229004
89,31020,31016,-0.001315269386395812,-0.004586108960211277,0.9826029539108276,0.8936379551887512,6.048335552215576,-4.109610080718994,1.9737364053726196,3.9200680255889893,0.29919764399528503,0.17117899656295776,0.3764665722846985,2.3178935050964355
90,31030,31026,-0.058488454669713974,-0.05966752767562866,0.9668793082237244,2.3733584880828857,5.999086380004883,-4.159690856933594,1.9724704027175903,3.9196927547454834,0.29998958110809326,0.08663669228553772,0.3663482666015625,2.2771129608154297
91,31040,31036,-0.06900101155042648,-0.030630094930529594,0.9414976835250854,3.1199209690093994,8.007771492004395,-4.156949520111084,1.972313404083252,3.919872999191284,0.3007960319519043,-0.020485514774918556,0.44948768615722656,2.233182191848755
92,31050,31046,-0.007651912979781628,-0.000829891359899193,0.9572998285293579,3.9312756061553955,7.9390459060668945,-4.75797176361084,1.972528338432312,3.919497013092041,0.2988918125629425,-0.21527810394763947,0.5390369296073914,2.185879707336426
93,31060,31056,-0.05823337286710739,0.09663421660661697,0.9428998231887817,4.711896896362305,7.459658145904541,-3.9022011756896973,1.972788691520691,3.9191296100616455,0.2994828522205353,-0.17237380146980286,0.5598926544189453,2.150184392929077
94,31070,31066,-0.027176041156053543,0.09688292443752289,0.9122421145439148,3.3109030723571777,7.335031509399414,-3.484699249267578,1.9717810153961182,3.9197139739990234,0.3000011742115021,-0.21622537076473236,0.5746633410453796,2.114686965942383
95,31080,31076,-0.02383221872150898,0.09585016220808029,1.005629301071167,1.9463191032409668,6.890326976776123,-3.1388556957244873,1.9707958698272705,3.920598268508911,0.3012971878051758,-0.30666157603263855,0.6490826606750488,2.078965902328491
96,31090,31086,-0.031995050609111786,0.08252321928739548,1.0611858367919922,-0.5668889880180359,13.134278297424316,-3.217747211456299,1.9709556102752686,3.9209909439086914,0.3018263578414917,-0.5508941411972046,0.6017470359802246,2.0334436893463135
97,31100,31096,-0.047021523118019104,0.07860519737005234,1.0781949758529663,-2.4336533546447754,19.987363815307617,-3.328582763671875,1.972298264503479,3.9217305183410645,0.30234968662261963,-0.5153152942657471,0.5984846353530884,2.015209197998047
98,31110,31106,-0.028029154986143112,0.046323299407958984,1.0428415536880493,-2.9019052982330322,25.89656639099121,-3.6935648918151855,1.9693870544433594,3.9217917919158936,0.3006318211555481,-0.8373516798019409,0.49615007638931274,1.9705390930175781
99,31120,31116,-0.03452117741107941,0.04243384674191475,1.0052287578582764,-3.4639055728912354,28.8721866607666,-3.4723825454711914,1.9696629047393799,3.9225709438323975,0.3011033833026886,-1.2685643434524536,0.474905788898468,1.9245860576629639
100,31130,31126,0.010660148225724697,-0.03612137585878372,0.9492743611335754,-1.4370596408843994,28.12618064880371,-4.035099506378174,1.9705555438995361,3.923206090927124,0.3016352951526642,-1.3948447704315186,0.4562656879425049,1.9080909490585327
101,31140,31136,-0.03148685023188591,0.06404241919517517,0.9435917139053345,-0.2561030685901642,22.0288028717041,-3.1828513145446777,1.9688092470169067,3.9232170581817627,0.3038311302661896,-1.6260284185409546,0.4685421884059906,1.8798229694366455
102,31150,31146,0.0034348294138908386,0.021432876586914062,0.9832714200019836,2.830742835998535,16.72984504699707,-3.0246198177337646,1.9684261083602905,3.923189401626587,0.30442386865615845,-1.9853196144104004,0.4417025148868561,1.8294769525527954
103,31160,31156,0.024053500965237617,0.05288555473089218,0.9624014496803284,1.7287880182266235,9.18771743774414,-2.576993942260742,1.9694629907608032,3.9236080646514893,0.3048344552516937,-2.059471368789673,0.5062669515609741,1.8126612901687622
104,31170,31166,0.022052420303225517,0.011357924900949001,0.9854094982147217,2.530832290649414,2.598771810531616,-2.10499906539917,1.9686875343322754,3.9252517223358154,0.3053511381149292,-2.104494333267212,0.49636849761009216,1.7799394130706787
105,31180,31176,0.041705746203660965,-0.22780431807041168,1.0499224662780762,2.149906635284424,-2.3021767139434814,-2.1372859477996826,1.968198299407959,3.926694869995117,0.30438926815986633,-2.125784397125244,0.5637012124061584,1.7653489112854004
106,31190,31186,0.005838642828166485,-0.21123377978801727,1.0873948335647583,0.45066261291503906,-2.8927621841430664,-2.026092529296875,1.9683188199996948,3.926439046859741,0.3047696650028229,-2.0516977310180664,0.5284693241119385,1.732527256011963
107,31200,31196,-0.028904885053634644,-0.12141624838113785,1.063836932182312,0.9324575662612915,-2.259821653366089,-2.3284647464752197,1.967069387435913,3.9268643856048584,0.3053279519081116,-1.9792863130569458,0.5687860250473022,1.7215156555175781
108,31210,31206,-0.003701206296682358,-0.1198638528585434,0.9758456349372864,-0.1032671332359314,2.9144608974456787,-2.4103219509124756,1.9660444259643555,3.9258334636688232,0.3027708828449249,-2.1262946128845215,0.5937151312828064,1.689975380897522
109,31220,31216,-0.0006285629351623356,-0.08037248253822327,0.9379268884658813,-0.48712095618247986,7.503631591796875,-2.8132877349853516,1.9663136005401611,3.9250738620758057,0.30307483673095703,-2.1551756858825684,0.6079702973365784,1.6700406074523926
110,31230,31226,0.00443961750715971,-0.0044770678505301476,0.9152008891105652,-1.4606741666793823,11.431883811950684,-2.492023468017578,1.9656810760498047,3.9252521991729736,0.30346059799194336,-2.245816707611084,0.5902207493782043,1.6431127786636353
111,31240,31236,0.06385819613933563,-0.005609480664134026,0.8975935578346252,-3.2647764682769775,11.489100456237793,-2.580284833908081,1.9659254550933838,3.9252731800079346,0.3017614185810089,-2.4258780479431152,0.5580454468727112,1.6088100671768188
112,31250,31246,0.10392992198467255,-0.02613709680736065,0.9518327116966248,-3.534773349761963,6.569345951080322,-2.464871883392334,1.9661808013916016,3.9253907203674316,0.3017981946468353,-2.4812498092651367,0.513597309589386,1.5819063186645508
113,31260,31256,0.10262493789196014,-0.07892169058322906,0.9702730774879456,-3.5231494903564453,6.566160678863525,-2.786363363265991,1.9657262563705444,3.924550771713257,0.30175286531448364,-2.591691732406616,0.457776814699173,1.5522396564483643
114,31270,31266,-0.0015223833033815026,-0.11099571734666824,0.9669454097747803,-1.7051186561584473,-0.7008863091468811,-2.480633020401001,1.966532588005066,3.924798011779785,0.30164605379104614,-2.6026597023010254,0.4419592022895813,1.5264406204223633
115,31280,31276,-0.02682209573686123,-0.02647857367992401,0.9986379742622375,-1.3335232734680176,-4.013304710388184,-2.4336273670196533,1.9665263891220093,3.9247729778289795,0.30123549699783325,-2.530550479888916,0.4204725921154022,1.506770133972168
116,31290,31286,-0.007546483539044857,0.09229795634746552,1.0063525438308716,-1.3648196458816528,-5.3530778884887695,-2.4467403888702393,1.966514229774475,3.924426555633545,0.3011283874511719,-2.5756478309631348,0.4112096428871155,1.4758687019348145
117,31300,31296,0.011880366131663322,-0.05005444213747978,0.9986797571182251,-0.7106080055236816,-6.746083736419678,-1.614483118057251,1.967263102531433,3.9249494075775146,0.3008855879306793,-2.6825268268585205,0.397382915019989,1.4423542022705078
118,31310,31306,-0.01221782062202692,0.022107724100351334,1.0407737493515015,-1.1051701307296753,-8.09927749633789,-1.1546196937561035,1.9691696166992188,3.9248125553131104,0.29754745960235596,-2.586425542831421,0.3866622745990753,1.4272514581680298
119,31320,31316,0.03928089514374733,0.014514314010739326,1.0524979829788208,-1.4344208240509033,-9.076155662536621,-1.7786580324172974,1.9689335823059082,3.9252769947052,0.2972298860549927,-2.3919827938079834,0.4614086151123047,1.4501479864120483
120,31330,31326,-0.002632053103297949,0.008017935790121555,1.091651439666748,-1.4659970998764038,-7.219032287597656,-2.651207685470581,1.9683259725570679,3.9244515895843506,0.29707714915275574,-2.372852087020874,0.43872976303100586,1.4194118976593018
121,31340,31336,0.018588043749332428,-0.05981820821762085,0.9789714813232422,-2.039187431335449,-7.391788482666016,-2.4185779094696045,1.9693886041641235,3.9237256050109863,0.29616257548332214,-2.2660300731658936,0.40509581565856934,1.3868167400360107
122,31350,31346,-0.003303561359643936,0.024290816858410835,1.0564810037612915,-3.452338933944702,-5.732537746429443,-2.401245594024658,1.9696874618530273,3.9244842529296875,0.29597052931785583,-2.1008028984069824,0.35446032881736755,1.3608425855636597
123,31360,31356,0.009661721996963024,-0.04636627063155174,0.9909128546714783,-3.7882180213928223,-5.031455039978027,-2.1842355728149414,1.968925952911377,3.924612522125244,0.2958846092224121,-2.4097065925598145,0.37062159180641174,1.3351753950119019
124,31370,31366,0.009216462261974812,0.01336656603962183,1.0524425506591797,-4.362391471862793,-3.739171266555786,-2.441681385040283,1.9727522134780884,3.924100160598755,0.2954915761947632,-2.220972776412964,0.2918829619884491,1.3038437366485596
125,31380,31376,0.013506921008229256,-0.06826255470514297,0.9946175217628479,-4.052026271820068,-8.233674049377441,-3.105454444885254,1.9722766876220703,3.9244189262390137,0.2921525239944458,-2.192006826400757,0.21372824907302856,1.2612589597702026
126,31390,31386,0.01923256367444992,-0.0003637887421064079,1.0459061861038208,-2.9896583557128906,-10.063773155212402,-2.7504987716674805,1.9732506275177002,3.924773693084717,0.291803240776062,-2.0836267471313477,0.2374058961868286,1.2551289796829224
127,31400,31396,-0.011870329268276691,-0.01231563650071621,0.9710329174995422,-4.332617282867432,-6.823784351348877,-2.3865880966186523,1.974085807800293,3.92397403717041,0.29151424765586853,-1.9851561784744263,0.24793772399425507,1.250725269317627
128,31410,31406,0.01695321686565876,-0.04718352109193802,0.9930245876312256,-0.40675088763237,-16.45305061340332,-1.6702264547348022,1.9748519659042358,3.923517942428589,0.2910647392272949,-1.825518250465393,0.20342476665973663,1.2269704341888428
129,31420,31416,-0.01789669133722782,0.06590536236763,1.028935194015503,0.43126407265663147,-13.605120658874512,-1.572492003440857,1.975172519683838,3.9237794876098633,0.2907840609550476,-1.8650223016738892,0.12578508257865906,1.1705750226974487
130,31430,31426,-0.009107764810323715,0.009321614168584347,1.0190684795379639,0.9501712918281555,-15.960612297058105,-0.8266633749008179,1.977935552597046,3.9254887104034424,0.2903132140636444,-1.5015122890472412,0.2047203779220581,1.1957696676254272
131,31440,31436,-0.019585898146033287,0.0988733321428299,1.0632696151733398,-0.40864720940589905,-10.494001388549805,-1.4742106199264526,1.977150321006775,3.9246370792388916,0.2902206480503082,-1.5114542245864868,0.2648026943206787,1.2012909650802612
132,31450,31446,-0.01766761764883995,0.0337008573114872,0.9805387258529663,-4.4180097579956055,-5.64475679397583,-0.782124400138855,1.979158639907837,3.923668146133423,0.2898796498775482,-1.566951036453247,0.20440736413002014,1.1736916303634644
133,31460,31456,0.02278483472764492,-0.06413821876049042,1.041054606437683,-4.977296829223633,-8.120702743530273,-0.9501572847366333,1.9818601608276367,3.9234981536865234,0.2895108163356781,-1.5247273445129395,0.16623470187187195,1.1632047891616821
134,31470,31466,0.042050402611494064,-0.2760728597640991,1.1801869869232178,-3.521043539047241,-10.4918794631958,-1.8654682636260986,1.9827990531921387,3.923884391784668,0.289194256067276,-1.4538010358810425,0.09722242504358292,1.1446362733840942
135,31480,31476,0.0341145358979702,-0.23806293308734894,1.1395940780639648,0.5322843194007874,-14.212408065795898,-1.6994047164916992,1.9843997955322266,3.9246716499328613,0.28904253244400024,-1.4346641302108765,0.10829836875200272,1.1439205408096313
136,31490,31486,0.012918909080326557,0.08390398323535919,1.001903772354126,-1.7632895708084106,-12.6576509475708,-1.1596015691757202,1.986525058746338,3.9240949153900146,0.28894466161727905,-1.070875644683838,0.058441463857889175,1.1254551410675049
137,31500,31496,-0.013271759264171124,0.0747213214635849,1.0167717933654785,-3.664900302886963,-14.250039100646973,-0.8736514449119568,1.985576868057251,3.92374849319458,0.28937217593193054,-1.1683882474899292,0.022960061207413673,1.1065278053283691
138,31510,31506,0.015236173756420612,-0.13519564270973206,1.118641972541809,-1.568934440612793,-17.687570571899414,-0.828678548336029,1.9889391660690308,3.9236607551574707,0.2912108302116394,-1.0605424642562866,-0.007189563941210508,1.089905023574829
139,31520,31516,0.0393638014793396,-0.16054819524288177,1.0777482986450195,2.302229166030884,-16.961828231811523,-0.9192636013031006,1.9905955791473389,3.923736810684204,0.29142826795578003,-0.7797284126281738,0.053386300802230835,1.096257209777832
140,31530,31526,-0.04380117356777191,0.06164863705635071,1.0273234844207764,-0.6208994388580322,-13.608428955078125,-0.04221804440021515,1.9906622171401978,3.923029661178589,0.29198235273361206,-0.7568774819374084,0.03997231647372246,1.0852270126342773
141,31540,31536,0.022514574229717255,-0.04130004346370697,1.0821936130523682,-2.7072484493255615,-11.496367454528809,-0.5150166153907776,1.9933449029922485,3.922971248626709,0.29146066308021545,-0.5928318500518799,0.008327229879796505,1.077997088432312
142,31550,31546,0.019517095759510994,-0.05290106683969498,1.028465986251831,-5.273331642150879,-12.564220428466797,-0.23364363610744476,1.9943287372589111,3.922933578491211,0.2919017970561981,-0.3113769292831421,-0.053418368101119995,1.067652702331543
143,31560,31556,0.00033060566056519747,-0.12495513260364532,1.1409082412719727,-2.7238128185272217,-14.14456558227539,-0.8390597701072693,1.9942641258239746,3.9232065677642822,0.2925683557987213,-0.34833595156669617,-0.10792411863803864,1.0629091262817383
144,31570,31566,0.031084097921848297,-0.18907609581947327,1.0476155281066895,-1.3160793781280518,-9.099884986877441,-0.8292214274406433,1.9961206912994385,3.923801898956299,0.29335618019104004,-0.15714131295681,-0.0620906725525856,1.0619516372680664
145,31580,31576,-0.0121932877227664,-0.14628054201602936,1.1427587270736694,0.7347010374069214,-7.251291275024414,-0.9016192555427551,1.9970815181732178,3.923661231994629,0.29413142800331116,-0.077289879322052,-0.08653886616230011,1.0517771244049072
146,31590,31586,0.032849058508872986,-0.07955852150917053,0.9875469207763672,2.162799119949341,-4.0125041007995605,-1.3229855298995972,1.9987590312957764,3.923574924468994,0.2949152886867523,-0.022848404943943024,-0.09032788127660751,1.0454590320587158
147,31600,31596,-0.004820211790502071,0.1216384693980217,1.0339041948318481,0.7481462359428406,-8.477617263793945,-0.9317662715911865,2.000215768814087,3.9230785369873047,0.29572972655296326,-0.052707917988300323,-0.07581913471221924,1.036710262298584
148,31610,31606,0.03393466770648956,-0.03215523064136505,1.0201928615570068,-0.16079577803611755,-11.80979061126709,-0.9780967831611633,2.0030646324157715,3.922929525375366,0.2959245443344116,0.2595972418785095,-0.06817557662725449,1.021340012550354
149,31620,31616,-0.018271932378411293,-0.11611619591712952,1.1017144918441772,0.5435599684715271,-7.113927841186523,-1.2990357875823975,2.002014398574829,3.92288875579834,0.29711636900901794,0.17994634807109833,0.005748142953962088,1.0141607522964478
150,31630,31626,0.037327177822589874,0.010950975120067596,0.9185698628425598,-0.19892726838588715,-9.233518600463867,-1.405657410621643,2.0051820278167725,3.9218320846557617,0.2979249060153961,0.3438057005405426,-0.007901709526777267,1.0015029907226562
151,31640,31636,-0.02364916168153286,-0.005076584871858358,1.0337117910385132,-1.486043095588684,-5.689251899719238,-1.493671178817749,2.0063698291778564,3.9218673706054688,0.29864439368247986,0.4834839403629303,-0.028938356786966324,0.9878799915313721
152,31650,31646,0.053908929228782654,0.03689887374639511,0.9579500555992126,-3.245358943939209,-6.5666117668151855,-1.614472508430481,2.0075833797454834,3.922344207763672,0.29968705773353577,0.5400453209877014,-0.07070811092853546,0.9762510657310486
153,31660,31656,0.028349995613098145,-0.007113611325621605,0.9543349742889404,-3.5206992626190186,-2.7179129123687744,-1.86058509349823,2.0096914768218994,3.9224674701690674,0.3005716800689697,0.6166424751281738,-0.12805385887622833,0.9618475437164307
154,31670,31666,0.038649920374155045,0.017508530989289284,0.9975425601005554,-3.3359763622283936,-2.894775390625,-2.1915059089660645,2.010962724685669,3.922614097595215,0.30197376012802124,0.4626174867153168,-0.1933785080909729,0.9556816220283508
155,31680,31676,0.02556595765054226,0.028154432773590088,1.013088345527649,-2.6117396354675293,-3.2323694229125977,-2.5353426933288574,2.014446973800659,3.92273211479187,0.3027263879776001,0.5423111319541931,-0.17335505783557892,0.9274699687957764
156,31690,31686,-0.016505718231201172,0.012965301983058453,0.9889730215072632,-1.3609100580215454,-5.84844970703125,-2.450638771057129,2.0160462856292725,3.9220945835113525,0.30366915464401245,0.6196359992027283,-0.29501956701278687,0.9173180460929871
157,31700,31696,-0.05281537398695946,0.014187220484018326,0.9799546599388123,0.2599777281284332,-7.417004585266113,-2.1770524978637695,2.017096757888794,3.9223766326904297,0.3045712113380432,0.7847069501876831,-0.23088937997817993,0.8725964426994324
158,31710,31706,-0.06558844447135925,0.016661381348967552,0.98512864112854,1.393000602722168,-4.946662425994873,-1.7445049285888672,2.017652750015259,3.9215216636657715,0.3039665222167969,0.7163377404212952,-0.2286090850830078,0.8607416749000549
159,31720,31716,-0.0046406155452132225,-0.01821710541844368,0.9738042950630188,2.845773220062256,-4.312686920166016,-1.7781271934509277,2.0200250148773193,3.9213390350341797,0.30463409423828125,0.7978443503379822,-0.20141030848026276,0.8389295339584351
160,31730,31726,0.007916239090263844,-0.02401651442050934,0.9678218364715576,2.4344334602355957,-5.327531814575195,-1.1833420991897583,2.020886182785034,3.9207751750946045,0.30540668964385986,0.8622267842292786,-0.16202819347381592,0.8186521530151367
161,31740,31736,0.015919208526611328,-0.026852114126086235,0.965152382850647,1.0039706230163574,-3.9426076412200928,-0.9713888168334961,2.0221970081329346,3.920232057571411,0.3042603135108948,0.9226852655410767,-0.2083442509174347,0.8095642924308777
162,31750,31746,0.0505090095102787,-0.04618796706199646,0.9649182558059692,0.17222735285758972,-1.7117018699645996,-1.3484456539154053,2.0230820178985596,3.9205780029296875,0.30484357476234436,1.040062665939331,-0.18701688945293427,0.7989708185195923
163,31760,31756,0.076360784471035,-0.08008107542991638,0.9626714587211609,0.7393749356269836,-1.5874134302139282,-2.1993861198425293,2.0227460861206055,3.9207921028137207,0.30537548661231995,0.971453070640564,-0.17579902708530426,0.7865175604820251
164,31770,31766,-0.0005181477754376829,-0.019993938505649567,0.980648934841156,-0.14331045746803284,-0.42563310265541077,-1.850616216659546,2.0248687267303467,3.9200994968414307,0.30584999918937683,0.9742003679275513,-0.1689257025718689,0.7794791460037231
165,31780,31776,-0.013307573273777962,0.004831517115235329,0.9840728044509888,1.1945122480392456,2.355468273162842,-2.5066680908203125,2.0262508392333984,3.921131134033203,0.30630508065223694,1.1109999418258667,-0.15793223679065704,0.7535516023635864
166,31790,31786,-0.008126961998641491,-0.021748218685388565,0.9612597227096558,1.558531641960144,1.790383219718933,-2.580954074859619,2.0263516902923584,3.920938491821289,0.30690374970436096,1.065550446510315,-0.21940596401691437,0.738766610622406
167,31800,31796,-0.01860021986067295,0.01652596704661846,0.9532787203788757,1.5831948518753052,1.914472222328186,-2.0869104862213135,2.0276007652282715,3.921684503555298,0.30731287598609924,1.018527626991272,-0.19327878952026367,0.7164260149002075
168,31810,31806,-0.04485812038183212,0.08467356115579605,0.9634115099906921,1.2969602346420288,1.6808321475982666,-1.7182555198669434,2.029291868209839,3.9212090969085693,0.3104100525379181,1.1212823390960693,-0.16940371692180634,0.6800040602684021
169,31820,31816,-0.040842704474925995,0.1070578545331955,0.9618545770645142,1.596344232559204,1.639601469039917,-0.7576469779014587,2.0290727615356445,3.9203028678894043,0.31099823117256165,1.0514689683914185,-0.14284035563468933,0.6514351963996887
170,31830,31826,-0.024731487035751343,0.06620745360851288,0.9664894938468933,2.566653251647949,5.751275062561035,-0.9512249827384949,2.03088116645813,3.919275999069214,0.3114252984523773,0.9663602113723755,-0.11265820264816284,0.6415121555328369
171,31840,31836,-0.026950780302286148,0.02786906622350216,0.9551141858100891,2.4052999019622803,3.1230556964874268,0.00040394498500972986,2.032499313354492,3.9184954166412354,0.3120517134666443,0.9298743605613708,-0.1448555290699005,0.6355714797973633
172,31850,31846,0.029421987012028694,-0.08720438182353973,1.0119304656982422,1.3500155210494995,1.4230191707611084,-0.11323512345552444,2.0334105491638184,3.9199562072753906,0.31248778104782104,0.9022993445396423,-0.09416230022907257,0.6305215954780579
173,31860,31856,0.07404591888189316,-0.14713838696479797,1.0120024681091309,1.8391194343566895,1.3536295890808105,-0.4092239737510681,2.0346248149871826,3.9197397232055664,0.3129294812679291,0.9740985631942749,-0.05454055219888687,0.61653733253479
174,31870,31866,0.07070578634738922,-0.21290570497512817,1.0680267810821533,1.8584496974945068,2.207611083984375,-0.8876383900642395,2.034707546234131,3.919647455215454,0.31328973174095154,0.8207685351371765,-0.1706700474023819,0.6469823122024536
175,31880,31876,0.02151639573276043,-0.1370728760957718,1.0234884023666382,2.690718412399292,1.73887038230896,-1.2763079404830933,2.037431001663208,3.9205291271209717,0.31370705366134644,0.9043024778366089,-0.1131075918674469,0.618452787399292
176,31890,31886,0.024898579344153404,-0.056117814034223557,0.9454978704452515,3.1527888774871826,4.004509449005127,-1.6563482284545898,2.0379436016082764,3.9202721118927,0.31433677673339844,0.9699392914772034,-0.12482783943414688,0.6130934953689575
177,31900,31896,0.005731962155550718,-0.013060447759926319,0.9201387763023376,4.209090232849121,0.7743825316429138,-0.7375198006629944,2.0379490852355957,3.9206604957580566,0.31321144104003906,0.9597170948982239,-0.04811592027544975,0.588745653629303
178,31910,31906,-0.014245333150029182,0.027552122250199318,1.0018986463546753,4.2005462646484375,4.022680759429932,-1.4087904691696167,2.038844108581543,3.9201366901397705,0.3135493993759155,0.9475862383842468,0.03323207423090935,0.5680577158927917
179,31920,31916,0.0015048045897856355,0.08935444802045822,0.9472841024398804,3.5692458152770996,1.883650541305542,-0.4368595480918884,2.039782762527466,3.919602632522583,0.31381839513778687,0.9238051176071167,0.03152419626712799,0.5649339556694031
180,31930,31926,0.018373241648077965,-0.03874259442090988,1.0094876289367676,2.7577221393585205,5.924483299255371,-0.44140714406967163,2.0407066345214844,3.9196667671203613,0.3140884339809418,0.873738706111908,0.10020798444747925,0.5525845885276794
181,31940,31936,-0.010607767850160599,0.030944470316171646,1.0330990552902222,2.5876624584198,6.632811546325684,-0.237257182598114,2.041792154312134,3.919614553451538,0.312498539686203,0.8679894804954529,0.15976350009441376,0.5299115777015686
182,31950,31946,-0.009491835720837116,0.04715847223997116,1.0427172183990479,1.7674951553344727,6.0018696784973145,0.18789991736412048,2.041449785232544,3.9177684783935547,0.31266719102859497,0.8231483101844788,0.2051546275615692,0.5353674292564392
183,31960,31956,0.027564767748117447,-0.0166779812425375,1.0247682332992554,0.39652490615844727,9.87523078918457,-0.9366230964660645,2.042673349380493,3.9190456867218018,0.3129217028617859,0.7576266527175903,0.23255164921283722,0.5298340320587158
184,31970,31966,-0.0050087920390069485,-0.009791161864995956,1.0141104459762573,-0.3796999156475067,6.508489608764648,-1.1535485982894897,2.0428364276885986,3.9187934398651123,0.3102492392063141,0.6850977540016174,0.24314270913600922,0.5044376850128174
185,31980,31976,-0.010913432575762272,-0.12162356823682785,1.0308325290679932,-1.6766412258148193,7.111359596252441,-1.4582407474517822,2.0431132316589355,3.9173567295074463,0.3103518784046173,0.6319878697395325,0.23536129295825958,0.48370933532714844
186,31990,31986,-0.006411535665392876,-0.17897865176200867,0.9657580852508545,-2.219672679901123,10.429574012756348,-2.4127156734466553,2.0434279441833496,3.917430877685547,0.3104636073112488,0.5815437436103821,0.20614419877529144,0.4744042158126831
187,32000,31996,-0.017771081998944283,-0.0637807622551918,0.9443545937538147,-2.4366812705993652,10.152527809143066,-2.260554075241089,2.043975591659546,3.9171650409698486,0.3117643892765045,0.5033613443374634,0.16918160021305084,0.45980021357536316
188,32010,32006,-0.01123935915529728,0.07848730683326721,0.9329685568809509,-1.4638906717300415,8.848382949829102,-2.216324806213379,2.0448408126831055,3.917248249053955,0.31190258264541626,0.3453739583492279,0.13783837854862213,0.44266971945762634
189,32020,32016,0.019541656598448753,0.08583638072013855,0.9315455555915833,-1.4636666774749756,6.276699542999268,-1.7269396781921387,2.0457749366760254,3.9172990322113037,0.3119308352470398,0.2966774106025696,0.11580991744995117,0.4454582929611206
190,32030,32026,-0.020210066810250282,0.01637430302798748,1.0350252389907837,-0.9635670185089111,3.794440269470215,-1.2395524978637695,2.0459816455841064,3.9185707569122314,0.3119395673274994,0.2684215009212494,0.10082479566335678,0.42414870858192444
191,32040,32036,0.02473694086074829,-0.0223190076649189,1.0858346223831177,-1.3764222860336304,-0.3510016202926636,-0.4886241853237152,2.0461618900299072,3.917860507965088,0.3094635307788849,0.27761995792388916,0.0898653119802475,0.4024568498134613
192,32050,32046,0.05419354885816574,-0.1717803180217743,1.114382028579712,-1.3364830017089844,5.140017509460449,-1.0995341539382935,2.0458152294158936,3.9173645973205566,0.30943959951400757,0.19580145180225372,0.07976678758859634,0.38366878032684326
193,32060,32056,-0.005683847703039646,-0.11015543341636658,1.0892199277877808,-0.03473445400595665,9.089361190795898,-1.9284213781356812,2.0469369888305664,3.917463541030884,0.3094448745250702,0.14039267599582672,0.07741256803274155,0.3683190643787384
194,32070,32066,0.023130537942051888,-0.0924946591258049,0.9550138115882874,1.1876912117004395,11.887605667114258,-3.023077964782715,2.0474610328674316,3.9177205562591553,0.3090890049934387,0.041706763207912445,0.08698651939630508,0.3566761016845703
195,32080,32076,-0.030627373605966568,0.01693861559033394,0.9511377215385437,0.32257917523384094,7.392124176025391,-2.0240256786346436,2.0485877990722656,3.917548656463623,0.309219092130661,-0.06101521849632263,0.10066869109869003,0.3307083547115326
196,32090,32086,0.017160315066576004,-0.0011045463616028428,0.9842864871025085,0.368302583694458,8.018959999084473,-2.0853569507598877,2.0490832328796387,3.917388677597046,0.30928754806518555,-0.13815459609031677,0.10583537817001343,0.3304916024208069
197,32100,32096,0.020725242793560028,0.03301853686571121,0.9932538866996765,-0.3069222569465637,2.6377882957458496,-1.1879686117172241,2.049372911453247,3.918092727661133,0.312063068151474,-0.25502467155456543,0.11109502613544464,0.3035909831523895
198,32110,32106,0.011785886250436306,-0.009435552172362804,1.094314694404602,-2.457947015762329,0.8146378397941589,-0.3109032213687897,2.0505599975585938,3.917583703994751,0.31224215030670166,-0.2434430569410324,0.09875818341970444,0.27102038264274597
199,32120,32116,0.07260610163211823,-0.2607841193675995,1.1615859270095825,-1.009389042854309,2.4004766941070557,-1.3538763523101807,2.050278425216675,3.9168546199798584,0.3125426173210144,-0.3710675835609436,0.07610661536455154,0.25246647000312805
200,32130,32126,-0.0030820374377071857,-0.05998150259256363,1.0944886207580566,-0.12588754296302795,3.1135711669921875,-1.4038054943084717,2.051957130432129,3.9169108867645264,0.3128247559070587,-0.3256552517414093,0.0592784620821476,0.25367072224617004
201,32140,32136,-0.002773650223389268,-0.06650004535913467,0.9905524253845215,1.0498305559158325,3.506283760070801,-1.6570402383804321,2.0522265434265137,3.9178457260131836,0.31379252672195435,-0.38003188371658325,0.061439141631126404,0.23887845873832703
202,32150,32146,-0.019310832023620605,0.016961170360445976,0.9428545832633972,1.0309890508651733,3.102541923522949,-1.5699388980865479,2.0530335903167725,3.917283773422241,0.31430649757385254,-0.432698130607605,0.07123824954032898,0.2216324359178543
203,32160,32156,-0.026028292253613472,0.23688746988773346,0.8944687247276306,1.3448832035064697,1.8610987663269043,-0.9776183366775513,2.0539255142211914,3.9187331199645996,0.3147880733013153,-0.46428182721138,0.012352454476058483,0.2327793389558792
204,32170,32166,0.020171983167529106,0.10663150250911713,0.9025744199752808,2.079427480697632,0.26480886340141296,-0.7536885738372803,2.0543212890625,3.9191975593566895,0.307857483625412,-0.6525354981422424,0.04881482571363449,0.21965645253658295
205,32180,32176,0.013237585313618183,0.0008259767782874405,0.9979462027549744,3.2356109619140625,-0.3375932276248932,-0.7065978050231934,2.0573110580444336,3.9188685417175293,0.30763816833496094,-0.5586588978767395,0.012009706348180771,0.1976022571325302
206,32190,32186,0.004028738476336002,-0.039227694272994995,1.0091348886489868,3.4535651206970215,-1.3805068731307983,-0.15742790699005127,2.056947708129883,3.9187605381011963,0.3076179623603821,-0.5339784622192383,0.15639445185661316,0.21614082157611847
207,32200,32196,0.029923943802714348,-0.1598174124956131,1.0469071865081787,4.847634792327881,-2.0772576332092285,-0.20494548976421356,2.0576040744781494,3.918323040008545,0.308411180973053,-0.42859041690826416,0.14062859117984772,0.21267816424369812
208,32210,32206,-0.008156681433320045,0.03058663196861744,1.0253249406814575,3.3712165355682373,-0.6343664526939392,0.05764031782746315,2.0576324462890625,3.918867349624634,0.3084792196750641,-0.32735657691955566,0.2159336805343628,0.2010694295167923
209,32220,32216,-0.0031853800173848867,-0.001173557247966528,0.9815619587898254,1.3093976974487305,0.06459503620862961,0.05692844092845917,2.0572142601013184,3.9183900356292725,0.3085527718067169,-0.4775724709033966,0.19393005967140198,0.1970507800579071
210,32230,32226,0.01356080174446106,-0.008362805470824242,1.02003014087677,0.1072365865111351,2.1652724742889404,-0.234629288315773,2.0594661235809326,3.918375253677368,0.3096655011177063,-0.4822515547275543,0.22186614573001862,0.18522033095359802
211,32240,32236,-0.01909838244318962,-0.04264736920595169,1.0661170482635498,-1.1376503705978394,1.8625649213790894,-0.38397103548049927,2.0602238178253174,3.918519973754883,0.3097541928291321,-0.582330584526062,0.22146068513393402,0.17492862045764923
212,32250,32246,0.014834670349955559,-0.019542764872312546,1.029035210609436,-0.9376566410064697,3.29256010055542,-0.32760927081108093,2.0618648529052734,3.9178519248962402,0.30979928374290466,-0.5232505798339844,0.20963560044765472,0.17244607210159302
213,32260,32256,-0.014720759354531765,-0.04191228747367859,1.068642497062683,-0.5905193090438843,1.560489535331726,-0.2782588303089142,2.061760902404785,3.918782949447632,0.3100634813308716,-0.39430516958236694,0.19580292701721191,0.19297027587890625
214,32270,32266,-0.016768919304013252,-0.020374350249767303,1.0859390497207642,2.1724679470062256,-2.0815141201019287,-0.2124575525522232,2.0612688064575195,3.9188857078552246,0.3110903799533844,-0.7264608144760132,0.20848052203655243,0.18610234558582306
215,32280,32276,0.024314848706126213,-0.017050812020897865,0.9707216024398804,3.462951898574829,-2.190001964569092,0.0001946707343449816,2.0652031898498535,3.91829252243042,0.3112465441226959,-0.6047043204307556,0.25425317883491516,0.168981671333313
216,32290,32286,-0.017815018072724342,0.006453643087297678,0.9884516596794128,3.9705452919006348,-2.7065422534942627,-0.1484481394290924,2.064889430999756,3.917715311050415,0.3117399215698242,-0.4705655872821808,0.31626105308532715,0.1724342703819275
217,32300,32296,0.028263093903660774,-0.0114717623218894,0.9891398549079895,3.400740623474121,-3.586061716079712,-0.09976184368133545,2.0648558139801025,3.9171319007873535,0.31157979369163513,-0.48101723194122314,0.37715697288513184,0.1797492355108261
218,32310,32306,-0.0017277675215154886,-0.024706639349460602,1.039586067199707,1.1157711744308472,-4.7003021240234375,0.08878758549690247,2.0660738945007324,3.9162070751190186,0.31185081601142883,-0.48221004009246826,0.41529443860054016,0.15662868320941925
219,32320,32316,-0.009397663176059723,-0.003852652385830879,1.0465892553329468,-1.3535072803497314,-3.721902847290039,0.13425621390342712,2.06701397895813,3.91567325592041,0.31214678287506104,-0.3959939777851105,0.4146439731121063,0.15165205299854279
220,32330,32326,-0.04029569774866104,-0.03681004047393799,1.0050781965255737,-3.448193311691284,-0.12045738101005554,0.18963401019573212,2.067523241043091,3.9151134490966797,0.3126966655254364,-0.3216123878955841,0.3748129904270172,0.12790481746196747
221,32340,32336,0.061088431626558304,-0.019407812505960464,1.0069888830184937,-4.431797027587891,0.3327091634273529,-0.6324660181999207,2.0681209564208984,3.915151596069336,0.3131144940853119,-0.3672468960285187,0.30584660172462463,0.12534013390541077
222,32350,32346,0.05085430294275284,0.0037316668312996626,1.0240213871002197,-5.365230560302734,-2.5967421531677246,-0.21426771581172943,2.0693955421447754,3.9150283336639404,0.31347036361694336,-0.4176565110683441,0.22176721692085266,0.10741477459669113
223,32360,32356,-0.014820961281657219,-0.022870978340506554,0.9943065643310547,-4.153059482574463,-2.9579899311065674,0.08400005847215652,2.070492744445801,3.914602041244507,0.31380411982536316,-0.43040066957473755,0.30015483498573303,0.11274212598800659
224,32370,32366,0.009882940910756588,-0.05677885189652443,0.9872115254402161,-0.30335983633995056,-2.476581573486328,0.057212475687265396,2.0717530250549316,3.9129116535186768,0.3124821186065674,-0.3549029529094696,0.23785993456840515,0.11959034949541092
225,32380,32376,0.014125115238130093,-0.029723864048719406,1.0099194049835205,2.1527774333953857,-2.6299827098846436,0.3340495526790619,2.0723304748535156,3.9132001399993896,0.31285718083381653,-0.2056555449962616,0.22919878363609314,0.16012261807918549
226,32390,32386,0.04176843911409378,-0.027914606034755707,1.024606704711914,2.2871243953704834,-3.6229920387268066,0.23840749263763428,2.073359727859497,3.9158833026885986,0.31332269310951233,-0.3770209848880768,0.2551495432853699,0.19540567696094513
227,32400,32396,0.04339027777314186,-0.07124119997024536,0.9978821873664856,1.0835572481155396,-2.559263229370117,0.037422679364681244,2.07708477973938,3.9166738986968994,0.3141760230064392,-0.2893237769603729,0.27665022015571594,0.21793504059314728
228,32410,32406,0.032162513583898544,-0.09801624715328217,0.9953364133834839,0.9329341650009155,-3.976449728012085,-0.0223498847335577,2.0775911808013916,3.916821241378784,0.3146122097969055,-0.2851702868938446,0.2864927351474762,0.1962665319442749
229,32420,32416,0.028655769303441048,-0.07800693809986115,1.0240952968597412,-0.4400941729545593,-3.845369577407837,0.1581173986196518,2.0784432888031006,3.916642427444458,0.3150021731853485,-0.1860831379890442,0.285117506980896,0.19579504430294037
230,32430,32426,0.006266102194786072,-0.0007991382735781372,1.0117238759994507,-3.1450068950653076,-3.595346212387085,-0.17128001153469086,2.078909158706665,3.916590690612793,0.31100186705589294,-0.0908849835395813,0.3283234238624573,0.19984722137451172
231,32440,32436,0.040383752435445786,-0.11724264919757843,0.9961544275283813,-4.5035247802734375,-4.042823314666748,-0.25151532888412476,2.079322099685669,3.9160029888153076,0.31117069721221924,-0.17014697194099426,0.24001413583755493,0.17980116605758667
232,32450,32446,-0.022326398640871048,0.029094206169247627,0.9893418550491333,-3.79310941696167,-2.817596435546875,0.2202969342470169,2.0815136432647705,3.9158005714416504,0.3112448751926422,-0.1643621176481247,0.22798538208007812,0.1717853993177414
233,32460,32456,-0.02287588082253933,0.12379739433526993,0.97386634349823,-3.9373228549957275,-1.6621378660202026,0.7125519514083862,2.0826032161712646,3.9148974418640137,0.31157517433166504,-0.0992792397737503,0.1384476125240326,0.17385929822921753
234,32470,32466,0.03333420306444168,-0.0725388452410698,0.9707977771759033,-3.8931655883789062,-0.36653098464012146,1.038517951965332,2.083378553390503,3.9149107933044434,0.31175243854522705,-0.05866597220301628,0.20992179214954376,0.18651823699474335
235,32480,32476,0.03145463392138481,-0.1631201207637787,1.040672779083252,-2.8968422412872314,-0.6109848022460938,0.7066199779510498,2.084049940109253,3.914708137512207,0.31187108159065247,-0.08891059458255768,0.13137902319431305,0.22717200219631195
236,32490,32486,0.05804881453514099,-0.11450330913066864,1.0053902864456177,-1.6115769147872925,-1.4817867279052734,0.5355849266052246,2.085361957550049,3.9145545959472656,0.3119715452194214,-0.02591685578227043,0.0799267590045929,0.2545104920864105
237,32500,32496,0.04812842607498169,-0.1349116861820221,1.0033233165740967,0.660280168056488,-4.074228763580322,0.471733421087265,2.0881338119506836,3.918039560317993,0.3129081130027771,-0.10155583918094635,0.13091397285461426,0.3044140338897705
238,32510,32506,0.0024117291904985905,-0.010372444055974483,1.0177963972091675,0.30201879143714905,-5.01977014541626,0.07386999577283859,2.0901081562042236,3.9174273014068604,0.3130112588405609,0.07564522325992584,0.11213056743144989,0.31707221269607544
239,32520,32516,-0.02892535924911499,-0.023851213976740837,1.032623291015625,-0.36703652143478394,-2.7126288414001465,0.126669779419899,2.089543581008911,3.9170711040496826,0.3133772611618042,0.16456899046897888,0.09244079142808914,0.31678450107574463
240,32530,32526,-0.005997311323881149,-0.01648922823369503,1.0076254606246948,-3.150341272354126,-1.3244649171829224,0.21072614192962646,2.0899405479431152,3.9172892570495605,0.3131673336029053,0.0699005126953125,0.04872698336839676,0.326618492603302
241,32540,32536,0.04659624397754669,0.00930370669811964,0.9730300307273865,-3.494802236557007,0.6465441584587097,0.1364476978778839,2.091923475265503,3.9180121421813965,0.3133765161037445,0.10905535519123077,0.057159870862960815,0.3413471281528473
242,32550,32546,0.039538055658340454,-0.03428707271814346,0.9702602624893188,-2.525812864303589,-0.30454251170158386,0.17476080358028412,2.092496633529663,3.9171555042266846,0.3136221468448639,0.2073594629764557,0.1356700360774994,0.32350873947143555
243,32560,32556,-0.006996725220233202,-0.00039461522828787565,1.0163978338241577,-2.6728978157043457,0.27159935235977173,0.11602935194969177,2.0928821563720703,3.9163930416107178,0.313250869512558,0.0690474659204483,0.060796383768320084,0.3401844799518585
244,32570,32566,0.05899219959974289,-0.02705768682062626,0.9906435608863831,-3.0191471576690674,0.8707576990127563,-0.02707045152783394,2.0952556133270264,3.9164257049560547,0.31334054470062256,0.09136485308408737,-0.08828908205032349,0.34323760867118835
245,32580,32576,0.050528448075056076,-0.15908131003379822,0.9985936880111694,-2.10733962059021,0.06408125907182693,-0.15429812669754028,2.0959956645965576,3.9185872077941895,0.3135285973548889,0.1158914789557457,-0.06493257731199265,0.375590980052948
246,32590,32586,-0.001112564466893673,-0.16196349263191223,1.0077152252197266,0.2285696268081665,-1.0620163679122925,-0.6606666445732117,2.0966010093688965,3.917626142501831,0.31372198462486267,0.15134166181087494,-0.0953265130519867,0.36623871326446533
247,32600,32596,-0.03056447207927704,-0.06782490760087967,0.9778361320495605,-1.1429778337478638,-2.4013142585754395,-0.5934935212135315,2.097285032272339,3.9166102409362793,0.31327277421951294,0.12192009389400482,-0.11612701416015625,0.3331819772720337
248,32610,32606,-0.007218194659799337,-0.028131946921348572,0.99424809217453,0.27515456080436707,-2.196979522705078,-0.05551135912537575,2.0990586280822754,3.9176080226898193,0.3133929967880249,0.2588967978954315,-0.13697555661201477,0.3790977895259857
249,32620,32616,0.005477826111018658,-0.014960003085434437,1.010200023651123,1.7351598739624023,-2.509364604949951,-0.5502599477767944,2.0984771251678467,3.91835618019104,0.31360238790512085,0.15326575934886932,-0.13803671300411224,0.37135934829711914
250,32630,32626,0.010936731472611427,0.08742330223321915,1.019004464149475,0.35335466265678406,-1.2426447868347168,-0.6648820042610168,2.100625991821289,3.9171009063720703,0.31343430280685425,0.1269005537033081,-0.13515189290046692,0.33799099922180176
251,32640,32636,0.022798560559749603,0.051361262798309326,1.046484112739563,1.0611655712127686,-0.1620604395866394,-0.450229287147522,2.1020407676696777,3.9169046878814697,0.31353846192359924,0.16080519556999207,-0.05760912224650383,0.3224347233772278
252,32650,32646,0.0046414402313530445,-0.008622044697403908,1.0531948804855347,2.1704177856445312,1.6478967666625977,-0.9966844916343689,2.10300350189209,3.9159395694732666,0.31373998522758484,0.09929113835096359,-0.04970504716038704,0.31038525700569153
253,32660,32656,0.007697467692196369,-0.04147183895111084,0.9961651563644409,-0.5942318439483643,1.5349000692367554,-1.5408440828323364,2.104336738586426,3.915701389312744,0.3160579204559326,0.18810522556304932,-0.04586139693856239,0.27946412563323975
254,32670,32666,-0.005230726208537817,-0.09824109077453613,0.9850487112998962,-0.4347166419029236,1.2657265663146973,-1.0349739789962769,2.10414719581604,3.9144294261932373,0.316521555185318,0.1827654242515564,-0.06843289732933044,0.2681271433830261
255,32680,32676,0.006364581175148487,-0.0897306427359581,0.9382326602935791,-0.4138924479484558,-0.2029435783624649,-1.0884218215942383,2.1054563522338867,3.9167096614837646,0.3169252574443817,0.17813414335250854,-0.0198045764118433,0.3022816777229309
256,32690,32686,0.015910685062408447,-0.06823267787694931,0.942561149597168,-0.41279336810112,1.3633493185043335,-1.212955355644226,2.105924606323242,3.915858030319214,0.3172646760940552,0.19483327865600586,-0.0456777960062027,0.29856038093566895
257,32700,32696,0.016340017318725586,-0.015856951475143433,1.0026143789291382,0.4057222902774811,-1.3047816753387451,-1.1682299375534058,2.107048273086548,3.9176743030548096,0.3142307996749878,0.218760684132576,0.09126390516757965,0.3001664876937866
258,32710,32706,0.022414376959204674,-0.010836154222488403,1.010118842124939,-0.04609959200024605,-0.37932419776916504,-1.6766659021377563,2.107295274734497,3.916060209274292,0.31431421637535095,0.09625273197889328,0.06214525178074837,0.3023022413253784
259,32720,32716,0.011771338991820812,-0.03232787922024727,0.9605916142463684,-0.8960438966751099,-1.193687915802002,-1.1213691234588623,2.1097183227539062,3.915766477584839,0.31431475281715393,0.21037663519382477,0.025628995150327682,0.27918577194213867
260,32730,32726,-0.050155915319919586,0.00017414511239621788,1.0630563497543335,-2.546661138534546,-0.6146261096000671,-0.8961741924285889,2.109377861022949,3.916837215423584,0.3168216645717621,0.2495303750038147,-0.02033258229494095,0.30127763748168945
261,32740,32736,-0.027223115786910057,-0.0078095789067447186,1.0743759870529175,-2.6877474784851074,0.14991334080696106,-0.91705721616745,2.1098039150238037,3.916685104370117,0.317098468542099,0.34340375661849976,-0.08386402577161789,0.2974669337272644
262,32750,32746,-0.016807394102215767,0.076889269053936,0.9846247434616089,-2.629927635192871,2.9251692295074463,-0.5735040903091431,2.1098504066467285,3.917263984680176,0.3174872398376465,0.3242603838443756,-0.15016908943653107,0.28406697511672974
263,32760,32756,0.02656700648367405,0.06285880506038666,0.9254686832427979,-2.037452220916748,3.8829081058502197,-0.9651680588722229,2.110562801361084,3.917727470397949,0.31592556834220886,0.2699601948261261,-0.1303507387638092,0.2958308160305023
264,32770,32766,0.05230778455734253,-0.0020059426315128803,0.9588980674743652,0.1928168535232544,4.649419784545898,-1.1990007162094116,2.1114747524261475,3.9179885387420654,0.3160507082939148,0.2753860056400299,-0.08493749797344208,0.3099977374076843
265,32780,32776,0.07960356771945953,-0.08017934858798981,0.9810732007026672,2.9440977573394775,3.190403938293457,-1.228610634803772,2.1114866733551025,3.9169301986694336,0.3162690997123718,0.12352916598320007,-0.08498275279998779,0.2949422001838684
266,32790,32786,0.07972396165132523,-0.12147581577301025,0.9803802371025085,3.574523687362671,2.892313003540039,-1.034392237663269,2.1130266189575195,3.916674852371216,0.31691280007362366,0.06071131303906441,-0.13665524125099182,0.28882262110710144
267,32800,32796,0.005575753282755613,-0.05474412813782692,0.9978650212287903,3.138756036758423,1.4973044395446777,-0.9109385013580322,2.114044189453125,3.9183530807495117,0.31700053811073303,0.027399899438023567,-0.020064298063516617,0.309930682182312
268,32810,32806,0.016577832400798798,-0.07602047920227051,1.0023895502090454,2.22383189201355,2.7057886123657227,-1.797200083732605,2.1146554946899414,3.91792631149292,0.3170965611934662,-0.0722251757979393,-0.07897394895553589,0.35641205310821533
269,32820,32816,-0.029842538759112358,-0.08104096353054047,0.9786679744720459,1.876670241355896,-0.236440971493721,-2.2191402912139893,2.1159613132476807,3.919329881668091,0.3171147406101227,0.010188093408942223,0.09352760761976242,0.3131096065044403
270,32830,32826,-0.024234207347035408,0.020170440897345543,0.9519494771957397,-0.7439050078392029,-2.5124104022979736,-1.7682605981826782,2.1157901287078857,3.9175302982330322,0.3175570070743561,-0.032086316496133804,0.07326509803533554,0.2994806170463562
271,32840,32836,-0.027541572228074074,0.10151073336601257,1.0253832340240479,-2.7163619995117188,-3.470818281173706,-1.6317733526229858,2.1171975135803223,3.917342185974121,0.3176058828830719,-0.19453465938568115,0.015570268966257572,0.3021324872970581
272,32850,32846,-0.005379600450396538,0.06723423302173615,1.0580898523330688,-4.385471343994141,-4.297050476074219,-1.4267666339874268,2.1202945709228516,3.9181220531463623,0.31750768423080444,-0.019426478073000908,0.009057536721229553,0.28097885847091675
273,32860,32856,-0.008470536209642887,0.0013218640815466642,1.0452512502670288,-4.540788650512695,-3.268004894256592,-0.890926718711853,2.119692325592041,3.917663097381592,0.31866002082824707,0.12240402400493622,-0.0970015674829483,0.26465684175491333
274,32870,32866,-0.029123492538928986,0.0007793813711032271,1.0497132539749146,-3.3324592113494873,-0.1477951556444168,-1.3082759380340576,2.11969256401062,3.9190545082092285,0.318992555141449,0.006249137222766876,-0.10539386421442032,0.2910490930080414
275,32880,32876,0.008071918040513992,-0.001754421042278409,1.0180705785751343,-1.0539546012878418,0.8707579374313354,-1.4241793155670166,2.1220004558563232,3.918527841567993,0.31916356086730957,0.10901305824518204,-0.16385647654533386,0.2672015130519867
276,32890,32886,0.0016137345228344202,-0.027041500434279442,0.9830853343009949,0.3910991847515106,0.21422642469406128,-1.0592801570892334,2.1219727993011475,3.9180185794830322,0.32191839814186096,0.03883488103747368,-0.10941514372825623,0.2555306851863861
277,32900,32896,-0.0003841824072878808,-0.005270938389003277,0.9281356334686279,2.086608409881592,0.9971786141395569,-0.7233579754829407,2.123540163040161,3.917285680770874,0.32228991389274597,0.04309636726975441,-0.1869787722826004,0.24121500551700592
278,32910,32906,0.04059827700257301,-0.023756079375743866,0.9082790613174438,2.199657440185547,1.261484980583191,-0.20927126705646515,2.1237380504608154,3.917198657989502,0.32266291975975037,0.1134059727191925,-0.08978693932294846,0.20599788427352905
279,32920,32916,0.06564509123563766,-0.055345408618450165,0.9457442760467529,3.372246265411377,-1.4085711240768433,0.06351311504840851,2.1238534450531006,3.916198253631592,0.3230207562446594,-0.03379613161087036,-0.0658191591501236,0.19777865707874298
280,32930,32926,-0.020151175558567047,-0.055924054235219955,1.0366320610046387,3.1704554557800293,-0.5457363724708557,0.5812691450119019,2.1258671283721924,3.9155142307281494,0.3197743892669678,0.09287495911121368,-0.029517441987991333,0.1963147521018982
281,32940,32936,0.0416252426803112,-0.14997324347496033,0.9956234097480774,1.5509780645370483,-0.707047164440155,0.864106297492981,2.1256895065307617,3.9148313999176025,0.3199109137058258,0.19170823693275452,-0.014285808429121971,0.2020789086818695
282,32950,32946,0.03601352125406265,-0.1979777216911316,1.0080451965332031,1.112926959991455,-2.7816431522369385,0.8457565307617188,2.125446319580078,3.914759397506714,0.32004812359809875,-0.010076144710183144,-0.014816432259976864,0.20662060379981995
283,32960,32956,6.731823668815196e-05,-0.05733029544353485,0.9836123585700989,-0.8156692385673523,-1.4415321350097656,0.5972940325737,2.127930164337158,3.914226531982422,0.31890109181404114,0.12953947484493256,-0.03267030045390129,0.19550789892673492
284,32970,32966,0.028341790661215782,-0.009119768626987934,1.0027793645858765,-3.4360368251800537,-0.07657205313444138,0.7608374357223511,2.127850294113159,3.914177894592285,0.31896576285362244,0.15620526671409607,-0.008668911643326283,0.2005067616701126
285,32980,32976,0.012273143976926804,-0.010359982959926128,0.9876114130020142,-2.3983657360076904,-0.7716895937919617,0.21386411786079407,2.1285793781280518,3.9138762950897217,0.3189416229724884,0.17518430948257446,-0.07784290611743927,0.20406493544578552
286,32990,32986,0.0062233805656433105,-0.03552618995308876,0.9716127514839172,-3.6406912803649902,1.0813711881637573,0.37345796823501587,2.1295270919799805,3.9136784076690674,0.3193000853061676,0.10438801348209381,-0.06859716027975082,0.21666447818279266
287,33000,32996,-0.0206606388092041,-0.011379733681678772,1.0113062858581543,-3.5774741172790527,1.9250028133392334,0.4240344762802124,2.1310994625091553,3.9123284816741943,0.3192371129989624,0.1740914285182953,-0.1525653749704361,0.17988578975200653
288,33010,33006,0.010514010675251484,-0.0011411142768338323,1.0245919227600098,-1.847949743270874,2.5534417629241943,1.0688929557800293,2.1307849884033203,3.9121649265289307,0.31929951906204224,0.14384229481220245,-0.1303042322397232,0.17208372056484222
289,33020,33016,0.030070500448346138,0.018905535340309143,1.0485280752182007,-0.2314121276140213,1.7108206748962402,0.7687231302261353,2.1319515705108643,3.9126195907592773,0.31929582357406616,0.1947055459022522,-0.16399124264717102,0.20618778467178345
290,33030,33026,0.011114428751170635,0.04417648911476135,1.043525218963623,1.7567998170852661,1.2300314903259277,0.2448495477437973,2.1317427158355713,3.912935256958008,0.3219107985496521,0.24986281991004944,-0.16546465456485748,0.232217475771904
291,33040,33036,0.007637618575245142,-0.02549905888736248,0.9796295762062073,2.86734676361084,0.847910463809967,0.6357759833335876,2.131526231765747,3.912306070327759,0.3221825361251831,0.22506721317768097,-0.14108307659626007,0.24640317261219025
292,33050,33046,-0.01398879662156105,0.0007816916331648827,0.9823309183120728,1.3904114961624146,3.5910396575927734,-0.016731051728129387,2.132169008255005,3.9127719402313232,0.32242685556411743,0.1078864261507988,-0.12365327030420303,0.25641918182373047
293,33060,33056,-0.031210675835609436,0.12305380403995514,0.9498820304870605,-0.09416753053665161,5.626057147979736,0.40578627586364746,2.1335179805755615,3.9126052856445312,0.3242591619491577,0.11072488129138947,-0.12592564523220062,0.26138535141944885
294,33070,33066,-0.010445334017276764,0.15028880536556244,0.9336980581283569,-0.7987703084945679,5.782015800476074,0.9513584971427917,2.1336889266967773,3.912715435028076,0.32453298568725586,0.09022340923547745,-0.1476045697927475,0.2649056017398834
295,33080,33076,-0.009668568149209023,0.13478419184684753,0.9733140468597412,-0.9865971803665161,2.6129567623138428,1.3987385034561157,2.133864402770996,3.913231372833252,0.32475796341896057,0.08644266426563263,-0.0959319993853569,0.2837442457675934
296,33090,33086,-0.001124434289522469,-0.010689014568924904,0.9688759446144104,-0.9496096968650818,1.910209059715271,1.5007768869400024,2.1339547634124756,3.912180185317993,0.3253753185272217,-0.048595551401376724,-0.052859123796224594,0.2948850691318512
297,33100,33096,-0.03766429051756859,-0.08909018337726593,1.0320141315460205,-0.9591056108474731,0.5198968648910522,2.247758150100708,2.1355631351470947,3.9112677574157715,0.3254804015159607,0.020549820736050606,-0.09819775074720383,0.33677563071250916
298,33110,33106,-0.031588114798069,-0.054392337799072266,1.0197160243988037,-1.5216631889343262,1.0072253942489624,2.0610556602478027,2.13533616065979,3.9121570587158203,0.3257445693016052,-0.08020775765180588,-0.13909940421581268,0.35353031754493713
299,33120,33116,-0.08950150012969971,-0.04338826984167099,1.039188265800476,-2.0172119140625,0.7067726254463196,2.9330782890319824,2.1370766162872314,3.9123289585113525,0.32591482996940613,-0.0066510410979390144,-0.18734261393547058,0.3671509325504303
300,33130,33126,-0.09871312230825424,-0.0020189504139125347,1.006043553352356,-3.2175867557525635,1.3673431873321533,2.9957332611083984,2.136655330657959,3.9124629497528076,0.3247825503349304,-0.021495260298252106,-0.08802583068609238,0.4319033920764923
301,33140,33136,-0.03231789171695709,-0.004120959434658289,0.9753553867340088,-1.968195915222168,0.8863346576690674,3.1174778938293457,2.137601137161255,3.911738872528076,0.32495567202568054,0.03610455244779587,-0.15546979010105133,0.4735051989555359
302,33150,33146,0.028313927352428436,0.06000414863228798,0.9638427495956421,-0.7256038784980774,1.7388513088226318,3.413771152496338,2.1371865272521973,3.9121267795562744,0.3252430856227875,0.009700942784547806,-0.0408608615398407,0.5047953724861145
303,33160,33156,0.035398028790950775,0.013216671533882618,0.9459747076034546,-2.299854040145874,1.7649909257888794,3.04546856880188,2.1375584602355957,3.91048002243042,0.3224743902683258,-0.10714307427406311,-0.09640947729349136,0.5501096248626709
304,33170,33166,0.003940531052649021,0.11838787794113159,0.9589892625808716,-2.671680212020874,1.6590360403060913,2.9253244400024414,2.139272451400757,3.91072678565979,0.3223905563354492,-0.05877016484737396,-0.16397856175899506,0.5720842480659485
305,33180,33176,-0.029378000646829605,-0.015295232646167278,0.9829931259155273,-4.330570697784424,1.1430407762527466,2.8427112102508545,2.138892889022827,3.9110910892486572,0.3224145770072937,-0.16517020761966705,-0.25289061665534973,0.6131249666213989
306,33190,33186,-0.01247958093881607,-0.048462484031915665,0.97746741771698,-4.760639667510986,2.0413529872894287,2.1162922382354736,2.140730142593384,3.911414861679077,0.3228057622909546,-0.11226290464401245,-0.3461371660232544,0.6260356307029724
307,33200,33196,-0.028331011533737183,0.02521475963294506,0.9989789128303528,-3.8447980880737305,0.18863767385482788,1.953790545463562,2.140698194503784,3.9115309715270996,0.3227505087852478,-0.057619646191596985,-0.35458093881607056,0.6521270275115967
308,33210,33206,-0.0045587364584207535,0.0014283116906881332,0.9828803539276123,-2.5549516677856445,0.3739508092403412,1.4311789274215698,2.1408514976501465,3.911466598510742,0.3227270543575287,0.002187028992921114,-0.3444736897945404,0.6890982389450073
309,33220,33216,-0.014843305572867393,0.05578451603651047,1.0008689165115356,0.012205586768686771,1.0754526853561401,1.125985026359558,2.140887975692749,3.9108850955963135,0.325124591588974,-0.01346469484269619,-0.3818192780017853,0.7069615125656128
310,33230,33226,-0.026970572769641876,0.046472977846860886,0.9777397513389587,0.6430686712265015,2.4760541915893555,1.9614206552505493,2.141749143600464,3.9106392860412598,0.3251369595527649,-0.055167701095342636,-0.3156508505344391,0.711639940738678
311,33240,33236,-0.009039713069796562,0.027104277163743973,0.9721236824989319,1.8367409706115723,4.093677997589111,2.0077688694000244,2.142673969268799,3.910696506500244,0.3251330554485321,-0.12006071209907532,-0.31452676653862,0.7678863406181335
312,33250,33246,0.004316534381359816,0.0983029454946518,0.9975724816322327,1.856677532196045,4.803877830505371,1.8486394882202148,2.1437251567840576,3.9105288982391357,0.3250996172428131,-0.20035210251808167,-0.30451321601867676,0.7888206839561462
313,33260,33256,-0.026667524129152298,0.026558848097920418,0.9913713932037354,1.4281009435653687,5.432377338409424,1.9510480165481567,2.1449522972106934,3.9101903438568115,0.32611405849456787,-0.20861965417861938,-0.2225632667541504,0.8000431656837463
314,33270,33266,0.0019012796692550182,0.030376534909009933,1.0221405029296875,0.3236331641674042,4.8450093269348145,1.5978256464004517,2.145310640335083,3.9100069999694824,0.32615000009536743,-0.22641387581825256,-0.23397231101989746,0.8459926843643188
315,33280,33276,0.017285272479057312,-0.0003215748583897948,0.9941206574440002,-1.2592750787734985,2.4384732246398926,1.0883214473724365,2.1454966068267822,3.909743309020996,0.32622310519218445,-0.21874655783176422,-0.26695722341537476,0.8907334804534912
316,33290,33286,0.0004884495865553617,0.00816352479159832,0.9552393555641174,-2.166428327560425,1.649719476699829,0.7102256417274475,2.1463162899017334,3.912186861038208,0.3241325914859772,-0.26469534635543823,-0.31389331817626953,0.9434869289398193
317,33300,33296,-0.022708911448717117,0.03338359668850899,0.9336872696876526,-3.3772244453430176,0.7566993832588196,0.4335716962814331,2.1471376419067383,3.9124531745910645,0.323977530002594,-0.3728759288787842,-0.3795434832572937,0.9566022753715515
318,33310,33306,0.011260108090937138,-0.006779402960091829,0.8842934966087341,-1.6523096561431885,-0.014164138585329056,0.9262092709541321,2.148827075958252,3.9125020503997803,0.3236936926841736,-0.3834696412086487,-0.35320335626602173,0.9694055914878845
319,33320,33316,-0.020434215664863586,-0.004366020672023296,0.9753284454345703,0.10094357281923294,-0.5344921350479126,0.7913774251937866,2.149780035018921,3.912135362625122,0.32179224491119385,-0.37365469336509705,-0.38339921832084656,0.9767014980316162
320,33330,33326,0.0005621782038360834,-0.04522791504859924,0.9959484338760376,2.466257095336914,-0.32716238498687744,0.6537494659423828,2.150400161743164,3.911872625350952,0.3213261067867279,-0.2889396846294403,-0.37373852729797363,0.979747474193573
321,33340,33336,-0.000409307744121179,-0.031200945377349854,0.9862390756607056,3.4874536991119385,0.4451483190059662,0.8033797740936279,2.1501355171203613,3.911745309829712,0.3214218020439148,-0.296469122171402,-0.25939011573791504,0.9910661578178406
322,33350,33346,0.006143463775515556,-0.03145940974354744,0.9903407096862793,4.072977066040039,1.5618971586227417,0.9663267135620117,2.150566816329956,3.910707712173462,0.3210202753543854,-0.3173167109489441,-0.2965569794178009,1.0003653764724731
323,33360,33356,0.03332372009754181,-0.08971671760082245,0.9420449733734131,2.735739231109619,3.227534055709839,0.9375799894332886,2.1517341136932373,3.91109037399292,0.3172408640384674,-0.2890852987766266,-0.2504965364933014,1.0204452276229858
324,33370,33366,-0.0034293723292648792,-0.010563458316028118,0.9989809393882751,1.7241147756576538,4.434076309204102,0.38068443536758423,2.152296304702759,3.911269187927246,0.3166211247444153,-0.43268412351608276,-0.22979353368282318,1.0352576971054077
325,33380,33376,0.014331494458019733,-0.021868031471967697,0.9527372717857361,0.6410895586013794,1.514887809753418,0.8092944622039795,2.153640031814575,3.911405086517334,0.315867155790329,-0.40372809767723083,-0.22721028327941895,1.0432357788085938
326,33390,33386,-0.013916700147092342,-0.03554726019501686,0.9860202074050903,-0.4670221507549286,5.2367072105407715,0.4655503034591675,2.154062032699585,3.9113986492156982,0.3148202896118164,-0.46757423877716064,-0.23893596231937408,1.0425485372543335
327,33400,33396,0.03931471332907677,-0.12305686622858047,1.0504646301269531,0.10537677258253098,2.9661476612091064,0.3324199616909027,2.1549198627471924,3.911591053009033,0.31402841210365295,-0.4549632966518402,-0.25437992811203003,1.0530743598937988
328,33410,33406,0.0054237088188529015,0.030783874914050102,1.0029857158660889,2.8052284717559814,1.368457317352295,0.7021150588989258,2.1552979946136475,3.911245346069336,0.31334707140922546,-0.4931115508079529,-0.2306826412677765,1.0530520677566528
329,33420,33416,-0.034772083163261414,0.08801935613155365,1.013427734375,1.5649162530899048,3.262892246246338,0.42063435912132263,2.156370162963867,3.9110236167907715,0.3071710765361786,-0.44904425740242004,-0.2119106948375702,1.057641625404358
330,33430,33426,-0.00040009370422922075,0.06068515405058861,0.8946272730827332,0.7601428627967834,2.646731376647949,0.27886781096458435,2.1563949584960938,3.9108457565307617,0.3061826229095459,-0.5078965425491333,-0.12228749692440033,1.066109538078308
331,33440,33436,-0.021900951862335205,0.060797739773988724,1.0238561630249023,2.5517189502716064,7.79249382019043,-0.5445824265480042,2.157649517059326,3.9100098609924316,0.30509790778160095,-0.5075685381889343,-0.10951846837997437,1.0689527988433838
332,33450,33446,0.04916271194815636,0.00809646025300026,0.9944775700569153,0.16088958084583282,1.752458095550537,0.2813652753829956,2.158618688583374,3.9104771614074707,0.3072354793548584,-0.5787773728370667,-0.11276423931121826,1.0876456499099731
333,33460,33456,0.006448001600801945,0.0003797646495513618,1.0496679544448853,-0.4799761474132538,0.7645111680030823,0.4784247577190399,2.1595187187194824,3.910170078277588,0.30631643533706665,-0.5981725454330444,-0.1303122639656067,1.0802282094955444
334,33470,33466,-0.01888192631304264,-0.03771975263953209,1.055164098739624,-1.7336481809616089,0.4748208522796631,0.6070269346237183,2.1606879234313965,3.910398483276367,0.30541250109672546,-0.6064144968986511,-0.16466160118579865,1.0959665775299072
335,33480,33476,0.009520898573100567,-0.01571161299943924,1.0605943202972412,-2.72491455078125,-0.16539175808429718,0.9052339196205139,2.1614811420440674,3.910386323928833,0.30453401803970337,-0.6878730654716492,-0.21481719613075256,1.1101590394973755
336,33490,33486,0.006479504518210888,-0.020685534924268723,1.043337106704712,-1.784476399421692,-0.7016912698745728,0.6376336216926575,2.1631970405578613,3.9102933406829834,0.3093675971031189,-0.5950668454170227,-0.18479730188846588,1.091254711151123
337,33500,33496,-0.026430897414684296,-0.05709303170442581,1.073825478553772,0.18380926549434662,-1.7289985418319702,0.5431953072547913,2.1629457473754883,3.9096884727478027,0.3090486526489258,-0.7867034673690796,-0.20810794830322266,1.098548173904419
338,33510,33506,-0.0030003413558006287,-0.09354753792285919,1.0226277112960815,1.8488774299621582,-2.3127317428588867,0.4833156168460846,2.165560722351074,3.9092326164245605,0.3085254430770874,-0.6522839069366455,-0.19705383479595184,1.0935033559799194
339,33520,33516,-0.027503715828061104,-0.007329672109335661,0.9820203185081482,2.49088978767395,-2.3962912559509277,0.4895493984222412,2.1654958724975586,3.9091081619262695,0.30554550886154175,-0.6702056527137756,-0.16799890995025635,1.097641944885254
340,33530,33526,-0.0033128210343420506,0.017377132549881935,1.0422351360321045,3.287061929702759,-3.6578762531280518,0.007011803332716227,2.1668269634246826,3.908766746520996,0.30505403876304626,-0.6689116358757019,-0.12996552884578705,1.1099584102630615
341,33540,33536,-0.04783665016293526,0.0261873509734869,1.0082834959030151,2.041468381881714,-2.8343794345855713,-0.00034313107607886195,2.1680729389190674,3.9085490703582764,0.30458202958106995,-0.5913220643997192,-0.09521511942148209,1.0861623287200928
342,33550,33546,0.023674165830016136,-0.012316666543483734,1.0866427421569824,1.5769855976104736,-1.7972652912139893,0.3827415704727173,2.1683156490325928,3.9088523387908936,0.3041475713253021,-0.6667367815971375,-0.08345843851566315,1.128342866897583
343,33560,33556,0.019420526921749115,0.003193395910784602,1.1830354928970337,0.6824353933334351,-5.960818767547607,0.7668783068656921,2.169691324234009,3.908968687057495,0.3035989999771118,-0.4804116189479828,-0.08199591934680939,1.1222867965698242
344,33570,33566,0.0029845666140317917,-0.017080768942832947,1.1758531332015991,-1.4654289484024048,-2.7356410026550293,-0.07293038815259933,2.1691317558288574,3.908531427383423,0.30346643924713135,-0.3842869997024536,-0.10270000249147415,1.124682903289795
345,33580,33576,-0.010634094476699829,0.09848622232675552,1.124181866645813,0.35855633020401,-4.538775444030762,-0.466858834028244,2.16990327835083,3.9084312915802,0.30338045954704285,-0.43961530923843384,-0.11638978123664856,1.1192867755889893
346,33590,33586,-0.04030797630548477,0.15405243635177612,1.0142414569854736,-1.3050525188446045,-0.9487224221229553,0.22253261506557465,2.171987533569336,3.908283233642578,0.30427253246307373,-0.3759266138076782,-0.05982869118452072,1.1116787195205688
347,33600,33596,0.014125948771834373,-0.029300836846232414,0.9761379957199097,-1.5581239461898804,0.23986051976680756,0.16465967893600464,2.1734580993652344,3.9076950550079346,0.30464985966682434,-0.3471658229827881,-0.09626232832670212,1.1219449043273926
348,33610,33606,-0.008773821406066418,-0.11491372436285019,1.1212489604949951,-0.23539111018180847,-0.07527380436658859,-0.1683395355939865,2.1736512184143066,3.9084432125091553,0.3047039210796356,-0.34408819675445557,-0.10975129902362823,1.171090841293335
349,33620,33616,0.030471883714199066,-0.09965673089027405,0.9970609545707703,0.00884135439991951,0.37923818826675415,-0.6872508525848389,2.1750500202178955,3.9089736938476562,0.3049166202545166,-0.4100481867790222,-0.12222664058208466,1.18915855884552
350,33630,33626,-0.003779932390898466,0.00997123122215271,1.0489184856414795,-0.35998356342315674,0.2081475406885147,-0.9601600766181946,2.1749515533447266,3.909381628036499,0.3052745461463928,-0.449453741312027,-0.14370623230934143,1.1794040203094482
351,33640,33636,0.012573650106787682,-0.027649739757180214,1.0131971836090088,0.6926300525665283,-0.2705332934856415,-0.7766168713569641,2.1780922412872314,3.909851551055908,0.3057976961135864,-0.33654531836509705,-0.07035225629806519,1.2193950414657593
352,33650,33646,0.005206387490034103,-0.009953103959560394,1.0175666809082031,-0.7518552541732788,0.545157253742218,-1.7237952947616577,2.177123546600342,3.9100453853607178,0.30530795454978943,-0.3139968514442444,-0.08956710994243622,1.220438838005066
353,33660,33656,0.005372535437345505,-0.04870337247848511,0.9633141160011292,0.7322131395339966,-2.6653225421905518,-1.863924503326416,2.1778616905212402,3.91080379486084,0.30565398931503296,-0.308890163898468,-0.09529896825551987,1.2297017574310303
354,33670,33666,-0.0211928840726614,-0.007641970179975033,1.0198973417282104,0.9087541103363037,-3.3731632232666016,-2.5645334720611572,2.1802923679351807,3.9110610485076904,0.305819571018219,-0.31532037258148193,-0.022787809371948242,1.2312060594558716
355,33680,33676,0.03610546514391899,-0.08973759412765503,0.9290367960929871,0.368650883436203,-2.9122517108917236,-2.80556583404541,2.1813104152679443,3.9116220474243164,0.3066251873970032,-0.23557640612125397,-0.03088950924575329,1.2782139778137207
356,33690,33686,0.07315915077924728,-0.14147897064685822,0.9652849435806274,0.34897395968437195,-6.333523273468018,-3.036808490753174,2.181130886077881,3.911804676055908,0.30540964007377625,-0.3615872859954834,-0.040050048381090164,1.2485607862472534
357,33700,33696,0.07213366031646729,-0.17548903822898865,1.0396097898483276,-0.5245280861854553,-6.142925262451172,-3.050262689590454,2.1832005977630615,3.912130117416382,0.3055039942264557,-0.28830817341804504,-0.061090100556612015,1.2335970401763916
358,33710,33706,-6.373251380864531e-05,-0.005898987874388695,0.9769457578659058,-1.056570053100586,-5.713077545166016,-3.461587429046631,2.184495449066162,3.912214756011963,0.3057044744491577,-0.3013853430747986,-0.08623267710208893,1.2087584733963013
359,33720,33716,-0.027742737904191017,0.1917441040277481,0.9138585329055786,-2.7224650382995605,-5.383859157562256,-3.438944101333618,2.1861376762390137,3.912578582763672,0.30656003952026367,-0.1728057712316513,-0.13037700951099396,1.1587835550308228
360,33730,33726,-0.0014292930718511343,0.08237903565168381,0.8996334075927734,-2.650076150894165,-4.089517116546631,-3.1992175579071045,2.1875617504119873,3.912101984024048,0.30699998140335083,-0.1350632756948471,-0.028276901692152023,1.112860083580017
361,33740,33736,0.06522220373153687,0.007346192374825478,0.8692590594291687,-3.5510644912719727,-2.539907693862915,-2.899526357650757,2.1877477169036865,3.9108452796936035,0.30700480937957764,-0.11999362707138062,-0.10064473748207092,1.0712218284606934
362,33750,33746,0.14378391206264496,0.00728678097948432,0.894197940826416,-2.4943292140960693,-3.4732367992401123,-2.6470885276794434,2.190080165863037,3.9106109142303467,0.3104398250579834,-0.1223101019859314,-0.13204996287822723,1.0250024795532227
363,33760,33756,0.05001359060406685,-0.029712392017245293,0.9472331404685974,-1.6701860427856445,-3.0892858505249023,-2.2205657958984375,2.1915969848632812,3.910720109939575,0.310488224029541,-0.10293835401535034,-0.13632631301879883,0.9938084483146667
364,33770,33766,-0.07099569588899612,0.0368160605430603,0.9974970817565918,-0.9193171262741089,-3.140239715576172,-2.196168899536133,2.1926825046539307,3.910252332687378,0.31048086285591125,-0.06614876538515091,-0.1724029928445816,0.9823362231254578
365,33780,33776,-0.031655438244342804,-0.09025168418884277,0.9907158613204956,-0.6867321729660034,-4.01445198059082,-2.0400829315185547,2.194309711456299,3.910060405731201,0.3113773763179779,-0.034547265619039536,-0.20060274004936218,0.9635037779808044
366,33790,33786,-0.016402743756771088,-0.09980510175228119,0.9457477927207947,-0.5076673626899719,-5.285289287567139,-1.769370675086975,2.194148063659668,3.9109504222869873,0.3113805055618286,0.013963748700916767,-0.20522604882717133,0.9632341861724854
367,33800,33796,0.007306660991162062,-0.05556526780128479,0.9589619040489197,-1.1597410440444946,-5.519705295562744,-2.0751795768737793,2.1947267055511475,3.9107167720794678,0.3114871680736542,0.1510574370622635,-0.16731815040111542,0.9340473413467407
368,33810,33806,-0.01308288611471653,0.04326041415333748,1.0383732318878174,-1.1310149431228638,-4.433261394500732,-1.727541446685791,2.1949448585510254,3.9103758335113525,0.31139206886291504,0.20116791129112244,-0.2010720670223236,0.9259849190711975
369,33820,33816,0.031634844839572906,-0.009860772639513016,1.0362249612808228,-0.5610939860343933,-3.526533842086792,-1.9233638048171997,2.196075201034546,3.910621404647827,0.3112403452396393,0.2243572175502777,-0.2251492291688919,0.9076505303382874
370,33830,33826,0.029722794890403748,-0.03957999125123024,1.0550332069396973,-1.6138172149658203,-1.733398199081421,-2.0621299743652344,2.197514057159424,3.9104182720184326,0.3112329840660095,0.25174543261528015,-0.23709042370319366,0.881157398223877
371,33840,33836,0.024314049631357193,-0.03441997244954109,0.9739953875541687,-2.56681752204895,-1.9425129890441895,-1.6776986122131348,2.198986530303955,3.9103646278381348,0.3112547993659973,0.07499396800994873,-0.3020364046096802,0.8660354018211365
372,33850,33846,0.013911688700318336,-0.10891484469175339,1.05311119556427,-2.4367873668670654,1.1106760501861572,-2.2366275787353516,2.201448917388916,3.910398006439209,0.3093956708908081,0.23657113313674927,-0.349706768989563,0.8418031334877014
373,33860,33856,0.005630139727145433,-0.0005092786741442978,0.9675098061561584,-1.2040250301361084,1.6918959617614746,-2.02673077583313,2.2018980979919434,3.9104671478271484,0.30950143933296204,0.09494441747665405,-0.22202906012535095,0.8005931973457336
374,33870,33866,0.06373299658298492,0.056677546352148056,0.8124202489852905,0.13730600476264954,0.3615722954273224,-2.3130979537963867,2.2039613723754883,3.908931016921997,0.30937063694000244,0.060828592628240585,-0.2228924185037613,0.7828049063682556
375,33880,33876,0.05344017222523689,0.06310777366161346,0.8995736837387085,0.7294211387634277,-5.968151569366455,-1.5704783201217651,2.2047059535980225,3.9094533920288086,0.3092401325702667,0.305891752243042,-0.3135089874267578,0.7157114744186401
376,33890,33886,-0.029382480308413506,-0.0045271445997059345,1.0395112037658691,0.46130186319351196,-7.456016540527344,-0.3559229075908661,2.204296827316284,3.908735990524292,0.3091288208961487,0.24869304895401,-0.30882948637008667,0.7024377584457397
377,33900,33896,-0.05273811146616936,0.01127773430198431,1.0276764631271362,-1.6304234266281128,-7.640000820159912,0.33836430311203003,2.20658278465271,3.908748149871826,0.3087316155433655,0.32671234011650085,-0.3157748281955719,0.715177059173584
378,33910,33906,-0.09821866452693939,0.03241908550262451,1.0563973188400269,-2.702971935272217,-3.6731667518615723,-0.30989211797714233,2.2068727016448975,3.908954381942749,0.3085431754589081,0.4911850690841675,-0.3531014025211334,0.7166606187820435
379,33920,33916,-0.08667901158332825,0.11489193141460419,1.0399225950241089,-3.4568746089935303,1.3029526472091675,0.1789657026529312,2.2072408199310303,3.908299207687378,0.31388968229293823,0.514121949672699,-0.3535122573375702,0.7060295343399048
380,33930,33926,-0.013479486107826233,0.09967049211263657,0.9665566682815552,-1.9248093366622925,4.638099670410156,-0.06545692682266235,2.2088303565979004,3.9092495441436768,0.31399449706077576,0.3323816955089569,-0.3182675838470459,0.7412471175193787
381,33940,33936,-0.0206759013235569,0.004824628587812185,1.0532612800598145,-0.27522167563438416,5.376059532165527,-0.6839443445205688,2.2111828327178955,3.9083080291748047,0.3140435516834259,0.292141318321228,-0.33676761388778687,0.7103123068809509
382,33950,33946,0.028101682662963867,0.017509423196315765,0.9934304356575012,2.6539664268493652,2.7794241905212402,-0.4737478196620941,2.212385416030884,3.9080910682678223,0.30936846137046814,0.23944321274757385,-0.3307105302810669,0.7121554017066956
383,33960,33956,0.01699836552143097,-0.02398415468633175,0.990363359451294,3.241274118423462,1.0652203559875488,0.311960369348526,2.213200569152832,3.9080114364624023,0.3092675507068634,0.29087892174720764,-0.2847473919391632,0.7276604771614075
384,33970,33966,-0.01519689615815878,-0.04631906747817993,0.9731314778327942,2.403945207595825,-1.1167744398117065,-0.08038251101970673,2.2137749195098877,3.9085612297058105,0.30921870470046997,0.4278891980648041,-0.16670773923397064,0.7320347428321838
385,33980,33976,0.032968975603580475,-0.030357224866747856,0.9572949409484863,-0.12842176854610443,-1.3517690896987915,0.18074792623519897,2.2139337062835693,3.9076311588287354,0.30882829427719116,0.3907928764820099,-0.25619688630104065,0.7253326177597046
386,33990,33986,-0.0043981741182506084,-0.05691441893577576,1.0133033990859985,-2.6733224391937256,-1.6148144006729126,0.18060658872127533,2.2152249813079834,3.9084725379943848,0.3086533546447754,0.43800580501556396,-0.2971131205558777,0.7440811395645142
387,34000,33996,0.0037655786145478487,-0.035638485103845596,0.9920986294746399,-3.8324429988861084,-1.5631674528121948,0.3000990152359009,2.2156224250793457,3.9081547260284424,0.3085101544857025,0.5690574645996094,-0.3613923192024231,0.7214235067367554
388,34010,34006,0.014120358042418957,-0.00676988298073411,1.0099735260009766,-3.2007322311401367,-0.9876495003700256,0.3300253450870514,2.215667247772217,3.909088134765625,0.30840039253234863,0.3687463402748108,-0.4139532148838043,0.7664874792098999
389,34020,34016,0.010560874827206135,0.03551506623625755,0.9898003935813904,-1.7438653707504272,1.2151519060134888,0.5662450790405273,2.218226194381714,3.909374713897705,0.3107430934906006,0.46558207273483276,-0.3730228543281555,0.7628517746925354
390,34030,34026,0.011003946885466576,-0.03224598988890648,0.9643772840499878,1.2542544603347778,3.463578939437866,0.006919296458363533,2.21842622756958,3.908596992492676,0.3108097016811371,0.5217613577842712,-0.37034326791763306,0.7381138801574707
391,34040,34036,0.03848957270383835,-0.09641686081886292,0.9573643207550049,1.2871465682983398,5.997478008270264,0.8078235387802124,2.21855092048645,3.908205270767212,0.3108275830745697,0.36579614877700806,-0.3512859046459198,0.7376222610473633
392,34050,34046,0.07107982784509659,-0.07392637431621552,1.0179060697555542,2.854712724685669,5.2603983879089355,1.3049968481063843,2.22023606300354,3.9078369140625,0.3090757429599762,0.28984445333480835,-0.3126959800720215,0.757929265499115
393,34060,34056,0.03286212682723999,-0.018134482204914093,1.0077441930770874,2.666624069213867,4.529821872711182,0.8484718799591064,2.221330165863037,3.908812999725342,0.3088701367378235,0.31067726016044617,-0.26882752776145935,0.806303858757019
394,34070,34066,-0.005110695958137512,-0.02540324442088604,1.0143643617630005,1.5751588344573975,3.9429614543914795,-0.3239862620830536,2.2214455604553223,3.9088134765625,0.30876147747039795,0.25644031167030334,-0.2385949045419693,0.8161219358444214
395,34080,34076,-0.0016250422922894359,-0.02152055688202381,0.9962164163589478,-0.89785236120224,5.67443323135376,-0.0646967887878418,2.2226815223693848,3.9083895683288574,0.31039583683013916,0.20233799517154694,-0.23582008481025696,0.7931870222091675
396,34090,34086,0.027015445753932,-0.1126992255449295,0.9274356961250305,-1.9204899072647095,3.0659122467041016,0.4526279866695404,2.222656726837158,3.909071922302246,0.31041526794433594,0.3063957989215851,-0.34863340854644775,0.7993015050888062
397,34100,34096,-0.000146272053825669,-0.01572398841381073,1.0193449258804321,-2.4862167835235596,6.034797191619873,-0.10363740473985672,2.2230021953582764,3.909162998199463,0.3103715479373932,0.2785515785217285,-0.37227046489715576,0.8018323183059692
398,34110,34106,0.11302914470434189,-0.12245356291532516,0.8352758884429932,0.1807548701763153,1.4608207941055298,-0.49706366658210754,2.226271152496338,3.91015362739563,0.3100481629371643,-0.075222447514534,-0.39710095524787903,0.8454551100730896
399,34120,34116,0.12211723625659943,-0.2122647613286972,0.8995699882507324,2.316607713699341,-3.2541964054107666,-0.038008641451597214,2.2260355949401855,3.90989351272583,0.3123430609703064,0.02531050145626068,-0.3781348764896393,0.8275237083435059
400,34130,34126,0.05778518319129944,-0.19582857191562653,1.0512335300445557,5.703014850616455,-6.921978950500488,0.28996768593788147,2.2265663146972656,3.9118762016296387,0.3121788203716278,0.18695561587810516,-0.41295909881591797,0.8519643545150757
401,34140,34136,-0.010424236766994,0.06303084641695023,0.9789438247680664,6.198454856872559,-4.412830352783203,0.476737916469574,2.226557731628418,3.9113223552703857,0.3120693564414978,0.362577348947525,-0.2848765254020691,0.8509360551834106
402,34150,34146,-0.03761458396911621,0.09444625675678253,0.9990203380584717,7.317660331726074,1.2475582361221313,-0.1369733214378357,2.2262325286865234,3.9107108116149902,0.3106057047843933,0.39115625619888306,-0.2192411720752716,0.8444653749465942
403,34160,34156,0.02381475642323494,0.13649797439575195,0.8172922134399414,5.899551868438721,5.206343650817871,-0.0011941288830712438,2.2280802726745605,3.911353826522827,0.3102954924106598,0.21020850539207458,-0.1743248701095581,0.8333917856216431
404,34170,34166,-0.03364851698279381,0.053078558295965195,1.0432087182998657,3.9362080097198486,8.386457443237305,0.3975241184234619,2.2290234565734863,3.910759449005127,0.309929758310318,0.10852962732315063,-0.08770345896482468,0.8201506733894348
405,34180,34176,0.0021482896991074085,0.012040425091981888,0.9734273552894592,2.536301851272583,9.792258262634277,0.4923161566257477,2.2304248809814453,3.9105803966522217,0.3133200407028198,0.019294288009405136,-0.05126515030860901,0.8016254901885986
406,34190,34186,-0.0027903704904019833,-0.10174045711755753,1.0222625732421875,2.052656650543213,8.492629051208496,0.4641455113887787,2.230811834335327,3.9112637042999268,0.31315237283706665,-0.06060599908232689,-0.1597970724105835,0.8469723463058472
407,34200,34196,-0.015066245570778847,-0.11513226479291916,1.03717041015625,-1.0513745546340942,6.124082088470459,0.464851438999176,2.231795072555542,3.9116599559783936,0.3129156827926636,-0.10912050306797028,-0.10454124212265015,0.8393253087997437
408,34210,34206,-0.0019417336443439126,-0.012233206070959568,1.029322624206543,0.4471331834793091,2.8172428607940674,0.8458682298660278,2.2321534156799316,3.911900520324707,0.31122440099716187,-0.16369985044002533,-0.08644569665193558,0.8314265608787537
409,34220,34216,0.01682628132402897,-0.018836289644241333,0.9904465079307556,2.124950408935547,0.04392069950699806,1.2529581785202026,2.232868194580078,3.9112625122070312,0.3109945058822632,-0.08274853229522705,-0.041226498782634735,0.8166966438293457
410,34230,34226,-0.0035049961879849434,-0.030241958796977997,1.0088366270065308,3.665959596633911,-2.72121524810791,1.2693904638290405,2.2330119609832764,3.911125898361206,0.31085363030433655,-0.06287669390439987,-0.012730450369417667,0.8113265633583069
411,34240,34236,-0.01514878123998642,-0.013571505434811115,1.02262544631958,3.3623905181884766,-2.525533437728882,1.047400712966919,2.235374689102173,3.9107015132904053,0.31046760082244873,-0.13200098276138306,0.09259441494941711,0.8167553544044495
412,34250,34246,-0.013628555461764336,0.03173108771443367,1.0405312776565552,3.5011885166168213,-2.7677431106567383,0.8703793883323669,2.235304832458496,3.910492181777954,0.3102012276649475,0.007727388292551041,0.15926040709018707,0.8100540637969971
413,34260,34256,0.004655180498957634,-0.009167604148387909,1.036415696144104,0.827954888343811,-1.884871482849121,1.527084231376648,2.2348086833953857,3.9099018573760986,0.310108482837677,0.007727388292551041,0.15926040709018707,0.8100540637969971
414,34270,34266,-0.021311556920409203,0.06818767637014389,1.0848358869552612,-0.6550953388214111,5.143128871917725,0.7155839800834656,2.2375028133392334,3.909860372543335,0.3098234236240387,-0.18898361921310425,0.10510279983282089,0.7954301238059998
415,34280,34276,0.0037947127129882574,0.08887812495231628,1.064893126487732,-1.2006338834762573,4.705041408538818,0.7286996245384216,2.237863540649414,3.9117960929870605,0.3119940757751465,-0.1407448649406433,0.029321620240807533,0.8598371148109436
416,34290,34286,-0.01978520303964615,0.04058589041233063,1.0383031368255615,-2.3560667037963867,2.675766944885254,1.0255553722381592,2.2375383377075195,3.9120054244995117,0.31218421459198,-0.12138791382312775,0.006675443146377802,0.8851538300514221
417,34300,34296,0.014790603891015053,-0.041428327560424805,0.9746462106704712,0.6059001684188843,1.127231478691101,0.6126152276992798,2.238607406616211,3.9121510982513428,0.31232938170433044,-0.11855462938547134,0.025221366435289383,0.8714163899421692
418,34310,34306,0.028193853795528412,-0.08876022696495056,0.9857592582702637,1.0864747762680054,1.1410897970199585,0.49132010340690613,2.2393887042999268,3.9122226238250732,0.31233489513397217,-0.1460626721382141,0.015526576898992062,0.9000306129455566
419,34320,34316,-0.009060200303792953,0.10204659402370453,0.9695942401885986,2.8496510982513428,1.1910818815231323,0.5652365684509277,2.239349842071533,3.9117753505706787,0.3125157356262207,-0.22918303310871124,0.07666566967964172,0.8887098431587219
420,34330,34326,0.0034148304257541895,0.07571149617433548,0.989607572555542,3.319795846939087,2.5399813652038574,0.24986650049686432,2.2414302825927734,3.912438154220581,0.31253400444984436,-0.2587848901748657,0.1317373663187027,0.9330525398254395
421,34340,34336,0.014783564954996109,0.06705141067504883,1.02059006690979,2.8590474128723145,0.13797754049301147,-0.0635460615158081,2.2419512271881104,3.9121837615966797,0.31265297532081604,-0.28004518151283264,0.1656242460012436,0.9354835748672485
422,34350,34346,-0.04994930326938629,0.02473386377096176,1.0329928398132324,1.8724714517593384,-1.8346586227416992,-0.05929598584771156,2.2408382892608643,3.912005662918091,0.31159770488739014,-0.0990317165851593,0.21841596066951752,0.9416128993034363
423,34360,34356,-0.14907601475715637,0.19106873869895935,0.9628939628601074,-0.1760069578886032,-0.9968860149383545,0.8748455047607422,2.2421727180480957,3.9132509231567383,0.3116128146648407,-0.10448131710290909,0.11403568834066391,0.9643876552581787
424,34370,34366,-0.10279660671949387,0.24765165150165558,0.9376798868179321,-1.7883152961730957,5.734039783477783,1.2374738454818726,2.2419235706329346,3.9136736392974854,0.3117211163043976,-0.0009694130276329815,0.13195444643497467,0.9856134057044983
425,34380,34376,-0.016676055267453194,0.16588158905506134,0.9670062065124512,-2.3965890407562256,6.303807258605957,1.068556785583496,2.243319511413574,3.91471529006958,0.31178349256515503,-0.09915333241224289,0.11820065975189209,1.0348283052444458
426,34390,34386,0.04399166256189346,-0.05197174847126007,0.9444732666015625,-2.3972365856170654,8.094587326049805,0.6997637748718262,2.2436087131500244,3.9151077270507812,0.311723530292511,-0.13034184277057648,0.0921659767627716,1.0587263107299805
427,34400,34396,-0.06198549643158913,-0.05245496705174446,1.053746223449707,-1.431533694267273,5.367630481719971,0.5637702941894531,2.244924306869507,3.9150004386901855,0.31157994270324707,-0.2562493681907654,0.06441428512334824,1.0185352563858032
428,34410,34406,0.013088198378682137,-0.08039890974760056,1.0111238956451416,0.44896557927131653,7.406545162200928,0.7284305691719055,2.2465076446533203,3.91481351852417,0.31622248888015747,-0.37964287400245667,0.06872574985027313,1.0758894681930542
429,34420,34416,0.036907684057950974,-0.02928348071873188,1.003151297569275,2.2350549697875977,3.702392101287842,0.3823223412036896,2.2467424869537354,3.9149138927459717,0.3164554834365845,-0.40776363015174866,0.09433861076831818,1.0503911972045898
430,34430,34426,0.001970000332221389,0.015656929463148117,0.9927068948745728,2.246537685394287,0.8271445035934448,0.23987947404384613,2.2467710971832275,3.9147891998291016,0.3167242407798767,-0.45697224140167236,0.11139287054538727,1.0546321868896484
431,34440,34436,0.026352593675255775,-0.02739076130092144,0.969555139541626,2.5971593856811523,-3.0324044227600098,0.049126606434583664,2.247934103012085,3.914574146270752,0.316581666469574,-0.5367201566696167,0.15829764306545258,1.042980670928955
432,34450,34446,-0.003986271098256111,0.011924467980861664,1.0084359645843506,1.2161569595336914,-5.88824987411499,-0.18199047446250916,2.2475130558013916,3.9155690670013428,0.31683260202407837,-0.352722704410553,0.07643701881170273,1.0946390628814697
433,34460,34456,0.011276147328317165,-0.0007603720878250897,0.9856244325637817,0.6777580380439758,-5.954697132110596,-0.3842509388923645,2.247667074203491,3.916459083557129,0.31701207160949707,-0.4149148464202881,0.11478003114461899,1.1604714393615723
434,34470,34466,0.013362611643970013,-0.023309793323278427,0.9842929244041443,0.8512734770774841,-2.9334654808044434,-0.6814465522766113,2.2495779991149902,3.917365312576294,0.3170981705188751,-0.3561640679836273,0.1209627240896225,1.1551146507263184
435,34480,34476,0.012227158062160015,0.040316447615623474,0.94896000623703,-0.013911882415413857,-0.8044227361679077,-1.0233248472213745,2.2503013610839844,3.9174468517303467,0.3171921670436859,-0.2853454649448395,0.14683230221271515,1.1399314403533936
436,34490,34486,-0.012480834499001503,-0.009435963816940784,0.9706454277038574,0.4336042106151581,6.668674468994141,-1.7142746448516846,2.2507314682006836,3.9170889854431152,0.3172767460346222,-0.25161808729171753,0.15958382189273834,1.111322045326233
437,34500,34496,0.04284239932894707,0.029957804828882217,0.9295066595077515,0.8326888084411621,3.3837006092071533,-1.0869873762130737,2.2525086402893066,3.9181454181671143,0.31720200181007385,-0.384114533662796,0.09936720877885818,1.0904375314712524
438,34510,34506,0.07171151041984558,-0.030371764674782753,0.9224004745483398,0.5827550292015076,3.833343505859375,-0.8352009654045105,2.2537765502929688,3.917792797088623,0.3191189467906952,-0.4923047423362732,0.13187584280967712,1.077360987663269
439,34520,34516,-0.00021324529370758682,-0.017153726890683174,0.9992237687110901,0.4258553385734558,1.0451936721801758,-0.2371678203344345,2.2531862258911133,3.9175641536712646,0.3193213641643524,-0.3605527877807617,0.15711957216262817,1.0780432224273682
440,34530,34526,-0.08068396896123886,0.11140915006399155,1.026634931564331,1.4556293487548828,0.08318507671356201,0.17361144721508026,2.2538371086120605,3.9176275730133057,0.3193414509296417,-0.3511861562728882,0.17905615270137787,1.06618332862854
441,34540,34536,-0.008398297242820263,0.05285566672682762,0.923416018486023,0.9183957576751709,0.9480934143066406,0.007789247203618288,2.2547829151153564,3.918532371520996,0.31887951493263245,-0.4154943525791168,0.13359424471855164,1.0656683444976807
442,34550,34546,0.012372898869216442,0.10206697881221771,0.9147867560386658,0.9233412146568298,0.4023035764694214,-0.15921318531036377,2.2547855377197266,3.9183123111724854,0.31892648339271545,-0.3292268216609955,0.16562141478061676,1.072766900062561
443,34560,34556,0.0034796460531651974,0.0706072673201561,0.964300811290741,0.5500202178955078,-0.4522882401943207,-0.22670866549015045,2.255519390106201,3.9186017513275146,0.318852037191391,-0.40066754817962646,0.19607046246528625,1.1109893321990967
444,34570,34566,0.06849279999732971,-0.06015728414058685,0.9678908586502075,-0.5592698454856873,0.16980203986167908,-0.5291891694068909,2.256237030029297,3.9182207584381104,0.31872257590293884,-0.37436050176620483,0.2949664890766144,1.1318581104278564
445,34580,34576,0.05236472189426422,-0.07329760491847992,0.9878900051116943,-1.251638412475586,-0.30348750948905945,-0.75503009557724,2.2578413486480713,3.9198145866394043,0.3200729191303253,-0.44945305585861206,0.20999905467033386,1.189658522605896
446,34590,34586,0.030858969315886497,-0.10621753334999084,0.9974097609519958,-1.8896607160568237,-2.5377094745635986,-1.6484462022781372,2.2581825256347656,3.919707775115967,0.31997767090797424,-0.4152090847492218,0.1996501386165619,1.1235430240631104
447,34600,34596,0.004707034211605787,0.019556617364287376,0.9999948143959045,-0.8061279058456421,-3.1094534397125244,-1.4744220972061157,2.258861541748047,3.9197146892547607,0.3198951184749603,-0.3579813241958618,0.25591179728507996,1.1296361684799194
448,34610,34606,-0.023083521053195,0.04387296736240387,0.9901841282844543,-0.30597174167633057,-2.7887203693389893,-1.3816173076629639,2.25970196723938,3.9200339317321777,0.3197939097881317,-0.36466163396835327,0.16404367983341217,1.1172308921813965
449,34620,34616,-0.03972631320357323,0.04381878301501274,0.9881584644317627,-1.4322643280029297,-1.211483120918274,-0.976345956325531,2.260343551635742,3.9205081462860107,0.3197445571422577,-0.2897302210330963,0.16876903176307678,1.1207865476608276
450,34630,34626,0.00047664836165495217,-0.09250248968601227,1.0373691320419312,-1.5226997137069702,-0.2218693196773529,-1.2495282888412476,2.26127290725708,3.9210379123687744,0.3196852207183838,-0.23972727358341217,0.1541052609682083,1.176059603691101
451,34640,34636,0.02421765960752964,-0.05995846167206764,0.9968054890632629,-0.3259883224964142,1.6354340314865112,-1.8945186138153076,2.2625527381896973,3.9210193157196045,0.31790879368782043,-0.3013249933719635,0.1398373246192932,1.1312894821166992
452,34650,34646,0.0017930212197825313,0.0048110466450452805,0.9439955949783325,-0.3909001052379608,0.9474823474884033,-1.268297791481018,2.2635977268218994,3.9222495555877686,0.31771349906921387,-0.31522855162620544,0.14035853743553162,1.1529351472854614
453,34660,34656,0.013577379286289215,-0.010704781860113144,0.8785943984985352,-0.7122800946235657,1.5188411474227905,-1.4730608463287354,2.264500141143799,3.9220752716064453,0.31747737526893616,-0.3165108263492584,0.1431625485420227,1.1821565628051758
454,34670,34666,0.012187030166387558,-0.010377957485616207,0.9624970555305481,0.30647939443588257,-0.6267967224121094,-1.1971582174301147,2.26560640335083,3.92289400100708,0.3171772360801697,-0.31763410568237305,0.14207547903060913,1.1476961374282837
455,34680,34676,0.07614365965127945,-0.07420745491981506,0.9469948410987854,-1.0298798084259033,-1.859275460243225,-1.2575205564498901,2.266617774963379,3.92324161529541,0.31747156381607056,-0.304677277803421,0.14925596117973328,1.2104791402816772
456,34690,34686,0.026475025340914726,-0.03396208584308624,0.988349974155426,-1.1174702644348145,-2.8503177165985107,-1.5598423480987549,2.267221689224243,3.9232044219970703,0.3170877695083618,-0.26158636808395386,0.21662704646587372,1.1888127326965332
457,34700,34696,0.00892250332981348,-0.1751234084367752,1.0235058069229126,-0.8030158877372742,-2.7398977279663086,-0.9070091843605042,2.2685134410858154,3.9237875938415527,0.3166223466396332,-0.27284732460975647,0.11015301197767258,1.167219638824463
458,34710,34706,0.015476961620151997,-0.09936404228210449,0.9787451028823853,-1.2910988330841064,-2.0748965740203857,-0.7308650612831116,2.268700361251831,3.9229652881622314,0.31354379653930664,-0.2084447294473648,0.18047967553138733,1.1511354446411133
459,34720,34716,-0.02123679220676422,-0.04532903805375099,0.9825334548950195,-1.062575340270996,-1.3336154222488403,-0.8981640934944153,2.2684082984924316,3.924147844314575,0.3130228817462921,-0.08744166791439056,0.08215691894292831,1.1512378454208374
460,34730,34726,0.014918242581188679,-0.07503529638051987,0.9454330801963806,-2.4081335067749023,2.5989582538604736,-1.0241881608963013,2.271272659301758,3.9238457679748535,0.3122696280479431,-0.30029359459877014,0.07001765072345734,1.2095682621002197
461,34740,34736,0.0891813337802887,-0.13734854757785797,1.0326192378997803,-1.735318899154663,0.7642307877540588,-1.293739914894104,2.271448850631714,3.9251606464385986,0.3111425042152405,-0.2275489866733551,0.03628890588879585,1.2060784101486206
462,34750,34746,0.09593072533607483,-0.17688892781734467,0.9881757497787476,-1.3389573097229004,-0.9891319870948792,-1.371362328529358,2.2729101181030273,3.9248111248016357,0.31042248010635376,-0.3007570207118988,0.08641179651021957,1.1976979970932007
463,34760,34756,0.010653186589479446,-0.08419883251190186,1.0022939443588257,0.3167910873889923,-3.637512683868408,-1.7024078369140625,2.2731189727783203,3.9244275093078613,0.3097885847091675,-0.26460185647010803,0.06120185926556587,1.1415349245071411
464,34770,34766,0.016518834978342056,0.0007189123425632715,1.0726100206375122,-0.02869744785130024,-1.357635259628296,-1.8445560932159424,2.2735977172851562,3.924626588821411,0.3091657757759094,-0.1985076516866684,0.06512673199176788,1.1158885955810547
465,34780,34776,0.0366961732506752,-0.05731970816850662,1.0493600368499756,-1.6890724897384644,0.9797483086585999,-1.5640579462051392,2.276618003845215,3.924504041671753,0.31161972880363464,-0.3995445966720581,0.06309541314840317,1.1505639553070068
466,34790,34786,0.009637583047151566,-0.0027327958960086107,1.026574730873108,-0.03706822916865349,-1.8410638570785522,-2.1061882972717285,2.2762365341186523,3.9242706298828125,0.31139838695526123,-0.2880673110485077,0.038491394370794296,1.1000345945358276
467,34800,34796,-0.012396303936839104,0.053768910467624664,1.0343164205551147,-1.1445120573043823,-2.335995674133301,-1.2055035829544067,2.2770578861236572,3.9244916439056396,0.3111552596092224,-0.22970394790172577,0.036221690475940704,1.0753681659698486
468,34810,34806,-0.013764820992946625,0.07534389942884445,0.9784837365150452,-1.2199201583862305,-2.363701105117798,-1.229358196258545,2.278167724609375,3.924896478652954,0.3093869686126709,-0.25185081362724304,0.022865867242217064,1.0979039669036865
469,34820,34816,-0.008721914142370224,0.14866900444030762,0.947126567363739,-0.4581828713417053,-2.3499138355255127,-1.9862722158432007,2.278904914855957,3.9244980812072754,0.30904626846313477,-0.20560495555400848,0.17342208325862885,1.1327556371688843
470,34830,34826,0.050929851830005646,0.07830379158258438,0.9366648197174072,-2.4110498428344727,-1.3023004531860352,-1.6329675912857056,2.2781732082366943,3.9244959354400635,0.30879759788513184,-0.08978109806776047,0.1558237075805664,1.183726191520691
471,34840,34836,-0.010378642939031124,-0.006374271120876074,1.0871570110321045,-3.514092206954956,-0.6399745941162109,-2.4309518337249756,2.2820138931274414,3.9266257286071777,0.3052862882614136,-0.3754050135612488,0.026059748604893684,1.1425609588623047
472,34850,34846,-0.004348792135715485,0.02547076717019081,1.017835021018982,-2.705603837966919,-1.6086300611495972,-1.596987009048462,2.2820961475372314,3.9274611473083496,0.30484792590141296,-0.22304067015647888,-0.03317178785800934,1.1684049367904663
473,34860,34856,-0.03154904767870903,0.1385374516248703,0.9961637854576111,-2.0784642696380615,-1.768027663230896,-1.5433897972106934,2.2825419902801514,3.9273123741149902,0.30434611439704895,-0.1500968337059021,-0.07101479172706604,1.1359583139419556
474,34870,34866,-0.008953173644840717,0.11726274341344833,1.0235880613327026,-0.6858034133911133,-2.051811695098877,-1.4183049201965332,2.284666061401367,3.9279396533966064,0.3051303029060364,-0.24480026960372925,-0.10084569454193115,1.1394587755203247
475,34880,34876,0.0043412623926997185,0.08180808275938034,1.0858991146087646,-0.11887761950492859,-2.385739803314209,-1.1977512836456299,2.2852816581726074,3.9278533458709717,0.30473756790161133,-0.1641535460948944,-0.111666738986969,1.1064320802688599
476,34890,34886,-0.022849468514323235,-0.0003224598476663232,1.045474886894226,2.4043068885803223,-3.6203577518463135,-1.3986214399337769,2.285278081893921,3.927518367767334,0.30448707938194275,0.002617665333673358,-0.11034894734621048,1.1101751327514648
477,34900,34896,-0.04514087736606598,0.011605202220380306,0.976168692111969,2.097841262817383,-2.838010311126709,-1.360845685005188,2.285954236984253,3.92754864692688,0.3041975200176239,0.013579586520791054,-0.06942103803157806,1.116482138633728
478,34910,34906,-0.014774829149246216,0.011777748353779316,1.0375407934188843,1.931313157081604,-0.49553900957107544,-1.6636048555374146,2.287351131439209,3.927809476852417,0.30413562059402466,0.017208900302648544,-0.032635923475027084,1.1044235229492188
