,timestamp_start,timestamp_end,acc.x,acc.y,acc.z,gyro.x,gyro.y,gyro.z,stateEstimate.x,stateEstimate.y,stateEstimate.z,stabilizer.pitch,stabilizer.roll,stabilizer.yaw
0,26302,26297,0.07143518328666687,-0.18317550420761108,0.7547787427902222,-18.162086486816406,-8.710783958435059,-1.7688356637954712,1.8367750644683838,3.9183144569396973,0.1726805865764618,-2.1278576850891113,0.5843011736869812,4.735857009887695
1,26312,26307,-0.07901594787836075,-0.001701926812529564,0.8848669528961182,-16.959518432617188,-6.320417404174805,-1.4938260316848755,1.8371613025665283,3.918468952178955,0.17466408014297485,-1.9667515754699707,0.44016721844673157,4.7333526611328125
2,26322,26317,-0.19816800951957703,0.31387582421302795,1.0490286350250244,-10.246278762817383,-8.399751663208008,-1.4031695127487183,1.8383967876434326,3.9198994636535645,0.1753246784210205,-1.9812085628509521,0.3729270398616791,4.7392683029174805
3,26332,26327,-0.2411041557788849,0.32284754514694214,1.0202940702438354,-2.648975133895874,-13.791789054870605,-0.907997190952301,1.8373279571533203,3.9253673553466797,0.17563094198703766,-1.8327009677886963,0.2855362892150879,4.7390456199646
4,26342,26337,0.006559021305292845,0.08111436665058136,0.8651682138442993,4.561961650848389,-19.92757797241211,0.17761975526809692,1.8367068767547607,3.925143003463745,0.17752307653427124,-1.5865888595581055,0.2811472415924072,4.752048015594482
5,26352,26347,0.1695023626089096,-0.11582381278276443,0.8374937772750854,9.798440933227539,-27.560832977294922,0.07695325464010239,1.8393168449401855,3.924938440322876,0.176686629652977,-1.6210131645202637,0.38676565885543823,4.744098663330078
6,26362,26357,0.0639721006155014,-0.021669425070285797,0.9748536944389343,9.701699256896973,-28.747684478759766,0.3239128887653351,1.8396998643875122,3.924445629119873,0.1781684309244156,-1.2383534908294678,0.5565004348754883,4.77534294128418
7,26372,26367,-0.040919460356235504,-0.17453987896442413,0.8975992798805237,5.781861305236816,-29.076904296875,-0.3885146677494049,1.8413825035095215,3.926006555557251,0.17914123833179474,-1.02889883518219,0.6433688998222351,4.760990142822266
8,26382,26377,-0.05406086519360542,0.08107172697782516,0.9342069029808044,-1.0771119594573975,-27.126680374145508,-0.8863492608070374,1.8407946825027466,3.9277400970458984,0.1806706041097641,-0.5304254293441772,0.6639224290847778,4.765834808349609
9,26392,26387,-0.1373647004365921,0.2789463400840759,1.1235989332199097,-6.127646446228027,-22.853084564208984,-0.8375422358512878,1.8403255939483643,3.9267585277557373,0.18254417181015015,-0.09638815373182297,0.6499993205070496,4.769709587097168
10,26402,26397,-0.12661947309970856,0.03985774144530296,0.9820349216461182,-9.081559181213379,-13.333456039428711,-1.6226720809936523,1.8417575359344482,3.928942918777466,0.18368792533874512,-0.20340876281261444,0.605432391166687,4.719797134399414
11,26412,26407,-0.13089989125728607,0.15761855244636536,1.0935250520706177,-9.16088581085205,-8.684163093566895,-0.5584897994995117,1.8421348333358765,3.929464101791382,0.18501339852809906,0.016510475426912308,0.4354762136936188,4.7087907791137695
12,26422,26417,-0.051457758992910385,0.05331194028258324,1.0656121969223022,-6.945960521697998,-1.7644786834716797,-0.36219146847724915,1.8432409763336182,3.9315831661224365,0.18501725792884827,0.03028222545981407,0.2880711853504181,4.688281536102295
13,26432,26427,-0.03412120044231415,0.1735423356294632,1.0621399879455566,-4.265937805175781,-7.648257732391357,-0.19218215346336365,1.8442714214324951,3.9336814880371094,0.18598319590091705,-0.04977717995643616,0.24228793382644653,4.668764114379883
14,26442,26437,-0.12994785606861115,0.30093637108802795,1.2344799041748047,-0.21754002571105957,-18.968446731567383,0.9642002582550049,1.8434211015701294,3.9327521324157715,0.18771037459373474,0.32183682918548584,0.19059498608112335,4.696457862854004
15,26452,26447,-0.046825673431158066,0.08252508193254471,1.1256306171417236,1.5970847606658936,-25.685880661010742,1.765172004699707,1.8438371419906616,3.9337596893310547,0.18800538778305054,0.45255815982818604,0.21487535536289215,4.697528839111328
16,26462,26457,-0.008578451350331306,0.06882745772600174,1.1222587823867798,4.64149808883667,-20.718280792236328,0.6953192949295044,1.8435617685317993,3.9330244064331055,0.18962585926055908,0.9089715480804443,0.33783337473869324,4.733644962310791
17,26472,26467,-0.06869203597307205,0.19177395105361938,1.139440894126892,6.465192794799805,-17.86225700378418,0.8448821902275085,1.8443855047225952,3.9348859786987305,0.19128067791461945,0.9382999539375305,0.3361375033855438,4.72469425201416
18,26482,26477,-0.07094234973192215,0.12048632651567459,1.0506871938705444,2.5182247161865234,-10.423133850097656,0.6927936673164368,1.8440394401550293,3.935560464859009,0.1923101842403412,1.0890222787857056,0.43362924456596375,4.731722831726074
19,26492,26487,-0.055244117975234985,0.08147977292537689,1.0761618614196777,-4.084706783294678,-9.392232894897461,0.9359815120697021,1.8453985452651978,3.9361915588378906,0.1940719187259674,1.1862319707870483,0.43989431858062744,4.738788604736328
20,26502,26497,-0.044166307896375656,0.06036391854286194,1.0839349031448364,-4.834394931793213,-3.0897252559661865,0.2790141701698303,1.8454678058624268,3.9380486011505127,0.19600047171115875,1.3808292150497437,0.3733328878879547,4.760369777679443
21,26512,26507,-0.05436277016997337,0.09470456838607788,1.0848066806793213,-7.062341690063477,-1.2373844385147095,0.5189005136489868,1.846150517463684,3.9368040561676025,0.19790062308311462,1.421068787574768,0.2702587842941284,4.770913124084473
22,26522,26517,-0.11711934208869934,0.16575253009796143,1.127607822418213,-7.0341596603393555,-1.8269842863082886,0.3802517056465149,1.845314860343933,3.9388511180877686,0.19779466092586517,1.5154701471328735,0.20704731345176697,4.782385349273682
23,26532,26527,-0.10021666437387466,0.34281498193740845,1.140309453010559,-5.527842044830322,-2.967611074447632,0.2663978636264801,1.845822811126709,3.9373881816864014,0.19973261654376984,1.4632446765899658,0.3229013681411743,4.743184566497803
24,26542,26537,-0.09918636083602905,0.2648394703865051,1.1074223518371582,-1.6924158334732056,-6.877848148345947,1.3025909662246704,1.8466742038726807,3.9376473426818848,0.20175886154174805,1.5222489833831787,0.27430328726768494,4.7442851066589355
25,26552,26547,-0.045514535158872604,-0.10933034121990204,0.9386882781982422,-3.521190881729126,-4.0916337966918945,0.9752514362335205,1.8451298475265503,3.9381039142608643,0.20259664952754974,1.7189782857894897,0.21942108869552612,4.778395175933838
26,26562,26557,-0.024481290951371193,-0.07218239456415176,0.9928727149963379,-2.635711431503296,-1.9940093755722046,0.7329411506652832,1.846726417541504,3.9365732669830322,0.20485098659992218,1.4918581247329712,0.13120804727077484,4.779975891113281
27,26572,26567,0.0075385794043540955,0.04724666103720665,1.0572012662887573,-3.611548900604248,-1.3755828142166138,0.5639587640762329,1.8459910154342651,3.936112403869629,0.2070256769657135,1.6384551525115967,0.19067838788032532,4.771015644073486
28,26582,26577,-0.0035922059323638678,0.15246088802814484,1.1151223182678223,-3.430833578109741,-1.2481167316436768,0.15950152277946472,1.8462709188461304,3.937063694000244,0.20843374729156494,1.5417920351028442,-0.0019901026971638203,4.807478427886963
29,26592,26587,0.09360404312610626,0.023827144876122475,1.030548095703125,-2.6465203762054443,-2.246438980102539,0.008401059545576572,1.8470239639282227,3.9362542629241943,0.21050657331943512,1.3974463939666748,0.03877920284867287,4.775679588317871
30,26602,26597,0.1276552528142929,0.09717316180467606,0.9562838673591614,-2.1163129806518555,-5.783486843109131,0.2624265253543854,1.847244143486023,3.936307430267334,0.21281090378761292,1.495261311531067,-0.038476377725601196,4.796345233917236
31,26612,26607,0.08882211893796921,0.16109585762023926,0.9434189200401306,-1.9597634077072144,-5.157135486602783,-0.05806383490562439,1.8476579189300537,3.9358434677124023,0.21502619981765747,1.5551303625106812,-0.013339890167117119,4.786585330963135
32,26622,26617,0.0622502863407135,-0.062469542026519775,0.8782285451889038,-1.895249366760254,-6.127246856689453,0.07812430709600449,1.8482234477996826,3.934566020965576,0.21532467007637024,1.5889806747436523,-0.06142622232437134,4.795433521270752
33,26632,26627,-0.015008168295025826,-0.0901796892285347,0.9363879561424255,-2.858241319656372,-1.721205234527588,-0.4330679774284363,1.8488348722457886,3.932992458343506,0.21911965310573578,1.571731448173523,-0.08941919356584549,4.799508571624756
34,26642,26637,-0.05022960528731346,-0.16418170928955078,0.8833671808242798,-3.0454940795898438,1.2235698699951172,-0.8074182868003845,1.8481308221817017,3.936450719833374,0.2192269265651703,1.7527440786361694,-0.06542724370956421,4.787603855133057
35,26652,26647,-0.07418809086084366,0.012579558417201042,0.9183738231658936,-3.987504482269287,2.777515172958374,-1.7899993658065796,1.847417950630188,3.937386989593506,0.21997570991516113,1.8998531103134155,-0.0636076033115387,4.773779392242432
36,26662,26657,-0.4299413859844208,0.4688672423362732,1.0936368703842163,-4.097227573394775,5.661035537719727,-1.201879620552063,1.8486469984054565,3.9402451515197754,0.22159898281097412,1.9811745882034302,-0.1824488639831543,4.776662826538086
37,26672,26667,-0.20433466136455536,0.6183964014053345,0.9761594533920288,-2.5228312015533447,6.44244384765625,-0.589983344078064,1.8477946519851685,3.9398155212402344,0.22301611304283142,2.158403158187866,-0.18798214197158813,4.761011123657227
38,26682,26677,-0.0513145849108696,0.3207710385322571,1.0728759765625,-4.200818061828613,13.207148551940918,-1.0796306133270264,1.848581314086914,3.9373648166656494,0.22516648471355438,1.9562699794769287,-0.003196251578629017,4.677761077880859
39,26692,26687,0.050179626792669296,0.33184921741485596,0.9512417316436768,-3.3480660915374756,16.703514099121094,-0.755759060382843,1.849003791809082,3.9368107318878174,0.2269814908504486,1.6693627834320068,-0.03265853598713875,4.661945343017578
40,26702,26697,0.11910837888717651,0.005635072942823172,0.8685178756713867,-6.076904773712158,15.50119686126709,-1.223826289176941,1.8491253852844238,3.9380600452423096,0.2287701964378357,1.398875117301941,-0.13299177587032318,4.673669815063477
41,26712,26707,-0.0074247331358492374,0.08966559916734695,0.9905441999435425,-6.709089756011963,2.8887600898742676,-1.9777357578277588,1.848312497138977,3.93593430519104,0.23031045496463776,1.431386947631836,0.046822089701890945,4.594539165496826
42,26722,26717,-0.07665548473596573,-0.06861560791730881,0.8615211248397827,-9.17052173614502,9.862159729003906,-1.3671166896820068,1.8462883234024048,3.937567710876465,0.23007862269878387,1.6504155397415161,-0.026132119819521904,4.586565017700195
43,26732,26727,-0.174629345536232,0.016942596063017845,0.983569860458374,-11.206088066101074,10.506815910339355,-1.0508025884628296,1.8459408283233643,3.935504674911499,0.2317063957452774,1.4721182584762573,-0.2440197467803955,4.611783504486084
44,26742,26737,-0.0859285518527031,-0.01580454409122467,0.9424277544021606,-10.264616012573242,12.544275283813477,-1.5612828731536865,1.846022129058838,3.9373791217803955,0.2343687117099762,1.342643141746521,-0.3395174741744995,4.595724105834961
45,26752,26747,-0.12348078191280365,0.16237488389015198,1.047685146331787,-6.5998430252075195,8.210383415222168,-1.7594751119613647,1.8476494550704956,3.9419443607330322,0.23361507058143616,1.1376954317092896,-0.5106776356697083,4.593253135681152
46,26762,26757,-0.11268524825572968,0.2794027328491211,0.9546363949775696,-6.712535858154297,15.887401580810547,-2.498514413833618,1.8478803634643555,3.9428446292877197,0.23487786948680878,0.9344090819358826,-0.6634301543235779,4.5831122398376465
47,26772,26767,-0.013113871216773987,0.17918537557125092,0.9465581774711609,-4.347504615783691,12.639047622680664,-1.981275200843811,1.8487937450408936,3.9435417652130127,0.23608091473579407,0.6462761163711548,-0.8265174031257629,4.580413341522217
48,26782,26777,-0.06897380948066711,0.15223625302314758,1.058258056640625,0.9920731782913208,6.163034439086914,-2.1222808361053467,1.8487612009048462,3.941958427429199,0.23678669333457947,0.43115323781967163,-0.902472198009491,4.565532207489014
49,26792,26787,0.08845804631710052,-0.07434336841106415,0.8954164385795593,4.691169261932373,-0.6639602184295654,-2.2247979640960693,1.8477587699890137,3.944340944290161,0.2380058765411377,0.49480491876602173,-0.8921619653701782,4.539612770080566
50,26802,26797,0.0291272159665823,-0.022477086633443832,0.9888735413551331,8.05614948272705,-3.36667537689209,-1.8094285726547241,1.846229910850525,3.944110155105591,0.23917776346206665,0.5388404726982117,-0.8041288256645203,4.512829780578613
51,26812,26807,0.09798505902290344,-0.11379392445087433,0.9180963635444641,9.979950904846191,-2.1669723987579346,-2.2246906757354736,1.8468246459960938,3.9442317485809326,0.2392338067293167,0.4617690145969391,-0.6514861583709717,4.488028049468994
52,26822,26817,0.01548305619508028,-0.09995584934949875,0.9212101697921753,7.054643630981445,-0.7370110154151917,-1.9807840585708618,1.8451414108276367,3.942889928817749,0.24022023379802704,0.5664094686508179,-0.5106747150421143,4.456903457641602
53,26832,26827,-0.01249677874147892,0.013656807132065296,1.012749433517456,2.9225752353668213,1.8148716688156128,-2.0040059089660645,1.8465123176574707,3.947627305984497,0.24124398827552795,0.4877339005470276,-0.5024757981300354,4.455337047576904
54,26842,26837,-0.0761154517531395,0.054800473153591156,0.9822805523872375,-0.2732119560241699,4.465462684631348,-1.908962607383728,1.8437482118606567,3.947896718978882,0.2421393096446991,0.7386873960494995,-0.4790196120738983,4.417768478393555
55,26852,26847,0.001036049798130989,0.3471708297729492,0.9550358653068542,-4.839697360992432,4.231823444366455,-2.7116053104400635,1.8438220024108887,3.9478487968444824,0.24436458945274353,0.6116870641708374,-0.5258815884590149,4.406205177307129
56,26862,26857,-0.19055664539337158,0.3080021142959595,1.1361147165298462,-4.420669078826904,9.649660110473633,-2.060655117034912,1.8424981832504272,3.948836326599121,0.24428515136241913,0.7461330890655518,-0.6118577718734741,4.372746467590332
57,26872,26867,-0.11897965520620346,0.07390773296356201,0.9755823016166687,-2.5062007904052734,14.35104751586914,-2.328498601913452,1.8432456254959106,3.948234796524048,0.24540698528289795,0.46442753076553345,-0.7042162418365479,4.361307144165039
58,26882,26877,-0.09342032670974731,0.021008938550949097,0.9967546463012695,0.9060018062591553,14.509037017822266,-1.9560754299163818,1.8426647186279297,3.9470009803771973,0.24426202476024628,0.24678592383861542,-0.739423930644989,4.341603755950928
59,26892,26887,-0.07805608958005905,0.038546159863471985,1.0389200448989868,5.071710586547852,10.303836822509766,-1.9500770568847656,1.842553973197937,3.9489336013793945,0.24513687193393707,0.04059097543358803,-0.7044671773910522,4.321040630340576
60,26902,26897,-0.09712245315313339,-0.05305078625679016,1.0023000240325928,8.783732414245605,5.449181079864502,-2.5600483417510986,1.8414170742034912,3.9496419429779053,0.24598486721515656,0.006752023007720709,-0.7545211911201477,4.300418853759766
61,26912,26907,0.0684521496295929,-0.2679939568042755,0.866375744342804,10.665399551391602,-1.0731985569000244,-2.322506904602051,1.840245008468628,3.949547290802002,0.24625395238399506,0.031360700726509094,-0.6568580865859985,4.263594150543213
62,26922,26917,-0.023976359516382217,0.1472758948802948,1.0180954933166504,12.57526683807373,-3.9097771644592285,-2.455392837524414,1.840198278427124,3.948983669281006,0.24717110395431519,0.03378748521208763,-0.538092315196991,4.239799976348877
63,26932,26927,-0.06284274905920029,0.09603579342365265,1.0919376611709595,11.13562297821045,-2.0677361488342285,-3.005862236022949,1.8393977880477905,3.950211524963379,0.24791967868804932,0.10313840210437775,-0.46481478214263916,4.21009635925293
64,26942,26937,0.0382271334528923,-0.0534827820956707,0.9575768709182739,9.01161003112793,-0.5590518712997437,-2.4725005626678467,1.8391897678375244,3.949681520462036,0.24878036975860596,0.1077180728316307,-0.2655002772808075,4.176559925079346
65,26952,26947,0.01046508364379406,-0.09211819618940353,1.0049461126327515,6.714541435241699,2.844979763031006,-2.6605985164642334,1.839476227760315,3.948420286178589,0.2504364848136902,-0.03297099471092224,-0.1129179373383522,4.1535749435424805
66,26962,26957,0.0214232224971056,0.057378631085157394,1.0307302474975586,0.2363557517528534,-0.29367271065711975,-3.2099897861480713,1.839756965637207,3.950282573699951,0.25136345624923706,-0.12863633036613464,-0.16790162026882172,4.12771463394165
67,26972,26967,-0.1877537965774536,0.523097813129425,1.0078970193862915,-0.009678826667368412,3.981492519378662,-3.161365032196045,1.839574933052063,3.9516422748565674,0.25237175822257996,-0.2254513055086136,-0.11536692827939987,4.103634357452393
68,26982,26977,0.005988236982375383,0.17787183821201324,0.9141231179237366,-2.344180107116699,4.765092849731445,-4.039494037628174,1.837361454963684,3.952547550201416,0.2532525956630707,-0.13028323650360107,-0.24196918308734894,4.05925178527832
69,26992,26987,0.07290475070476532,-0.15289217233657837,0.9438799023628235,-0.406798392534256,4.906093597412109,-4.4470391273498535,1.8366484642028809,3.9551422595977783,0.25418171286582947,-0.1831665188074112,-0.23580621182918549,4.023641586303711
70,27002,26997,0.03511519357562065,-0.19774313271045685,0.8977621793746948,3.3074421882629395,2.174152135848999,-2.7792909145355225,1.8343017101287842,3.9564356803894043,0.25501880049705505,-0.19236941635608673,-0.16706816852092743,3.9870190620422363
71,27012,27007,0.08164407312870026,-0.273623526096344,0.8562498688697815,5.9994683265686035,2.6893253326416016,-2.9143877029418945,1.8322590589523315,3.9547231197357178,0.2565460503101349,-0.09700410813093185,-0.06311841309070587,3.960344076156616
72,27022,27017,0.037007804960012436,-0.3090088367462158,0.9305855631828308,7.971071243286133,1.7537637948989868,-2.889573812484741,1.8314933776855469,3.9539215564727783,0.25724467635154724,0.0307918693870306,0.10439140349626541,3.9342241287231445
73,27032,27027,0.069720558822155,-0.40435194969177246,0.8523170948028564,9.184884071350098,2.803706169128418,-2.8249056339263916,1.8315253257751465,3.9551494121551514,0.25812339782714844,-0.13872647285461426,0.05507277697324753,3.9025721549987793
74,27042,27037,0.044504549354314804,-0.26777395606040955,0.8576062917709351,5.606350898742676,3.6411571502685547,-3.3687756061553955,1.830127477645874,3.953129529953003,0.2604483962059021,-0.04204389080405235,0.24216815829277039,3.880398988723755
75,27052,27047,0.07594439387321472,-0.11018764972686768,0.9087082147598267,1.7018839120864868,6.578920841217041,-2.9463093280792236,1.8302360773086548,3.951894521713257,0.2610517144203186,-0.17420171201229095,0.17240378260612488,3.8449788093566895
76,27062,27057,-0.06272635608911514,-0.009714733809232712,0.9963386058807373,-0.4942532479763031,7.797641754150391,-3.652862071990967,1.8294612169265747,3.9524030685424805,0.26154112815856934,-0.283594012260437,0.22737134993076324,3.8156747817993164
77,27072,27067,-0.11717220395803452,0.11724299192428589,1.0649118423461914,-2.224804162979126,8.614189147949219,-3.868818998336792,1.8281728029251099,3.951772689819336,0.2618980407714844,-0.28311339020729065,0.2413221299648285,3.7800276279449463
78,27082,27077,0.008208385668694973,0.4101382791996002,0.986220121383667,-4.535321235656738,10.134488105773926,-4.111720561981201,1.8273625373840332,3.9523794651031494,0.26303207874298096,-0.39649975299835205,0.06950046122074127,3.732408285140991
79,27092,27087,-0.12899650633335114,0.3238813579082489,1.1208291053771973,0.7848189473152161,12.048540115356445,-2.5383098125457764,1.8264507055282593,3.9518253803253174,0.26353007555007935,-0.5331434011459351,0.061220183968544006,3.699362277984619
80,27102,27097,-0.06740276515483856,0.10049628466367722,1.0439350605010986,1.8082127571105957,15.39818286895752,-2.8541371822357178,1.8246712684631348,3.9512643814086914,0.26408132910728455,-0.5981976985931396,0.11600735783576965,3.6796348094940186
81,27112,27107,-0.1533430516719818,0.2982290983200073,1.0976899862289429,5.386238098144531,18.440471649169922,-2.966417074203491,1.8232977390289307,3.950923204421997,0.26516950130462646,-0.6900290846824646,0.20069235563278198,3.6614551544189453
82,27122,27117,-0.13951586186885834,0.15658535063266754,1.0461020469665527,8.673999786376953,18.375871658325195,-2.857982873916626,1.824018955230713,3.9517662525177,0.2659265100955963,-0.9917313456535339,0.3312406837940216,3.6369035243988037
83,27132,27127,-0.18817995488643646,0.10774099826812744,1.0852032899856567,7.319370746612549,18.246002197265625,-3.03682804107666,1.822389006614685,3.953150987625122,0.2668073773384094,-0.9840568900108337,0.31183841824531555,3.5992534160614014
84,27142,27137,-0.10068346560001373,0.06862709671258926,1.07390558719635,3.1396327018737793,17.09683609008789,-3.5809197425842285,1.8227061033248901,3.9545485973358154,0.2650757431983948,-1.3068243265151978,0.26255375146865845,3.5527966022491455
85,27152,27147,-0.07922214269638062,0.08150167763233185,1.072790265083313,2.4184796810150146,16.096302032470703,-3.619706869125366,1.8226803541183472,3.9541983604431152,0.2659185230731964,-1.4606233835220337,0.407950758934021,3.5369324684143066
86,27162,27157,-0.0900486409664154,0.1007765457034111,1.0316518545150757,1.7583236694335938,12.26583480834961,-3.1567068099975586,1.821948528289795,3.9555273056030273,0.2667657136917114,-1.5922147035598755,0.38180023431777954,3.497373342514038
87,27172,27167,-0.09547962993383408,0.17281962931156158,1.056756615638733,0.7710643410682678,5.852624893188477,-3.285565137863159,1.8218311071395874,3.9560742378234863,0.2675992250442505,-1.7713228464126587,0.4113015830516815,3.469390869140625
88,27182,27177,-0.13406746089458466,0.3021183907985687,1.1395196914672852,0.3526119291782379,1.2434593439102173,-3.95137095451355,1.8218544721603394,3.956660747528076,0.26965928077697754,-1.8369890451431274,0.43368664383888245,3.436826467514038
89,27192,27187,-0.1320345252752304,0.15135911107063293,1.0362342596054077,0.9724248051643372,-1.4941662549972534,-3.9841809272766113,1.8214740753173828,3.956545352935791,0.27071917057037354,-1.8421802520751953,0.4405193626880646,3.395930290222168
90,27202,27197,-0.1705508530139923,0.11466939002275467,1.103758692741394,2.367438554763794,-0.018218491226434708,-3.76790714263916,1.8207736015319824,3.9591264724731445,0.2720414102077484,-1.716004729270935,0.3673858046531677,3.3423690795898438
91,27212,27207,-0.042321816086769104,0.04783090949058533,1.0865823030471802,-0.7163382768630981,-1.7822344303131104,-3.285710334777832,1.8206076622009277,3.9618465900421143,0.2750152051448822,-1.7216039896011353,0.3902275860309601,3.3093385696411133
92,27222,27217,-0.012348162941634655,0.04564719274640083,0.9910032153129578,0.2916647791862488,-2.20870304107666,-3.6141834259033203,1.8196651935577393,3.9613888263702393,0.2764292061328888,-1.7076421976089478,0.40288257598876953,3.313032865524292
93,27232,27227,-0.01946410909295082,0.0259855967015028,1.0019701719284058,1.0690808296203613,-0.5890766382217407,-3.1048777103424072,1.821009874343872,3.9622087478637695,0.277942419052124,-1.8618499040603638,0.41402414441108704,3.2674548625946045
94,27242,27237,-0.21819916367530823,0.3970271050930023,1.1050547361373901,-0.06167008727788925,3.9811105728149414,-3.5793983936309814,1.8220969438552856,3.9626073837280273,0.27781930565834045,-1.9913805723190308,0.42178618907928467,3.224011182785034
95,27252,27247,-0.06655550003051758,0.24206291139125824,0.930418848991394,-0.5405057668685913,0.8611201047897339,-2.9439802169799805,1.8231418132781982,3.9632883071899414,0.2791976034641266,-2.0764026641845703,0.42269429564476013,3.187156915664673
96,27262,27257,-0.005189014598727226,0.11970813572406769,1.0130537748336792,0.026572702452540398,-0.26451539993286133,-3.0912046432495117,1.8241480588912964,3.965070962905884,0.28056034445762634,-2.1766133308410645,0.4213714897632599,3.151625871658325
97,27272,27267,0.06521628797054291,-0.02731887623667717,0.9457898139953613,-1.7315725088119507,-2.9378437995910645,-3.577394485473633,1.8232566118240356,3.9654083251953125,0.28207528591156006,-2.110358476638794,0.3579798936843872,3.107189416885376
98,27282,27277,0.06016596034169197,-0.010114864446222782,0.9444822072982788,-2.0468533039093018,-5.644016265869141,-3.063538074493408,1.8232172727584839,3.9672763347625732,0.28381162881851196,-1.992781162261963,0.35541385412216187,3.083165168762207
99,27292,27287,-0.0013835395220667124,-0.12567470967769623,0.8635429739952087,-2.091049909591675,-6.902010917663574,-3.391489028930664,1.8223000764846802,3.968034029006958,0.2852330207824707,-1.830036997795105,0.3491388261318207,3.062211036682129
100,27302,27297,-0.18689541518688202,0.34851983189582825,0.9557446241378784,0.012539747171103954,-4.032485485076904,-4.152256011962891,1.8219776153564453,3.9681224822998047,0.2865595519542694,-1.6860930919647217,0.4091744124889374,3.0576894283294678
101,27312,27307,0.012858400121331215,0.29478150606155396,0.8413962125778198,0.7079803347587585,-8.883009910583496,-3.58272385597229,1.8227335214614868,3.967768430709839,0.28958871960639954,-1.6852058172225952,0.41266298294067383,3.018395185470581
102,27322,27317,0.055905554443597794,-0.11578501015901566,0.8551852107048035,-0.5563462972640991,-4.284663677215576,-3.807032585144043,1.8223203420639038,3.9659743309020996,0.2907523810863495,-1.584000825881958,0.42319074273109436,2.9813194274902344
103,27332,27327,0.004190532024949789,-0.0036730929277837276,0.9868251085281372,-1.0177388191223145,1.5190716981887817,-4.170257568359375,1.8221173286437988,3.965911388397217,0.2918391525745392,-1.561970591545105,0.4035828113555908,2.9370648860931396
104,27342,27337,-0.06272091716527939,0.2334883064031601,0.9349519610404968,-3.141050100326538,5.791086673736572,-4.19000244140625,1.825150489807129,3.9656918048858643,0.29231181740760803,-1.928964376449585,0.4594469368457794,2.890277624130249
105,27352,27347,-0.15230818092823029,0.38488322496414185,1.0313929319381714,-8.367106437683105,10.848418235778809,-5.44425630569458,1.8256897926330566,3.9654040336608887,0.29316848516464233,-2.004866600036621,0.41216257214546204,2.8408203125
106,27362,27357,-0.035605382174253464,0.24766013026237488,0.9739606976509094,-7.197500228881836,1.0140661001205444,-4.135564804077148,1.8265008926391602,3.964478015899658,0.2940696179866791,-2.0536305904388428,0.38097241520881653,2.8031346797943115
107,27372,27367,0.11028476804494858,-0.021688947454094887,0.9230996370315552,-5.029181003570557,-8.889235496520996,-3.0688745975494385,1.8271775245666504,3.9632763862609863,0.29498955607414246,-1.9686657190322876,0.3419454097747803,2.7799878120422363
108,27382,27377,0.08330334722995758,-0.06339427828788757,0.9931679964065552,-5.501399040222168,-14.583910942077637,-4.201922416687012,1.8267488479614258,3.9628076553344727,0.2941208779811859,-2.239943742752075,0.09114987403154373,2.6622941493988037
109,27392,27387,0.024505598470568657,-0.1524868756532669,0.8835231065750122,-3.6270742416381836,-17.770606994628906,-3.089689254760742,1.8314036130905151,3.9677085876464844,0.2944852411746979,-2.0489566326141357,0.02895207889378071,2.627530813217163
110,27402,27397,-0.03921451047062874,-0.10366691648960114,0.8772928714752197,-0.8214629888534546,-20.468128204345703,-3.280564785003662,1.8296420574188232,3.9670052528381348,0.29557326436042786,-1.663801670074463,0.06318777054548264,2.6280276775360107
111,27412,27407,-0.11285394430160522,0.7742482423782349,0.9130286574363708,1.1950080394744873,-20.187946319580078,-3.9414350986480713,1.8304282426834106,3.968797445297241,0.2954886555671692,-1.4742177724838257,0.060205794870853424,2.597792625427246
112,27422,27417,-0.0825253501534462,0.7990212440490723,1.0188580751419067,1.6970187425613403,-14.902570724487305,-4.58317232131958,1.8308265209197998,3.967479944229126,0.29591259360313416,-1.2004687786102295,0.07407328486442566,2.5645148754119873
113,27432,27427,-0.010437125340104103,0.1280202567577362,1.0255956649780273,2.860506296157837,-11.20921516418457,-3.871799945831299,1.8318161964416504,3.9696457386016846,0.29634416103363037,-0.9927620887756348,0.10957130044698715,2.521487236022949
114,27442,27437,0.01189124584197998,-0.06772435456514359,0.933788001537323,0.7840680480003357,-5.241028308868408,-3.5713350772857666,1.8338236808776855,3.9681825637817383,0.29792144894599915,-0.975030779838562,0.1369362324476242,2.4727437496185303
115,27452,27447,-0.037671905010938644,0.040801096707582474,1.0291980504989624,-0.29867735505104065,-1.0902950763702393,-3.8259921073913574,1.835080862045288,3.969722032546997,0.2983197271823883,-1.060469150543213,0.04429423436522484,2.40733003616333
116,27462,27457,-0.055321790277957916,0.3012484014034271,0.9935756325721741,-0.022599050775170326,-8.1742582321167,-2.8663580417633057,1.8379651308059692,3.970484733581543,0.2986275851726532,-1.056738018989563,0.042283959686756134,2.370478630065918
117,27472,27467,-0.0054683443158864975,0.030700108036398888,0.9647200107574463,-0.41722631454467773,-3.9619646072387695,-3.909313201904297,1.840463399887085,3.9691390991210938,0.3013431429862976,-1.1542967557907104,0.04180220142006874,2.3352162837982178
118,27482,27477,0.08990342915058136,-0.10236401855945587,0.8757736682891846,-0.07243144512176514,-9.989145278930664,-2.89436936378479,1.8400092124938965,3.972031831741333,0.3021645247936249,-0.9204578995704651,-0.029416102916002274,2.287703037261963
119,27492,27487,-0.008579740300774574,0.05668732151389122,0.9754603505134583,-0.5022136569023132,-13.348343849182129,-2.8340632915496826,1.8409608602523804,3.9726014137268066,0.302653044462204,-0.9266749620437622,-0.018036996945738792,2.257314443588257
120,27502,27497,-0.019208047538995743,0.2201928198337555,0.9932060837745667,2.0544936656951904,-17.191490173339844,-3.2473721504211426,1.843675971031189,3.9739701747894287,0.302986741065979,-0.7695642709732056,-0.07222049683332443,2.218637704849243
121,27512,27507,0.08094938099384308,-0.13745972514152527,0.9045790433883667,2.0490386486053467,-15.598565101623535,-3.039206027984619,1.843012809753418,3.9735217094421387,0.3039521276950836,-0.4725094139575958,-0.011552741751074791,2.194646120071411
122,27522,27517,0.1333189755678177,-0.1360798329114914,1.0178786516189575,4.272451400756836,-15.637052536010742,-3.064389228820801,1.8450292348861694,3.973342180252075,0.3043336272239685,-0.4097072184085846,0.04887680336833,2.1649551391601562
123,27532,27527,0.12147996574640274,0.2144392877817154,0.9446374773979187,5.912946701049805,-12.87663459777832,-3.1654560565948486,1.8452203273773193,3.9745075702667236,0.3048017919063568,-0.15699507296085358,0.13393546640872955,2.1419484615325928
124,27542,27537,-0.006804389413446188,0.10614015907049179,1.0021425485610962,1.8286186456680298,-6.354840278625488,-3.165050745010376,1.8475319147109985,3.9755094051361084,0.30197787284851074,-0.19556882977485657,0.09281926602125168,2.1019301414489746
125,27552,27547,0.08177995681762695,-0.02559322863817215,1.0194923877716064,1.2401334047317505,-2.7925238609313965,-2.887026786804199,1.8483765125274658,3.9757866859436035,0.3022274971008301,-0.05374831333756447,0.16695861518383026,2.070385694503784
126,27562,27557,0.13296079635620117,-0.16076332330703735,0.9472851157188416,1.0177209377288818,-10.392247200012207,-2.05521821975708,1.8492398262023926,3.975867748260498,0.3023865818977356,-0.2102527767419815,0.18574470281600952,2.0448992252349854
127,27572,27567,-0.04061920568346977,-0.02826486900448799,0.9560556411743164,-1.0971747636795044,-2.2499654293060303,-2.6843478679656982,1.8525547981262207,3.9760079383850098,0.30078554153442383,0.07915268838405609,0.1979403793811798,2.0253798961639404
128,27582,27577,0.0035889127757400274,-0.2029876410961151,0.7897223830223083,-1.1125571727752686,-3.5352821350097656,-2.340667724609375,1.8509654998779297,3.976301908493042,0.3012138903141022,0.27683722972869873,0.19067265093326569,2.002004384994507
129,27592,27587,0.03692742809653282,-0.19270819425582886,0.8613263368606567,-1.5591142177581787,-6.565274238586426,-2.421870708465576,1.8511396646499634,3.9743142127990723,0.3011075556278229,0.4209667146205902,0.26192089915275574,1.9728409051895142
130,27602,27597,-0.029072683304548264,-0.12189576029777527,0.9516352415084839,-0.6720606684684753,-3.7317748069763184,-1.825190782546997,1.8525766134262085,3.9761083126068115,0.30080893635749817,0.4706307351589203,0.16340100765228271,1.943367838859558
131,27612,27607,0.0313209630548954,-0.030375035479664803,0.9464799165725708,-0.6209023594856262,-0.16753417253494263,-1.8785078525543213,1.8526643514633179,3.975106954574585,0.3004542887210846,0.35643354058265686,0.16441494226455688,1.9271873235702515
132,27622,27617,0.1336861401796341,-0.26374751329421997,0.986818790435791,1.1814841032028198,1.090949535369873,-2.3758397102355957,1.85629403591156,3.9758644104003906,0.29992440342903137,0.3123529851436615,0.17070971429347992,1.9101808071136475
133,27632,27627,0.11630228906869888,-0.31552839279174805,0.8535679578781128,0.5237551927566528,1.0399175882339478,-2.1989293098449707,1.8560822010040283,3.9769859313964844,0.2995787262916565,0.44753706455230713,0.1887267827987671,1.8900483846664429
134,27642,27637,-0.00275986036285758,-0.23482146859169006,0.8660979866981506,0.22851380705833435,-2.2140932083129883,-2.2861905097961426,1.856317162513733,3.976609468460083,0.29951849579811096,0.481474906206131,0.2014031857252121,1.8621158599853516
135,27652,27647,0.03394300490617752,-0.10324729979038239,0.987575352191925,0.6220044493675232,-2.6873977184295654,-2.050255537033081,1.8580877780914307,3.9775187969207764,0.29884007573127747,0.550911009311676,0.12776674330234528,1.8421329259872437
136,27662,27657,-0.030695410445332527,-0.06083763390779495,1.0182791948318481,0.9652925729751587,-0.029534779489040375,-1.199592113494873,1.8589345216751099,3.9774134159088135,0.298086017370224,0.46180495619773865,0.14852719008922577,1.8234632015228271
137,27672,27667,0.0447099469602108,-0.13918721675872803,1.0008132457733154,1.8156545162200928,3.580183506011963,-0.4675399959087372,1.8596570491790771,3.977001428604126,0.2976292371749878,0.5029453039169312,0.17472456395626068,1.806795597076416
138,27682,27677,0.09514249116182327,0.000167850375873968,1.0037332773208618,0.9516315460205078,-1.498044729232788,-1.4730998277664185,1.859031081199646,3.9768996238708496,0.2970735728740692,0.5953696966171265,0.21710774302482605,1.7990013360977173
139,27692,27687,0.059234000742435455,0.018490884453058243,0.9858943819999695,-0.01766570843756199,-1.0965805053710938,-1.2864688634872437,1.859556794166565,3.9765663146972656,0.29637277126312256,0.5727287530899048,0.23821847140789032,1.7789671421051025
140,27702,27697,-0.003479248844087124,-0.06979632377624512,1.0093250274658203,-1.3237195014953613,1.8545067310333252,-0.8129063248634338,1.8609211444854736,3.976651906967163,0.29565584659576416,0.5273544788360596,0.23503877222537994,1.7557624578475952
141,27712,27707,-0.005195898935198784,0.04464680328965187,1.1094377040863037,-0.8188617825508118,5.627927303314209,-0.6422532200813293,1.8618699312210083,3.976543664932251,0.2965981662273407,0.40538403391838074,0.14371119439601898,1.7648687362670898
142,27722,27717,0.00726084690541029,0.06536445021629333,1.0924124717712402,-0.5500921607017517,2.346867561340332,-0.46317338943481445,1.862114429473877,3.977236270904541,0.29623016715049744,0.47251465916633606,0.1427135020494461,1.770670771598816
143,27732,27727,-0.017789293080568314,-0.0693105012178421,1.039368748664856,-0.2691882848739624,0.10958949476480484,-0.7274478077888489,1.862915277481079,3.9781999588012695,0.29586032032966614,0.5518134832382202,0.13563606142997742,1.7667325735092163
144,27742,27737,-0.019977932795882225,0.014597903937101364,1.0781910419464111,2.170177459716797,-1.1923975944519043,-0.6238480806350708,1.8623825311660767,3.9783713817596436,0.2987143397331238,0.41226524114608765,0.22191472351551056,1.7547968626022339
145,27752,27747,0.026737580075860023,-0.04407072439789772,1.0363253355026245,3.266063928604126,-1.3371355533599854,-0.2688014805316925,1.8642905950546265,3.9791812896728516,0.2984822988510132,0.5579420924186707,0.19125722348690033,1.753312349319458
146,27762,27757,-0.012667733244597912,-0.0485982820391655,1.0353119373321533,1.8655098676681519,1.706583857536316,-0.6336037516593933,1.8635640144348145,3.9802191257476807,0.29853665828704834,0.5879402160644531,0.24828121066093445,1.7595347166061401
147,27772,27767,-0.03143180534243584,-0.10370112210512161,0.9775861501693726,-0.1973753422498703,0.22281424701213837,-0.35917505621910095,1.8646224737167358,3.9801974296569824,0.30231499671936035,0.48629075288772583,0.27438268065452576,1.748323917388916
148,27782,27777,0.09018782526254654,-0.16731886565685272,1.0141855478286743,-0.758411705493927,5.154182434082031,-1.1685831546783447,1.8653290271759033,3.9805309772491455,0.30251264572143555,0.37152570486068726,0.1994459629058838,1.7471941709518433
149,27792,27787,0.056696802377700806,-0.2050716131925583,0.9497849941253662,-1.1376062631607056,4.4265522956848145,-1.3331166505813599,1.8671035766601562,3.9798789024353027,0.30262210965156555,0.3882962763309479,0.19749094545841217,1.732775330543518
150,27802,27797,0.04757392033934593,-0.09324684739112854,0.993344783782959,-3.2460920810699463,8.239269256591797,-1.9120409488677979,1.8665745258331299,3.981184959411621,0.3055718243122101,0.41554802656173706,0.17607584595680237,1.7227357625961304
151,27812,27807,-0.010231060907244682,0.03473881632089615,1.0878252983093262,-2.3547630310058594,7.372583389282227,-0.744455873966217,1.8665692806243896,3.9806790351867676,0.3058406114578247,0.35404857993125916,0.13259123265743256,1.7148586511611938
152,27822,27817,-0.04073421284556389,0.1115112230181694,1.1059610843658447,-0.6316083669662476,4.7696757316589355,-0.8975993394851685,1.867570400238037,3.9812631607055664,0.3061164319515228,0.2473323941230774,0.11574336886405945,1.6910115480422974
153,27832,27827,0.06549538671970367,0.178023561835289,1.0990651845932007,2.28853702545166,-0.6271026730537415,-1.2425262928009033,1.868412971496582,3.9802067279815674,0.3065360188484192,0.23426997661590576,0.12774355709552765,1.6801657676696777
154,27842,27837,-0.08804317563772202,0.18751907348632812,1.1064740419387817,2.4542033672332764,-0.26455816626548767,-1.1270835399627686,1.8681590557098389,3.9787278175354004,0.3074502646923065,0.3565298616886139,0.18156112730503082,1.657414197921753
155,27852,27847,0.039326880127191544,0.008176131173968315,1.0029513835906982,1.756021499633789,0.7072224617004395,-1.1548800468444824,1.868728756904602,3.9789319038391113,0.3081112504005432,0.3654477596282959,0.2253844439983368,1.6438146829605103
156,27862,27857,-0.0347285196185112,0.07323294878005981,1.0927631855010986,2.03200626373291,5.748576641082764,-0.9613656401634216,1.8688961267471313,3.9788198471069336,0.3088074326515198,0.25985822081565857,0.2555111348628998,1.6370065212249756
157,27872,27867,0.07241091877222061,-0.013190360739827156,1.0494424104690552,-1.492208480834961,7.469664096832275,-1.3288938999176025,1.8705506324768066,3.9794764518737793,0.31170788407325745,0.23341505229473114,0.26131051778793335,1.6201529502868652
158,27882,27877,0.012426541186869144,0.16410303115844727,1.0769314765930176,-1.2422229051589966,4.584649085998535,-0.6150350570678711,1.8707191944122314,3.979337215423584,0.31268009543418884,0.21274781227111816,0.23083730041980743,1.6153823137283325
159,27892,27887,0.08944269269704819,-0.1775231808423996,0.8788352608680725,-3.681147813796997,5.095853328704834,-2.94213604927063,1.8718554973602295,3.979238271713257,0.31377989053726196,0.19015420973300934,0.20666450262069702,1.6009033918380737
160,27902,27897,-0.08280055224895477,0.07136069238185883,1.0796908140182495,-2.9458913803100586,5.5825581550598145,-1.5727554559707642,1.8721544742584229,3.980189085006714,0.3138999044895172,0.16433823108673096,0.14833395183086395,1.5779207944869995
161,27912,27907,-0.01732640154659748,0.10529083758592606,1.0550459623336792,-2.8501060009002686,6.2261810302734375,-2.2592458724975586,1.8741081953048706,3.9804670810699463,0.3147372603416443,-0.07845024019479752,0.11557945609092712,1.5635935068130493
162,27922,27917,-0.13581795990467072,-0.001746383961290121,0.966262936592102,-0.38771554827690125,0.9638307690620422,-0.8391412496566772,1.875052571296692,3.980926036834717,0.31572815775871277,-0.07292447239160538,0.07205846160650253,1.5462440252304077
163,27932,27927,-0.1560240089893341,0.3542236089706421,0.8569770455360413,-1.3743560314178467,7.819810390472412,-1.2698644399642944,1.8753560781478882,3.979623556137085,0.3167719841003418,-0.14280591905117035,0.2112533450126648,1.522329568862915
164,27942,27937,-0.07698141038417816,0.2321006804704666,0.9773059487342834,0.18059325218200684,3.0392186641693115,-0.7275803685188293,1.877084493637085,3.979442834854126,0.31880703568458557,-0.3127218782901764,0.10991929471492767,1.5243794918060303
165,27952,27947,0.04192144423723221,0.3902651071548462,0.9252105951309204,0.16681785881519318,-0.36364805698394775,-1.7200722694396973,1.8776140213012695,3.9812724590301514,0.3197358250617981,-0.1714484542608261,0.11335824429988861,1.522284984588623
166,27962,27957,-0.08020751178264618,0.3087732493877411,0.9787465929985046,0.303596168756485,1.517739176750183,-1.7101341485977173,1.8770333528518677,3.980618476867676,0.32084134221076965,-0.24862410128116608,0.12472986429929733,1.5092048645019531
167,27972,27967,-0.004171176813542843,0.060207657516002655,0.9690194725990295,2.132683753967285,0.4621894955635071,-1.2413185834884644,1.8781362771987915,3.98152756690979,0.32318052649497986,-0.2553258240222931,0.14317138493061066,1.4923397302627563
168,27982,27977,0.08072870224714279,-0.0018341810209676623,0.869619607925415,-0.2938823997974396,-1.4298895597457886,-1.390997290611267,1.8777028322219849,3.9810068607330322,0.3241520822048187,-0.19307348132133484,0.14445263147354126,1.4810372591018677
169,27992,27987,-0.011434187181293964,0.06598035246133804,0.9412067532539368,2.4659149646759033,-4.646550178527832,-0.7754378914833069,1.877446174621582,3.9807896614074707,0.32513538002967834,-0.06585776805877686,0.14286553859710693,1.482024908065796
170,28002,27997,0.16914154589176178,-0.3743788003921509,0.7873745560646057,-3.454120635986328,6.365373611450195,-2.1683523654937744,1.8780211210250854,3.9821627140045166,0.3255966305732727,-0.03447050228714943,0.12543143332004547,1.469555377960205
171,28012,28007,0.15294425189495087,-0.35952308773994446,0.764992356300354,-2.4805667400360107,6.3728437423706055,-1.1322721242904663,1.8776094913482666,3.9821057319641113,0.3262288272380829,-0.0691194012761116,0.06704501807689667,1.4454964399337769
172,28022,28017,-0.06107024475932121,-0.006235193926841021,0.9296982288360596,-4.100688457489014,9.262927055358887,-1.7559980154037476,1.8782752752304077,3.9825539588928223,0.3266857862472534,-0.14653323590755463,0.014923463575541973,1.4319742918014526
173,28032,28027,-0.1462104767560959,0.0812668725848198,1.0332494974136353,-1.6267486810684204,2.01041316986084,-1.071737289428711,1.8787553310394287,3.9832756519317627,0.32696858048439026,-0.19620226323604584,0.03612372279167175,1.429947853088379
174,28042,28037,-0.09646257758140564,0.02526281587779522,0.9600364565849304,-3.4089200496673584,13.382311820983887,-2.011538505554199,1.8795897960662842,3.9825258255004883,0.3293265104293823,-0.35503265261650085,0.0525495707988739,1.417066216468811
175,28052,28047,-0.040552493184804916,0.07539089024066925,1.018905758857727,-0.11163143813610077,8.403949737548828,-1.5297099351882935,1.8797352313995361,3.982679605484009,0.329704225063324,-0.4771522879600525,0.020334580913186073,1.3986365795135498
176,28062,28057,0.07692302018404007,0.025086309760808945,0.9068228602409363,0.7231503129005432,7.664961338043213,-1.341405987739563,1.88063383102417,3.981804609298706,0.33000126481056213,-0.6176663637161255,0.024376677349209785,1.3842893838882446
177,28072,28067,0.10718214511871338,-0.14108608663082123,0.8248605728149414,0.5236051082611084,3.2315609455108643,-0.8841317296028137,1.8804352283477783,3.982117176055908,0.3293224573135376,-0.6189249753952026,0.036081455647945404,1.3731791973114014
178,28082,28077,0.07079636305570602,-0.25238722562789917,0.7738568782806396,0.8649230599403381,-2.112560272216797,-1.6702080965042114,1.8801469802856445,3.9835991859436035,0.3295024335384369,-0.5363149642944336,-0.04309144616127014,1.3781026601791382
179,28092,28087,-0.03855598345398903,-0.14563636481761932,0.9143664240837097,0.9207918047904968,-3.190777063369751,-2.33331561088562,1.8799561262130737,3.9835331439971924,0.3295125365257263,-0.4180695712566376,-0.026077518239617348,1.351838231086731
180,28102,28097,-0.1587221771478653,0.048845283687114716,0.9365021586418152,-0.28874149918556213,-2.5401506423950195,-2.357630729675293,1.8795713186264038,3.983189105987549,0.3302912414073944,-0.308196097612381,-0.02693299762904644,1.3260393142700195
181,28112,28107,-0.3038419485092163,0.19400297105312347,1.0378907918930054,0.8110361099243164,1.0331817865371704,-2.506397247314453,1.8791825771331787,3.9827170372009277,0.3300756812095642,-0.25925561785697937,-0.023860247805714607,1.2982265949249268
182,28122,28117,-0.22070039808750153,0.15834011137485504,1.0263737440109253,-0.08728407323360443,6.5156168937683105,-1.5220845937728882,1.88210129737854,3.98329758644104,0.32979831099510193,-0.5446588397026062,-0.03099731355905533,1.301572322845459
183,28132,28127,-0.10259851813316345,0.19030706584453583,1.0302648544311523,-0.32772889733314514,6.6999640464782715,-1.9426121711730957,1.8838447332382202,3.98479962348938,0.3318125307559967,-0.5980992317199707,-0.04863444343209267,1.2819316387176514
184,28142,28137,-0.2546343207359314,0.2968808710575104,1.0819159746170044,-0.040939152240753174,8.508955955505371,-1.4110651016235352,1.88382089138031,3.9848220348358154,0.33182957768440247,-0.7568800449371338,-0.048243653029203415,1.2896188497543335
185,28152,28147,-0.2589911222457886,0.4719180762767792,0.9405636787414551,0.5795472860336304,7.167147636413574,-2.023097276687622,1.8860971927642822,3.986436605453491,0.33185866475105286,-0.8205757737159729,-0.0406905859708786,1.2717102766036987
186,28162,28157,-0.058576565235853195,0.0749536007642746,0.9725679159164429,0.256666898727417,-10.38250732421875,-1.7313100099563599,1.8870975971221924,3.9862067699432373,0.3318520188331604,-0.8720900416374207,-0.01901904121041298,1.2538946866989136
187,28172,28167,-0.0840693861246109,0.1141405776143074,1.0144027471542358,2.0348987579345703,-4.023902893066406,-1.558237075805664,1.88785719871521,3.9861459732055664,0.33120352029800415,-0.9467467665672302,0.008560887537896633,1.2404369115829468
188,28182,28177,-0.007989615201950073,0.01133432425558567,1.0108747482299805,2.0188803672790527,-6.387246131896973,-1.836628794670105,1.8891323804855347,3.9853827953338623,0.3310660123825073,-0.7487296462059021,0.05496130511164665,1.2266886234283447
189,28192,28187,0.012818785384297371,0.032236676663160324,1.0025089979171753,3.8607006072998047,-12.810782432556152,-0.011958548799157143,1.8901503086090088,3.9852538108825684,0.3310618996620178,-0.8682085871696472,0.08844676613807678,1.2003223896026611
190,28202,28197,-0.10207837074995041,0.260430246591568,0.9707562327384949,-0.7348828911781311,-4.087305545806885,-0.956454336643219,1.8896503448486328,3.9855573177337646,0.330123633146286,-0.6498691439628601,0.03670502454042435,1.2043628692626953
191,28212,28207,-0.0702430009841919,0.703583300113678,1.0873085260391235,1.48258638381958,-10.667031288146973,-0.2112949639558792,1.8908023834228516,3.9858503341674805,0.33009928464889526,-0.5216805338859558,0.11942795664072037,1.2115124464035034
192,28222,28217,0.11758163571357727,0.65018630027771,0.9355223774909973,-0.08293803036212921,-4.944732189178467,-0.48426905274391174,1.8908661603927612,3.985836982727051,0.3301202952861786,-0.3869019150733948,0.13872364163398743,1.2085577249526978
193,28232,28227,0.11299840360879898,-0.054348722100257874,0.8081298470497131,1.426735758781433,-7.765573024749756,-0.1643994003534317,1.8906737565994263,3.9855589866638184,0.32871270179748535,-0.28465384244918823,0.13183912634849548,1.2100898027420044
194,28242,28237,0.038260817527770996,-0.29147934913635254,0.7459381818771362,-3.8122518062591553,4.108125686645508,-0.7841684818267822,1.8916568756103516,3.9868931770324707,0.32850852608680725,-0.23213082551956177,0.10209467262029648,1.2516260147094727
195,28252,28247,0.041874587535858154,-0.055401481688022614,0.9436621069908142,-3.4875552654266357,-0.5330451130867004,-0.6202527284622192,1.8919098377227783,3.9882571697235107,0.32801300287246704,-0.3696729242801666,0.04331820830702782,1.2512577772140503
196,28262,28257,-0.002785711782053113,0.5373314619064331,1.0400904417037964,-3.7049574851989746,2.9115846157073975,-0.9623361825942993,1.8931509256362915,3.986947774887085,0.3272492289543152,-0.4761281907558441,-0.025811726227402687,1.2330262660980225
197,28272,28267,-0.03598451241850853,0.5030364394187927,0.9818408489227295,-2.510178804397583,3.3562729358673096,0.633260190486908,1.894851803779602,3.9882102012634277,0.32465657591819763,-0.4426799714565277,-0.10167304426431656,1.2282063961029053
198,28282,28277,-0.0767451748251915,0.31929445266723633,1.0419539213180542,0.7455377578735352,-1.0694420337677002,0.8857571482658386,1.8949315547943115,3.987506628036499,0.32392945885658264,-0.5216105580329895,-0.10177125036716461,1.2261834144592285
199,28292,28287,-0.06528935581445694,0.05740935727953911,0.9837131500244141,2.3105010986328125,-4.837374210357666,1.4491180181503296,1.8969296216964722,3.988100290298462,0.32310962677001953,-0.39338651299476624,0.004997785668820143,1.214613437652588
200,28302,28297,-0.1385805904865265,0.12254683673381805,0.9570733904838562,2.998328924179077,-4.29253625869751,0.8423832654953003,1.8971755504608154,3.986717462539673,0.3226618766784668,-0.38711273670196533,0.04756544902920723,1.2421894073486328
201,28312,28307,-0.14281627535820007,0.12201166152954102,0.9300827980041504,4.347940444946289,-13.783893585205078,0.5671707987785339,1.8970860242843628,3.9851057529449463,0.3218011260032654,-0.16911698877811432,0.10957250744104385,1.2245773077011108
202,28322,28317,-0.11809303611516953,0.08124373108148575,1.0017759799957275,1.899856448173523,-7.434595108032227,1.0965609550476074,1.8961881399154663,3.9849209785461426,0.32113444805145264,-0.22111034393310547,0.005471736192703247,1.2249433994293213
203,28332,28327,-0.16641680896282196,0.23684555292129517,1.1268333196640015,-0.7229938507080078,-1.9181159734725952,0.5833709836006165,1.8985849618911743,3.985592842102051,0.31951579451560974,-0.06586231291294098,0.010171358473598957,1.213545322418213
204,28342,28337,-0.09840909391641617,0.01798129454255104,0.9955692291259766,-1.0934873819351196,-1.119873046875,1.2693976163864136,1.8984994888305664,3.9854538440704346,0.31883320212364197,-0.027727002277970314,-0.0006896064151078463,1.225071668624878
205,28352,28347,-0.05682140588760376,0.10155817121267319,1.0772430896759033,-1.947789192199707,0.11192642152309418,1.113141417503357,1.8998202085494995,3.9860117435455322,0.318185955286026,0.06340465694665909,-0.020786583423614502,1.2503563165664673
206,28362,28357,-0.13322338461875916,0.18524885177612305,1.0396294593811035,-2.064431667327881,-0.021645547822117805,0.522508978843689,1.900073766708374,3.986556053161621,0.3176092207431793,-0.038822438567876816,0.029807310551404953,1.2705737352371216
207,28372,28367,-0.10199614614248276,0.1214669719338417,1.0476300716400146,0.3670569062232971,4.056275367736816,0.6245303153991699,1.9026979207992554,3.986574411392212,0.31470412015914917,-0.1424160748720169,0.018152713775634766,1.2777817249298096
208,28382,28377,-0.007682895753532648,-0.06250166147947311,0.9736340045928955,1.22390878200531,0.8983824849128723,1.5500949621200562,1.9033209085464478,3.9864814281463623,0.31406378746032715,-0.15183651447296143,0.03891003131866455,1.2896784543991089
209,28392,28387,-0.04949507117271423,0.07518042623996735,1.064747929573059,0.19688577950000763,0.33719053864479065,1.0471346378326416,1.9043163061141968,3.986361026763916,0.313430517911911,-0.31692951917648315,0.04484394192695618,1.3035664558410645
210,28402,28397,-0.02308037504553795,0.012319761328399181,1.035635232925415,0.26684972643852234,-4.205511569976807,1.7798247337341309,1.9069157838821411,3.98683762550354,0.31738412380218506,-0.16157320141792297,0.047769512981176376,1.3416739702224731
211,28412,28407,-0.005425101146101952,0.10422071814537048,1.056910753250122,0.40520063042640686,-6.5051116943359375,0.6366966962814331,1.9068384170532227,3.9873368740081787,0.3172297775745392,0.026375744491815567,0.04710567742586136,1.3707988262176514
212,28422,28417,-0.02852252684533596,-0.06228630244731903,1.015913486480713,0.4981044828891754,-5.828936576843262,0.8098963499069214,1.906501054763794,3.988630533218384,0.3171490430831909,-0.09078731387853622,-0.018276600167155266,1.3858036994934082
213,28432,28427,-0.004660656210035086,-0.0393584668636322,1.012550711631775,3.2240915298461914,-8.682814598083496,1.4695218801498413,1.908868670463562,3.989068031311035,0.3161790072917938,-0.0030142131727188826,0.011232607997953892,1.4003407955169678
214,28442,28437,-0.032347820699214935,-0.015456944704055786,1.0056710243225098,1.9523957967758179,-5.017058372497559,0.7208454012870789,1.9101072549819946,3.9896013736724854,0.31591498851776123,0.043485239148139954,-0.10965648293495178,1.391011118888855
215,28452,28447,-0.013656346127390862,-0.1613747477531433,0.9314932823181152,1.4624918699264526,-4.863604545593262,0.7020816802978516,1.9106703996658325,3.9903604984283447,0.3156523108482361,0.13223767280578613,-0.07201069593429565,1.4050906896591187
216,28462,28457,0.02972382679581642,-0.05296355113387108,0.9847994446754456,3.0726354122161865,-1.988793134689331,0.26152142882347107,1.910636305809021,3.9894604682922363,0.31260496377944946,0.2793877124786377,0.05705336853861809,1.4225788116455078
217,28472,28467,-0.04334734007716179,-0.20184750854969025,0.9050384759902954,2.882413864135742,1.2755353450775146,1.0189523696899414,1.9113292694091797,3.9901280403137207,0.31209883093833923,0.1365044116973877,0.10920261591672897,1.4324320554733276
218,28482,28477,-0.008195404894649982,-0.1536480337381363,0.9924789071083069,5.263254165649414,-1.648294448852539,1.1827119588851929,1.9128589630126953,3.9891574382781982,0.311526894569397,0.23698194324970245,0.17086370289325714,1.4454991817474365
219,28492,28487,-0.010268456302583218,-0.15699943900108337,0.9557557702064514,3.249022960662842,3.523183584213257,1.0539700984954834,1.9141267538070679,3.9904260635375977,0.31084299087524414,0.14941729605197906,0.15840786695480347,1.4693723917007446
220,28502,28497,-0.029631653800606728,-0.1453617364168167,0.9110540151596069,1.04373300075531,5.34961462020874,0.08441013842821121,1.9130553007125854,3.991518020629883,0.3141028583049774,0.1797676831483841,0.19225068390369415,1.5105935335159302
221,28512,28507,0.07695788145065308,-0.2383841723203659,0.938957154750824,0.2735256552696228,2.2642393112182617,0.0706803947687149,1.9139246940612793,3.992021322250366,0.3136030435562134,0.12914566695690155,0.20907722413539886,1.503631353378296
222,28522,28517,0.07813623547554016,-0.29415154457092285,0.9407969117164612,-1.6205143928527832,1.5753593444824219,0.5930193066596985,1.9149587154388428,3.9920074939727783,0.31300169229507446,0.10054793953895569,0.191451296210289,1.5171213150024414
223,28532,28527,-0.050021711736917496,-0.18737757205963135,0.9781705737113953,-0.6854137182235718,-0.4254664182662964,0.4116843640804291,1.9160670042037964,3.991410493850708,0.3129624128341675,0.11289992928504944,0.23971876502037048,1.5429898500442505
224,28542,28537,0.05021113157272339,-0.13501113653182983,0.9271827340126038,-2.4559154510498047,2.2478013038635254,-0.25875070691108704,1.9174805879592896,3.9933321475982666,0.3122583329677582,0.039422739297151566,0.11731477826833725,1.5307230949401855
225,28552,28547,0.01173574198037386,-0.17718201875686646,0.919718325138092,-3.4667365550994873,1.129247784614563,-0.137839213013649,1.918094515800476,3.9933550357818604,0.3115234375,0.13157641887664795,0.0754108801484108,1.5626059770584106
226,28562,28557,0.0019536991603672504,-0.08600793778896332,0.9906885027885437,-1.2397648096084595,0.146207794547081,0.18290983140468597,1.917830228805542,3.993866443634033,0.31396132707595825,0.13067786395549774,0.04245218262076378,1.5476380586624146
227,28572,28567,0.05784199386835098,-0.08787243813276291,0.9770297408103943,0.24053233861923218,4.304251194000244,0.5055003762245178,1.9182510375976562,3.993589162826538,0.31331518292427063,0.15474283695220947,0.03641422837972641,1.5509190559387207
228,28582,28577,0.04660278931260109,-0.09913042187690735,1.013892412185669,3.133315324783325,-0.14534153044223785,0.3114294707775116,1.9201619625091553,3.991684913635254,0.31253165006637573,0.022074228152632713,0.14515537023544312,1.5438642501831055
229,28592,28587,0.09500488638877869,-0.05876981467008591,1.0009715557098389,1.342237949371338,-0.029675079509615898,0.46548405289649963,1.9216036796569824,3.992422580718994,0.31172940135002136,-0.01715283840894699,0.18876296281814575,1.5401124954223633
230,28602,28597,0.00023537539527751505,0.15699556469917297,1.111068844795227,2.9217541217803955,3.424539804458618,-0.05990339815616608,1.9219721555709839,3.992145299911499,0.3118297755718231,0.037772342562675476,0.22687074542045593,1.5500541925430298
231,28612,28607,0.010924624279141426,-0.007769738789647818,1.0535860061645508,1.1930052042007446,4.403712749481201,0.740260124206543,1.922135829925537,3.991870641708374,0.3112875521183014,0.11547599732875824,0.26790714263916016,1.6126264333724976
232,28622,28617,0.0787646621465683,-0.06260529905557632,0.9502602815628052,-1.0320755243301392,-1.8334296941757202,0.3410888910293579,1.9231221675872803,3.9945075511932373,0.31074655055999756,0.0675995871424675,0.18721790611743927,1.6350457668304443
233,28632,28627,-0.022401465103030205,-0.03074544295668602,1.033640742301941,-4.1804986000061035,-2.519667625427246,0.5938014388084412,1.9237455129623413,3.994208812713623,0.31068652868270874,0.1168716549873352,0.22478407621383667,1.6471678018569946
234,28642,28637,-0.05353771150112152,0.0859343484044075,1.0864681005477905,-4.915333271026611,-1.7544255256652832,-0.23839181661605835,1.9249942302703857,3.995253801345825,0.310164213180542,0.08910815417766571,0.15434333682060242,1.6555299758911133
235,28652,28647,-0.009640165604650974,-0.03982944414019585,1.0217666625976562,-4.481863498687744,2.9511592388153076,-0.5314242839813232,1.926016926765442,3.9947152137756348,0.30973976850509644,0.08277744054794312,0.06684022396802902,1.6245936155319214
236,28662,28657,0.03329402208328247,0.11984753608703613,1.1558059453964233,-2.365020990371704,1.0111870765686035,-0.7606779932975769,1.927342176437378,3.995021104812622,0.3131025731563568,0.06755867600440979,0.0222797691822052,1.6016300916671753
237,28672,28667,-0.07101485133171082,0.16041535139083862,1.0847160816192627,-0.8900685906410217,1.6856101751327515,0.09762948006391525,1.9282971620559692,3.99446439743042,0.31304389238357544,0.052919164299964905,-0.0028249116148799658,1.6040478944778442
238,28682,28677,0.0279017835855484,0.006859883666038513,1.0159642696380615,1.3265466690063477,2.4356884956359863,0.16954123973846436,1.929229497909546,3.9934186935424805,0.3130919933319092,0.05253921449184418,0.003894781693816185,1.6087898015975952
239,28692,28687,-0.061945706605911255,-0.05763233080506325,0.9903165698051453,2.4000699520111084,1.17781662940979,-0.20165391266345978,1.9300174713134766,3.993987560272217,0.315520316362381,0.032107796519994736,0.028557663783431053,1.6025136709213257
240,28702,28697,0.0009911153465509415,-0.04573656991124153,0.9973515868186951,3.0699551105499268,1.6222469806671143,-0.2851739823818207,1.9308643341064453,3.9943532943725586,0.3157969117164612,0.01598648726940155,0.06633022427558899,1.6315025091171265
241,28712,28707,-0.07800614833831787,0.05375223979353905,1.017275333404541,2.176286458969116,-0.09082531183958054,-0.17351028323173523,1.9323914051055908,3.994565725326538,0.3160210847854614,-0.060598187148571014,0.11780190467834473,1.6189157962799072
242,28722,28717,-0.11733114719390869,-0.003546580672264099,1.0670121908187866,1.3403233289718628,-0.5223949551582336,-0.5607926249504089,1.9326688051223755,3.9952139854431152,0.3164621889591217,0.060712434351444244,0.15647511184215546,1.6542742252349854
243,28732,28727,-0.10172459483146667,0.2428930401802063,1.0257242918014526,-1.6420624256134033,-0.9076712727546692,-0.03279983997344971,1.9350357055664062,3.994758129119873,0.3172774612903595,-0.07718391716480255,0.16842582821846008,1.6411945819854736
244,28742,28737,-0.0940217524766922,0.2232827991247177,1.0647563934326172,-1.8275363445281982,4.76118803024292,-1.1699142456054688,1.9345340728759766,3.9959800243377686,0.317857950925827,-0.0036926520988345146,0.15091951191425323,1.6611324548721313
245,28752,28747,-0.12381881475448608,0.18293270468711853,1.0608575344085693,-1.4311126470565796,1.367659568786621,-1.4539934396743774,1.9351141452789307,3.9955365657806396,0.3183552026748657,-0.0527738519012928,0.11427459120750427,1.6469075679779053
246,28762,28757,0.06344852596521378,-0.14907723665237427,0.9121251702308655,-2.3728997707366943,-6.566147327423096,-1.097428321838379,1.9361869096755981,3.995742082595825,0.3207091689109802,-0.16111662983894348,0.06738820672035217,1.6705236434936523
247,28772,28767,-0.30745190382003784,0.31132301688194275,1.0064809322357178,-4.833637714385986,2.676194906234741,-2.4962615966796875,1.9382808208465576,3.9978883266448975,0.3213419020175934,-0.1336382031440735,0.026544170454144478,1.68072509765625
248,28782,28777,-0.426287978887558,0.630157470703125,1.0807416439056396,-3.1684861183166504,1.6809853315353394,-2.6945998668670654,1.9393634796142578,3.998357057571411,0.32196882367134094,-0.11766630411148071,0.06426054984331131,1.6582170724868774
249,28792,28787,-0.14256635308265686,0.195928156375885,1.021334171295166,0.9257846474647522,-2.3063783645629883,-1.2900710105895996,1.939754605293274,3.9971930980682373,0.32278046011924744,-0.16394130885601044,0.03702513873577118,1.6465468406677246
250,28802,28797,-0.04471566528081894,0.009340370073914528,1.017411231994629,1.2855299711227417,4.307062149047852,-2.0980794429779053,1.9410368204116821,3.9964985847473145,0.32347482442855835,-0.023143045604228973,0.04851897805929184,1.616098403930664
251,28812,28807,0.0727745071053505,-0.1005413830280304,0.9048924446105957,1.5021127462387085,3.887451171875,-1.825025200843811,1.9406445026397705,3.997248888015747,0.32430219650268555,-0.16059035062789917,0.066263847053051,1.5906575918197632
252,28822,28817,0.1157994419336319,0.10680525749921799,0.9492559432983398,1.6825906038284302,-3.188447952270508,-1.6523042917251587,1.942245364189148,3.9970500469207764,0.32484734058380127,-0.29000306129455566,-0.07059717178344727,1.5978304147720337
253,28832,28827,-0.06207277625799179,-0.19569502770900726,0.8311738967895508,2.6725945472717285,-7.292535781860352,-1.9791816473007202,1.9443984031677246,3.998624324798584,0.3274743854999542,-0.3917277753353119,0.03795794025063515,1.589820384979248
254,28842,28837,0.008538897149264812,-0.1597200483083725,0.9015217423439026,-1.1961441040039062,-3.5024254322052,-2.5202674865722656,1.9474267959594727,3.9987990856170654,0.32785364985466003,-0.23355670273303986,0.03158572316169739,1.5892550945281982
255,28852,28847,-0.09762396663427353,-0.021293018013238907,0.9212222099304199,0.14786390960216522,-3.771740198135376,-2.797694444656372,1.947167158126831,3.998157501220703,0.3285163640975952,-0.13261596858501434,0.015980998054146767,1.5609045028686523
256,28862,28857,-0.17137835919857025,0.0023309988901019096,0.9039126634597778,-1.8082937002182007,-2.4556539058685303,-1.8981244564056396,1.9475449323654175,3.998903751373291,0.32939866185188293,-0.12369222193956375,0.008566761389374733,1.5343596935272217
257,28872,28867,-0.0779203549027443,0.22028842568397522,1.0372965335845947,-2.0198183059692383,1.383092999458313,-2.7396442890167236,1.9488576650619507,3.999272584915161,0.3296789526939392,-0.044158484786748886,0.0009144467767328024,1.5268875360488892
258,28882,28877,-0.06573745608329773,0.5582544803619385,1.0216503143310547,2.011089563369751,-3.827125072479248,-3.0285589694976807,1.948996901512146,3.999227285385132,0.3300629258155823,-0.12683641910552979,-0.07231003791093826,1.5013599395751953
259,28892,28887,-0.11338381469249725,0.24100008606910706,0.9840779900550842,-0.7972052097320557,-3.16916823387146,-3.799762010574341,1.9507501125335693,4.000271320343018,0.32914435863494873,0.11378307640552521,-0.02905278094112873,1.4848421812057495
260,28902,28897,-0.14493444561958313,0.17078708112239838,0.9921301603317261,2.0941107273101807,-4.185703754425049,-1.7787978649139404,1.9498707056045532,3.99997615814209,0.3296036422252655,0.1498154252767563,0.0022304952144622803,1.488347053527832
261,28912,28907,-0.051455724984407425,-0.009241480380296707,0.9437857866287231,4.461790561676025,-6.02394437789917,-2.273081064224243,1.9509631395339966,4.0003132820129395,0.32981038093566895,0.23588761687278748,0.05994698032736778,1.405992865562439
262,28922,28917,-0.034821100533008575,-0.014749471098184586,0.9079508781433105,1.6917858123779297,-1.7101818323135376,-2.9549713134765625,1.9512357711791992,4.000228404998779,0.3300037384033203,0.21197210252285004,0.08223998546600342,1.4234768152236938
263,28932,28927,-0.4014543890953064,0.12685687839984894,0.9659743905067444,-5.230603218078613,10.559431076049805,-4.839504241943359,1.952239751815796,4.000680923461914,0.3304727375507355,0.1068696603178978,0.07065669447183609,1.4060232639312744
264,28942,28937,-0.3502602279186249,0.3538099527359009,1.0676441192626953,-3.1026885509490967,9.229105949401855,-3.3372724056243896,1.953711986541748,4.00022029876709,0.33045342564582825,0.09606105834245682,0.11079141497612,1.3741912841796875
265,28952,28947,-0.18538333475589752,0.14183060824871063,0.9831448793411255,-4.207159519195557,10.634288787841797,-2.9398553371429443,1.954452633857727,3.9997377395629883,0.33060264587402344,0.0006243916577659547,0.02450733259320259,1.3326900005340576
266,28962,28957,0.014944853261113167,0.033863365650177,0.9219563007354736,-2.3783724308013916,6.435125827789307,-2.7184598445892334,1.9544618129730225,4.0006279945373535,0.3333163559436798,-0.2155904769897461,-0.005025179591029882,1.3093534708023071
267,28972,28967,0.12429382652044296,-0.0707552433013916,0.9465353488922119,2.9035212993621826,-1.6394068002700806,-2.9565517902374268,1.9568495750427246,4.000441551208496,0.3334094285964966,-0.1022566556930542,-0.010706866160035133,1.3203356266021729
268,28982,28977,0.06610352545976639,-0.20606385171413422,0.8297629952430725,3.524874448776245,-9.729642868041992,-3.361339807510376,1.9569008350372314,4.001132965087891,0.3336978256702423,-0.20141242444515228,-0.006518488749861717,1.281386137008667
269,28992,28987,-0.11322770267724991,-0.22970682382583618,0.8036666512489319,4.177194118499756,-13.27092456817627,-2.0105302333831787,1.958304762840271,4.001028537750244,0.3333699405193329,0.11556597799062729,0.04039919003844261,1.2352418899536133
270,29002,28997,-0.07146194577217102,-0.23941537737846375,0.9225371479988098,4.174539089202881,-16.120193481445312,-1.7848875522613525,1.9573237895965576,4.000824451446533,0.3333849310874939,-0.11371304839849472,0.05226635932922363,1.2710235118865967
271,29012,29007,-0.05193638429045677,-0.06864437460899353,0.9500190615653992,0.646522581577301,-6.063008785247803,-2.568622350692749,1.9604666233062744,4.001597881317139,0.3329053521156311,0.012055031023919582,0.003663579700514674,1.247994065284729
272,29022,29017,-0.17876698076725006,0.14626725018024445,0.9043344855308533,-4.058541774749756,6.268617630004883,-2.6955807209014893,1.9613194465637207,4.001714706420898,0.33254119753837585,0.062198612838983536,0.01631634309887886,1.204574704170227
273,29032,29027,-0.11041001975536346,0.27984246611595154,1.0114388465881348,-1.9702006578445435,0.43673330545425415,-2.5382144451141357,1.9627315998077393,4.001801013946533,0.3329894244670868,-0.04580369591712952,-0.004787896294146776,1.1795496940612793
274,29042,29037,0.08525583893060684,0.004159531556069851,0.9842401146888733,-0.2677023708820343,0.5959778428077698,-3.2135016918182373,1.965060830116272,4.002436637878418,0.3324909806251526,-0.02126540243625641,0.061697542667388916,1.18886399269104
275,29052,29047,0.03274518996477127,0.009183824993669987,1.0278666019439697,0.13553541898727417,-4.521905899047852,-2.9443247318267822,1.9661695957183838,4.001923084259033,0.33212995529174805,0.04921398311853409,0.0569114089012146,1.208095908164978
276,29062,29057,0.010539756156504154,-0.03206419199705124,0.9310682415962219,1.1412758827209473,-6.087829113006592,-2.455949544906616,1.9648503065109253,4.003719806671143,0.3350198566913605,0.25436753034591675,-0.023011010140180588,1.183933138847351
277,29072,29067,-0.03196272626519203,0.05405530706048012,0.9987068772315979,2.3884575366973877,-6.2986955642700195,-2.731074094772339,1.9656400680541992,4.0036845207214355,0.3348273038864136,0.3790583908557892,-0.0036100728902965784,1.1434744596481323
278,29082,29077,0.016037538647651672,0.28810253739356995,0.8972645998001099,4.138926982879639,-9.620232582092285,-1.7944018840789795,1.96684992313385,4.0039262771606445,0.3345523178577423,0.41829249262809753,0.02784799225628376,1.089287519454956
279,29092,29087,-0.015251991339027882,0.039397187530994415,0.9115390777587891,0.05529005825519562,-1.9044921398162842,-2.601261615753174,1.968260645866394,4.00293493270874,0.33160561323165894,0.43712207674980164,0.053231172263622284,1.062728762626648
280,29102,29097,0.028696920722723007,0.1221003532409668,0.9419083595275879,-0.8870580792427063,1.5925344228744507,-2.9709231853485107,1.96918785572052,4.002804756164551,0.33099889755249023,0.314342200756073,0.052972473204135895,1.033034324645996
281,29112,29107,0.009269632399082184,0.05347319692373276,0.9518961310386658,0.8082966804504395,-3.302140951156616,-0.9422551989555359,1.9711319208145142,4.004374027252197,0.3303375840187073,0.3932964503765106,-0.1118045300245285,1.0099915266036987
282,29122,29117,-0.03594261407852173,0.05696503445506096,0.9917742013931274,-0.40049710869789124,3.0079944133758545,-1.4846382141113281,1.9718685150146484,4.004426002502441,0.32806113362312317,0.3762165606021881,-0.01239976566284895,0.9976738095283508
283,29132,29127,-0.1819363385438919,0.3703085780143738,0.9818120002746582,0.9958134889602661,6.084095001220703,-2.3351361751556396,1.9733251333236694,4.004571437835693,0.32727041840553284,0.32932811975479126,-0.07384596765041351,1.0268208980560303
284,29142,29137,-0.12134122103452682,0.23337627947330475,0.9026050567626953,2.0622425079345703,3.083826780319214,-2.3044564723968506,1.974327564239502,4.006178379058838,0.3264215886592865,0.2794142961502075,-0.01965375244617462,1.0315386056900024
285,29152,29147,0.0719347819685936,-0.07052712142467499,0.9290023446083069,1.5331225395202637,-4.283691883087158,-2.3792219161987305,1.9743207693099976,4.005702018737793,0.3256651759147644,0.35747992992401123,0.03998764976859093,1.0080430507659912
286,29162,29157,-0.0795050859451294,0.2786637246608734,1.080496072769165,1.419210433959961,1.2643539905548096,-2.5267813205718994,1.975193977355957,4.006154537200928,0.32563650608062744,0.24265483021736145,0.09803526103496552,0.9959667921066284
287,29172,29167,-0.10172425955533981,0.25750553607940674,1.0885090827941895,3.350365161895752,-1.196947455406189,-1.7526137828826904,1.9760292768478394,4.005046367645264,0.32490217685699463,0.3763660788536072,0.15788891911506653,0.9768826365470886
288,29182,29177,-0.024667760357260704,-0.04437057673931122,0.9869629740715027,2.3085825443267822,-0.2593984603881836,-1.433422327041626,1.9769243001937866,4.005394458770752,0.3242470324039459,0.43289172649383545,0.2197294533252716,0.9264945983886719
289,29192,29187,-0.07224231958389282,0.11035981774330139,1.006192922592163,-0.5435991883277893,-0.45083341002464294,-0.9948459267616272,1.9793576002120972,4.00547981262207,0.32029998302459717,0.24723581969738007,0.18477435410022736,0.942335307598114
290,29202,29197,-0.07473742961883545,0.0875607505440712,1.011899709701538,-3.5258586406707764,0.5532456636428833,-1.6096222400665283,1.980366587638855,4.005371570587158,0.3193989396095276,0.39003488421440125,0.18209238350391388,0.8966492414474487
291,29212,29207,-0.08014136552810669,0.6931139826774597,1.0493969917297363,-4.939009189605713,0.36127129197120667,-1.2474538087844849,1.9802978038787842,4.004556179046631,0.31867000460624695,0.4074721336364746,0.13478749990463257,0.8700634241104126
292,29222,29217,-0.02050217241048813,0.557345449924469,1.1599723100662231,-2.6877243518829346,3.944624185562134,-0.806447446346283,1.980780005455017,4.003763675689697,0.31541046500205994,0.3395398259162903,0.07804272323846817,0.8347373008728027
293,29232,29227,-0.05346200242638588,0.1117655336856842,1.0663353204727173,-4.114497661590576,6.558213233947754,0.5220530033111572,1.9823426008224487,4.005174160003662,0.31453731656074524,0.3465014398097992,-0.035923756659030914,0.7907679080963135
294,29242,29237,0.06345225125551224,0.08667772263288498,1.057881236076355,1.4985758066177368,1.247083067893982,0.363542765378952,1.9833284616470337,4.0052056312561035,0.3137668967247009,0.4096897840499878,0.03003011643886566,0.8210793137550354
295,29252,29247,0.06937326490879059,-0.22133968770503998,0.9538283348083496,4.729428291320801,-0.7280202507972717,0.9425204396247864,1.9844048023223877,4.003673076629639,0.31301820278167725,0.23730501532554626,0.07214553654193878,0.7978174090385437
296,29262,29257,0.009924815036356449,-0.09246015548706055,0.9926950335502625,5.436093807220459,-0.25744545459747314,0.4068993926048279,1.985103964805603,4.004350185394287,0.3133810758590698,0.27990084886550903,0.08611603081226349,0.8246246576309204
297,29272,29267,-0.041275326162576675,0.00951396580785513,1.0707610845565796,4.47891092300415,0.036958832293748856,0.510021984577179,1.9854316711425781,4.003764629364014,0.31275177001953125,0.3107030987739563,0.11021679639816284,0.813296377658844
298,29282,29277,0.012489788234233856,-0.07094958424568176,0.9487378001213074,0.9495860934257507,2.8488810062408447,0.9548125267028809,1.9858803749084473,4.005073547363281,0.31217867136001587,0.3354130983352661,0.11265585571527481,0.8359812498092651
299,29292,29287,-0.06313902884721756,0.08295663446187973,1.0439640283584595,-0.4208952486515045,-2.5708582401275635,1.0538315773010254,1.9860678911209106,4.004971504211426,0.3109055161476135,0.40637657046318054,0.1518159657716751,0.8389991521835327
300,29302,29297,-0.13958847522735596,0.12402980774641037,1.0956555604934692,-0.6601988077163696,-4.094703197479248,-0.5283202528953552,1.9889882802963257,4.005081653594971,0.3101866841316223,0.1706380397081375,0.15984459221363068,0.8078822493553162
301,29312,29307,-0.15025900304317474,0.2875625193119049,1.1560240983963013,0.35717034339904785,3.4606823921203613,0.7645416855812073,1.9888300895690918,4.004826068878174,0.30994367599487305,0.34781479835510254,0.16260303556919098,0.8232943415641785
302,29322,29317,-0.009404540993273258,-0.01562159787863493,0.9826717972755432,-0.3119044601917267,-0.3029538094997406,1.9001353979110718,1.989136815071106,4.003801345825195,0.31269946694374084,0.300496906042099,0.10535908490419388,0.8351582288742065
303,29332,29327,0.003459863131865859,0.2220790684223175,1.0439138412475586,0.6067661046981812,-1.0973491668701172,1.4883062839508057,1.990067958831787,4.005374908447266,0.3125617206096649,0.35781899094581604,0.12772831320762634,0.8171091675758362
304,29342,29337,-0.04049443453550339,0.1907750517129898,1.069200038909912,1.307161569595337,-2.311471939086914,1.302162528038025,1.9900860786437988,4.004909038543701,0.31246417760849,0.25948959589004517,0.1559884250164032,0.8430776596069336
305,29352,29347,-0.13049210608005524,0.1473851054906845,1.1033605337142944,1.922411561012268,4.511651992797852,0.2944628596305847,1.9909316301345825,4.005157947540283,0.3124566674232483,0.16368113458156586,0.11904805898666382,0.8555403351783752
306,29362,29357,0.02356264553964138,0.0413338840007782,1.009364366531372,1.7649543285369873,2.431931257247925,-0.44766849279403687,1.9923444986343384,4.006486415863037,0.31190818548202515,0.13353820145130157,0.17620821297168732,0.9075291156768799
307,29372,29367,-0.03805723786354065,0.3737266957759857,1.1057571172714233,1.2810453176498413,-1.4439054727554321,0.015050812624394894,1.993206262588501,4.0057148933410645,0.31195223331451416,0.037554942071437836,0.22702106833457947,0.9096627831459045
308,29382,29377,-0.033640433102846146,0.06620578467845917,1.0636651515960693,1.996042251586914,-4.324814319610596,-0.2303546816110611,1.9931910037994385,4.006192684173584,0.31220337748527527,0.1501522660255432,0.27458465099334717,0.8788344860076904
309,29392,29387,-0.045686591416597366,0.09948187321424484,1.050155758857727,1.5669596195220947,-0.2866494953632355,-0.27410516142845154,1.9919381141662598,4.004531383514404,0.30882713198661804,0.2824121415615082,0.3173675835132599,0.8564568758010864
310,29402,29397,-0.0026337008457630873,-0.0543145127594471,0.9175187349319458,-2.0932021141052246,-4.0367889404296875,0.7453113198280334,1.9926124811172485,4.005034446716309,0.30886366963386536,0.1408487856388092,0.32987403869628906,0.8120627999305725
311,29412,29407,-0.16018374264240265,0.15698771178722382,1.0814930200576782,-1.8349502086639404,2.232071876525879,0.29173222184181213,1.9941922426223755,4.004497528076172,0.30873534083366394,0.0937974825501442,0.3088359534740448,0.8341583013534546
312,29422,29417,-0.0710027664899826,0.00995354913175106,0.9884297251701355,-4.117898941040039,3.5386765003204346,-0.45006871223449707,1.9946311712265015,4.004009246826172,0.3080996572971344,0.09819323569536209,0.28547486662864685,0.8161274194717407
313,29432,29427,-0.13980118930339813,0.046762898564338684,1.0279080867767334,-3.708482265472412,3.5460050106048584,-0.1650739163160324,1.9946489334106445,4.004666805267334,0.3082379400730133,0.17102085053920746,0.23824328184127808,0.8425735831260681
314,29442,29437,-0.12152204662561417,0.12519340217113495,1.104872226715088,-1.9809682369232178,2.1711416244506836,-0.37056609988212585,1.9949395656585693,4.0051093101501465,0.30831125378608704,-0.0019338851561769843,0.20006850361824036,0.8833273649215698
315,29452,29447,0.02126374840736389,0.03186476603150368,0.9329525828361511,-1.7149537801742554,1.5824412107467651,-0.38426658511161804,1.996772050857544,4.0056681632995605,0.3032747209072113,0.08731147646903992,0.09416435658931732,0.8884971737861633
316,29462,29457,-0.020440898835659027,0.2592415511608124,1.0432630777359009,-4.0667243003845215,6.345053672790527,-1.101016879081726,1.9958971738815308,4.007037162780762,0.30337199568748474,0.06571758538484573,0.06680289655923843,0.9054598808288574
317,29472,29467,-0.06965918093919754,0.511696994304657,1.248160481452942,0.5315470099449158,-3.871058225631714,-1.6699755191802979,1.997571587562561,4.007231712341309,0.3030086159706116,-0.009769015945494175,0.06153964251279831,0.9065790772438049
318,29482,29477,-0.11033125966787338,0.20153865218162537,0.9949479699134827,3.84702205657959,-3.867814540863037,-0.7908498644828796,1.9988877773284912,4.007490158081055,0.30297568440437317,0.016010843217372894,0.27013295888900757,0.8692845702171326
319,29492,29487,-0.11300771683454514,0.12319779396057129,1.0422472953796387,2.593214750289917,-3.533374786376953,0.7420575618743896,1.9985318183898926,4.005126476287842,0.29889968037605286,-0.10065586864948273,0.24802321195602417,0.8614913821220398
320,29502,29497,-0.09104927629232407,0.19268712401390076,1.0998157262802124,2.6908113956451416,1.6397730112075806,0.031927309930324554,2.001149892807007,4.005792617797852,0.29856956005096436,0.07904718816280365,0.1477576047182083,0.9095211625099182
321,29512,29507,-0.00799485482275486,0.3953384459018707,1.0644826889038086,0.7371174693107605,4.713956832885742,-1.0051523447036743,2.000770330429077,4.0083794593811035,0.2986545264720917,-0.04282904416322708,0.18824182450771332,0.9600913524627686
322,29522,29517,0.005126609932631254,0.048778872936964035,1.0170469284057617,-1.4232624769210815,4.738180160522461,-1.74201500415802,2.0025908946990967,4.008792400360107,0.2973511815071106,0.05179540440440178,0.19974514842033386,0.974531352519989
323,29532,29527,0.16677036881446838,-0.1320262849330902,0.8861927390098572,-0.7574002146720886,-2.6674180030822754,-1.1990865468978882,2.002314329147339,4.009152412414551,0.2974246144294739,0.1764501929283142,0.17628635466098785,0.9616455435752869
324,29542,29537,0.08101579546928406,0.015679458156228065,1.0167065858840942,0.15084326267242432,-2.6695120334625244,-2.5007729530334473,2.0020387172698975,4.009173393249512,0.2974918484687805,0.11672919243574142,0.1622604876756668,0.9844180345535278
325,29552,29547,0.06268613040447235,-0.1158522292971611,0.9628514051437378,-0.3448697328567505,-2.2329459190368652,-1.5811858177185059,2.003478527069092,4.010002136230469,0.29657959938049316,0.03946628421545029,0.2391115427017212,0.9328609108924866
326,29562,29557,0.016303135082125664,-0.04064544290304184,0.9514158368110657,1.5264397859573364,-1.5317589044570923,-0.9895700812339783,2.005077600479126,4.009768486022949,0.2963525950908661,0.04653408005833626,0.24958713352680206,0.9643296003341675
327,29572,29567,0.07379906624555588,-0.2700122594833374,0.9332160353660583,-0.13957269489765167,5.783996105194092,-1.7621277570724487,2.005993127822876,4.009324073791504,0.2961067855358124,0.03655831143260002,0.20362360775470734,0.909639835357666
328,29582,29577,0.04268522933125496,0.054020024836063385,1.0733619928359985,0.8599463105201721,2.936161518096924,0.11495792120695114,2.0072038173675537,4.00982141494751,0.29584065079689026,0.10002797842025757,0.18871822953224182,0.9139766693115234
329,29592,29587,0.09961266070604324,0.7519646883010864,0.9794474840164185,1.4143503904342651,-1.9859706163406372,-0.5912100672721863,2.007197141647339,4.009881973266602,0.29515010118484497,0.11694670468568802,0.26413223147392273,0.9522366523742676
330,29602,29597,0.1096668690443039,0.2732938528060913,0.9535274505615234,-0.8403210639953613,-1.4581540822982788,-1.329970121383667,2.0076889991760254,4.010032653808594,0.294905424118042,0.16866540908813477,0.2598409056663513,0.9446675181388855
331,29612,29607,-0.0392586812376976,-0.03252224251627922,1.0434234142303467,-0.9838699698448181,-1.8968273401260376,-0.9046775698661804,2.008007287979126,4.010059833526611,0.2946578562259674,-0.02337619476020336,0.23979730904102325,0.9280736446380615
332,29622,29617,0.09567005932331085,-0.14876851439476013,0.9786112308502197,-0.6422668695449829,0.1154383048415184,-0.6587340831756592,2.009925127029419,4.0101118087768555,0.2928199768066406,0.036797862499952316,0.2130734920501709,0.9561642408370972
333,29632,29627,0.159263476729393,-0.1664932519197464,0.9536489844322205,-2.8371739387512207,-0.14612610638141632,-1.2391899824142456,2.010723829269409,4.010847091674805,0.2924797534942627,0.07862921059131622,0.17620475590229034,0.9636688828468323
334,29642,29637,0.02612205594778061,0.6785290241241455,1.1017999649047852,-0.7935642600059509,-3.5953621864318848,-0.6237530708312988,2.0108203887939453,4.0100417137146,0.2921115458011627,0.06969845294952393,0.1307743489742279,0.9088636636734009
335,29652,29647,0.04520091041922569,0.46893417835235596,1.0710656642913818,0.026640521362423897,-1.493390679359436,-1.3768248558044434,2.012249708175659,4.010959148406982,0.29046526551246643,0.24231305718421936,0.11432573944330215,0.9168638586997986
336,29662,29657,0.025957096368074417,-0.032331403344869614,0.9960514307022095,0.022188978269696236,1.891271710395813,-0.9078851938247681,2.0118610858917236,4.01176643371582,0.29015281796455383,0.06247907131910324,0.19361092150211334,0.9440664649009705
337,29672,29667,0.08141911029815674,-0.19673964381217957,0.9445352554321289,0.8706436157226562,1.524516224861145,-0.7422078251838684,2.014362335205078,4.011124610900879,0.2896675765514374,0.02296697534620762,0.18807967007160187,0.9199637770652771
338,29682,29677,0.08303423970937729,-0.17641206085681915,0.9878273010253906,0.08440086245536804,5.921947002410889,-0.6323547959327698,2.0156242847442627,4.011362075805664,0.2865830659866333,-0.09206128120422363,0.26812490820884705,0.9347573518753052
339,29692,29687,0.11683827638626099,-0.09899617731571198,0.961421012878418,-0.9606772661209106,-2.763591766357422,-0.4144876003265381,2.017643928527832,4.010235786437988,0.28585904836654663,-0.05797584354877472,0.2532506585121155,0.9338062405586243
340,29702,29697,-0.06226421147584915,0.01954108104109764,1.1024140119552612,-2.174729824066162,-1.421387791633606,-1.0204604864120483,2.017934560775757,4.010800361633301,0.2853444814682007,0.11876858025789261,0.2157139927148819,0.9263744354248047
341,29712,29707,-0.01687091402709484,0.05506597086787224,1.0814554691314697,-4.436999797821045,-5.913909912109375,-0.40322327613830566,2.017911672592163,4.010117053985596,0.2849632799625397,-0.012010068632662296,0.22270961105823517,0.8724534511566162
342,29722,29717,-0.018179703503847122,-0.037994395941495895,1.0294361114501953,-5.105578422546387,-3.789186954498291,0.37218713760375977,2.0201470851898193,4.009603977203369,0.28105321526527405,0.12581823766231537,0.13273848593235016,0.8729779124259949
343,29732,29727,0.01854054071009159,0.14659848809242249,1.092574119567871,-5.369708061218262,-5.490301609039307,0.38113632798194885,2.0206077098846436,4.010229587554932,0.2804850935935974,0.01153857633471489,0.10633745044469833,0.8818863034248352
344,29742,29737,-0.027503442019224167,0.024861417710781097,1.1282151937484741,-4.710888862609863,-7.302802085876465,0.41549596190452576,2.0229880809783936,4.008801460266113,0.2796231210231781,0.27568110823631287,-0.01318296603858471,0.8662844896316528
345,29752,29747,-0.02905634045600891,-0.1194317415356636,1.0331202745437622,-4.759492874145508,-3.086395740509033,0.1565990447998047,2.022895574569702,4.009756565093994,0.28025373816490173,0.3073098659515381,-0.0876050814986229,0.8645547032356262
346,29762,29757,-0.08577124029397964,0.023829953745007515,1.1233723163604736,-4.076469421386719,0.900446355342865,1.135087251663208,2.023195266723633,4.009610652923584,0.2798444330692291,0.2840330898761749,-0.08382980525493622,0.8910058736801147
347,29772,29767,-0.06303666532039642,0.06894515454769135,1.1268507242202759,-0.0527210496366024,-0.7887425422668457,0.5097705721855164,2.0243170261383057,4.009366035461426,0.27954673767089844,0.37237489223480225,-0.1394829899072647,0.8771881461143494
348,29782,29777,-0.0039505441673099995,0.06758791953325272,1.0451993942260742,1.274943232536316,-1.3967740535736084,0.57631915807724,2.0242834091186523,4.008950233459473,0.2796352207660675,0.30426260828971863,-0.13233450055122375,0.8806139230728149
349,29792,29787,-0.07683616131544113,-0.13521727919578552,1.0896844863891602,2.694955825805664,3.581860303878784,-0.14158762991428375,2.0253775119781494,4.008783340454102,0.27953842282295227,0.4006423354148865,-0.1054554283618927,0.901809811592102
350,29802,29797,-0.01590365171432495,-0.10303539037704468,1.037567138671875,3.4556503295898438,7.111702919006348,-0.3601527214050293,2.025632619857788,4.009049892425537,0.27964726090431213,0.24927499890327454,-0.0571332685649395,0.9073934555053711
351,29812,29807,0.062447696924209595,-0.14774726331233978,0.8812121152877808,0.2680172026157379,-0.7723028659820557,-0.0941745862364769,2.0269408226013184,4.008425712585449,0.2796672582626343,0.24034178256988525,-0.03909602388739586,0.8986404538154602
352,29822,29817,0.03173801675438881,-0.09621185064315796,0.983609139919281,0.20231132209300995,0.41456472873687744,-2.108598232269287,2.027799606323242,4.008973121643066,0.279854416847229,0.2858054041862488,-0.05594128370285034,0.9002937078475952
353,29832,29827,-0.0075845434330403805,-0.022607067599892616,1.0312703847885132,-1.7974152565002441,-0.36786702275276184,-0.07540658116340637,2.0282909870147705,4.009002208709717,0.27989816665649414,0.18433064222335815,-0.07916282117366791,0.8907616138458252
354,29842,29837,0.059450145810842514,-0.07023433595895767,1.0724468231201172,-0.7144057154655457,-1.483483910560608,0.2548668086528778,2.0295917987823486,4.009083271026611,0.2798520624637604,0.16677020490169525,-0.11221843957901001,0.8450755476951599
355,29852,29847,0.020872484892606735,0.06488557904958725,1.047674536705017,-1.255356788635254,-1.7893930673599243,-0.6163432002067566,2.0309574604034424,4.008838176727295,0.277560293674469,0.2537020444869995,-0.12880337238311768,0.8712682127952576
356,29862,29857,-0.06549710780382156,0.15280099213123322,1.1390385627746582,0.33986908197402954,-1.566841959953308,0.31400546431541443,2.030869960784912,4.009369850158691,0.2775903046131134,0.31316664814949036,-0.05870278552174568,0.9157760143280029
357,29872,29867,-0.021183962002396584,-0.04521893337368965,1.0231901407241821,0.665965735912323,1.3707704544067383,-0.0922035351395607,2.031517267227173,4.008741855621338,0.277681440114975,0.20175637304782867,-0.05589166656136513,0.9046159386634827
358,29882,29877,-0.019994692876935005,0.02022388204932213,1.0753127336502075,1.2387323379516602,1.1527268886566162,0.04152682051062584,2.033674716949463,4.008637428283691,0.2784760594367981,0.13817201554775238,-0.047037359327077866,0.9020346403121948
359,29892,29887,-0.07400832325220108,-0.0563635490834713,1.0372285842895508,-0.05515069141983986,2.940396785736084,-0.8006384372711182,2.034803867340088,4.008462905883789,0.278674840927124,0.21282434463500977,-0.05751458555459976,0.8482047319412231
360,29902,29897,-0.05395087972283363,0.21815957129001617,1.0743956565856934,-2.6727962493896484,2.2476813793182373,-0.6904016733169556,2.0352768898010254,4.007562637329102,0.27908387780189514,0.1391129046678543,-0.07964968681335449,0.8418065309524536
361,29912,29907,-0.1433013677597046,0.12163098156452179,1.2099779844284058,-0.6180936694145203,-4.043373107910156,0.7070170640945435,2.0366532802581787,4.007010459899902,0.2793593108654022,0.2746622860431671,-0.1211789920926094,0.8184866905212402
362,29922,29917,-0.07714594900608063,0.1322726607322693,1.1612699031829834,-1.369908332824707,2.3512423038482666,-0.40940526127815247,2.0367486476898193,4.007591247558594,0.2805297076702118,0.36700311303138733,-0.06599332392215729,0.8373650908470154
363,29932,29927,-0.04068271815776825,-0.031744904816150665,1.009395718574524,0.06992268562316895,5.393847942352295,-0.8497688174247742,2.0368728637695312,4.008495330810547,0.28126487135887146,0.169428288936615,-0.08885703980922699,0.9208680391311646
364,29942,29937,0.03134578466415405,0.021622169762849808,1.0390874147415161,0.13974055647850037,3.921689987182617,-1.2861442565917969,2.038835287094116,4.008644104003906,0.28203538060188293,0.0963701605796814,-0.0954832211136818,0.9261196255683899
365,29952,29947,-0.07449963688850403,-0.04348430410027504,1.0129812955856323,-1.3962796926498413,2.8657870292663574,-1.8248778581619263,2.0399575233459473,4.009293556213379,0.2843358516693115,0.1354667693376541,-0.11550972610712051,0.9297435283660889
366,29962,29957,-0.12571172416210175,-0.042649634182453156,1.1137880086898804,-0.4290596544742584,4.321967124938965,-2.0591742992401123,2.040161371231079,4.008580684661865,0.2853095829486847,0.1801677942276001,-0.06417392939329147,0.8885433673858643
367,29972,29967,0.03623402863740921,-0.05970693379640579,0.9888066053390503,0.3701944649219513,5.045567512512207,-1.4946354627609253,2.0404229164123535,4.00822114944458,0.2863263487815857,0.03023761510848999,-0.07743091136217117,0.8655937910079956
368,29982,29977,-0.011713016778230667,-0.05516665428876877,0.9104712605476379,-0.6952816843986511,3.3534138202667236,-1.0392552614212036,2.0420422554016113,4.008210182189941,0.2878519892692566,0.05118720978498459,-0.08649075776338577,0.8375129699707031
369,29992,29987,-0.019725071266293526,0.0017608182970434427,1.0281894207000732,-0.6653472185134888,4.171106815338135,-1.9313969612121582,2.0423383712768555,4.007918834686279,0.2889214754104614,-0.04454192891716957,-0.10980404168367386,0.7808646559715271
370,30002,29997,-0.022701973095536232,0.0018973549595102668,1.0243232250213623,0.42675352096557617,0.3657318353652954,-1.5146533250808716,2.043492078781128,4.007158279418945,0.28982335329055786,-0.054834868758916855,-0.11025650799274445,0.7629209756851196
371,30012,30007,-0.12323135137557983,0.0017064043786376715,0.9311478734016418,-2.264157772064209,-0.3928879499435425,-1.6950993537902832,2.043412923812866,4.005972862243652,0.29023629426956177,-0.03159644454717636,-0.13266877830028534,0.7109453678131104
372,30022,30017,-0.10955756902694702,0.12358658015727997,1.0273054838180542,-1.5596611499786377,0.11995288729667664,-1.826697826385498,2.044367790222168,4.006504535675049,0.29117271304130554,0.07566888630390167,-0.1603500247001648,0.6605895161628723
373,30032,30027,-0.10602125525474548,0.12033487111330032,1.0362106561660767,0.6183984279632568,2.719054698944092,-1.6785560846328735,2.0440285205841064,4.005678176879883,0.2921203374862671,-0.014241262339055538,-0.1025436669588089,0.6322559714317322
374,30042,30037,-0.06389083713293076,0.028496472164988518,1.0208587646484375,0.29604655504226685,3.5394644737243652,-1.6326390504837036,2.0453877449035645,4.0051493644714355,0.2929835915565491,0.028935028240084648,-0.17038889229297638,0.5685130953788757
375,30052,30047,0.0020136472303420305,0.0008550003403797746,0.9225452542304993,1.450944185256958,3.619722604751587,-1.3855448961257935,2.045116662979126,4.005065441131592,0.29465270042419434,0.0216249730437994,-0.1411760002374649,0.5937367081642151
376,30062,30057,-0.05947069078683853,0.15346117317676544,0.9796528816223145,-0.5337597131729126,7.646596908569336,-2.1655516624450684,2.0452330112457275,4.0040669441223145,0.2956051230430603,0.022611331194639206,-0.12938016653060913,0.5319919586181641
377,30072,30067,-0.188028484582901,1.1584621667861938,1.020224690437317,1.0037825107574463,3.832672119140625,-1.6674240827560425,2.045474052429199,4.004334449768066,0.2965705394744873,-0.3013528287410736,-0.1242145225405693,0.4950930178165436
378,30082,30077,-0.11025728285312653,0.4239952564239502,0.9702751636505127,3.486635684967041,1.3515470027923584,-1.037649393081665,2.0476770401000977,4.003929615020752,0.2979278862476349,-0.2850307822227478,-0.11820589005947113,0.5267634987831116
379,30092,30087,0.0070815058425068855,-0.23787078261375427,0.8223019242286682,0.3737033009529114,1.2201319932937622,-1.8275984525680542,2.0482187271118164,4.004199981689453,0.2988792657852173,-0.22201824188232422,-0.1032908707857132,0.5182148218154907
380,30102,30097,0.08125261962413788,-0.1802348643541336,0.9434800744056702,0.7941543459892273,-0.5896554589271545,-2.2810630798339844,2.0487260818481445,4.004932403564453,0.29991862177848816,-0.23029379546642303,-0.1731874942779541,0.5174773931503296
381,30112,30107,0.04029783606529236,0.017987875267863274,1.0214850902557373,1.632975697517395,-3.566617012023926,-3.273836851119995,2.049482583999634,4.005472183227539,0.30011871457099915,-0.2333638072013855,-0.17351047694683075,0.5559328198432922
382,30122,30117,-0.022703923285007477,0.2475753277540207,0.8557408452033997,2.996126651763916,-4.570362567901611,-2.3288676738739014,2.0502214431762695,4.006561756134033,0.3008469045162201,-0.2853360176086426,-0.15971052646636963,0.5272247195243835
383,30132,30127,-0.23558133840560913,0.13213235139846802,0.8246996402740479,2.2564547061920166,-3.548964738845825,-2.8740603923797607,2.050880193710327,4.006790637969971,0.3013766407966614,-0.21877890825271606,-0.03655458986759186,0.544043779373169
384,30142,30137,-0.12415695190429688,-0.1652941256761551,0.8851770758628845,1.719451904296875,-0.5059823393821716,-3.1348936557769775,2.051100969314575,4.006347179412842,0.30189430713653564,-0.3156650960445404,-0.08044762909412384,0.5471003651618958
385,30152,30147,-0.057742271572351456,-0.00625190045684576,0.9517238140106201,-0.3496531546115875,1.60279381275177,-3.049290180206299,2.053596019744873,4.007421016693115,0.301824152469635,-0.19501544535160065,-0.05300494655966759,0.5212694406509399
386,30162,30157,-0.07719968259334564,0.14403250813484192,1.00688636302948,-1.207175850868225,6.532077312469482,-3.127668619155884,2.0533382892608643,4.00657320022583,0.3022086024284363,-0.12627452611923218,0.030297303572297096,0.4261968433856964
387,30172,30167,-0.05717228725552559,0.2014184296131134,1.0604554414749146,-1.6310441493988037,4.001290321350098,-2.8951470851898193,2.0537233352661133,4.0062456130981445,0.30252280831336975,-0.41218772530555725,-0.06958795338869095,0.41917282342910767
388,30182,30177,-0.05711253359913826,0.4591292440891266,1.0379748344421387,-1.2358921766281128,1.8573360443115234,-3.829124689102173,2.056657552719116,4.007028102874756,0.30139225721359253,-0.4200507700443268,-0.08506876230239868,0.41334980726242065
389,30192,30187,0.0358395054936409,0.20295929908752441,0.9219952821731567,-1.8431872129440308,-0.02311771921813488,-3.5249826908111572,2.0573041439056396,4.007870197296143,0.3016391694545746,-0.3838654160499573,-0.10054285079240799,0.3965325355529785
390,30202,30197,-0.06429396569728851,0.1900867521762848,1.0277416706085205,0.35935699939727783,-3.2175092697143555,-2.86537504196167,2.058063268661499,4.008610725402832,0.301893025636673,-0.4086051881313324,-0.11563138663768768,0.4231908321380615
391,30212,30207,0.0005691435653716326,0.46963372826576233,0.9436188340187073,2.455030918121338,-5.12136697769165,-3.0076558589935303,2.0590620040893555,4.008912086486816,0.30377113819122314,-0.23174507915973663,-0.09565208852291107,0.3760879635810852
392,30222,30217,-0.22298002243041992,0.915050208568573,1.0992770195007324,4.413239479064941,-4.7973246574401855,-2.5885167121887207,2.0587236881256104,4.008406639099121,0.3041979670524597,-0.25833559036254883,-0.19694750010967255,0.33337822556495667
393,30232,30227,-0.06649134308099747,0.8248227834701538,0.9516247510910034,2.2813034057617188,6.901236534118652,-3.1631033420562744,2.0600533485412598,4.010953426361084,0.30443695187568665,-0.10719525068998337,-0.0384545736014843,0.4134801924228668
394,30242,30237,0.1673259437084198,0.5451899170875549,0.9917875528335571,4.667211055755615,-4.986706733703613,-2.6844613552093506,2.0599238872528076,4.010034561157227,0.3048720359802246,-0.32538384199142456,-0.05541030690073967,0.37547576427459717
395,30252,30247,0.17706534266471863,1.0163524150848389,0.909111499786377,5.2305169105529785,-5.793257236480713,-2.4620065689086914,2.0623605251312256,4.011327266693115,0.3036153018474579,-0.3038521409034729,0.019037609919905663,0.40397363901138306
396,30262,30257,0.10446585714817047,0.5983884334564209,0.9633226990699768,2.5578651428222656,-4.282035827636719,-3.122802495956421,2.0632643699645996,4.0110249519348145,0.3037523329257965,-0.10487145185470581,0.08857230097055435,0.33187443017959595
397,30272,30267,0.02500787191092968,0.06859701126813889,0.9562029242515564,2.608797073364258,0.4194123148918152,-2.9552011489868164,2.0632214546203613,4.010263919830322,0.30403369665145874,-0.179709792137146,0.12849120795726776,0.3122316598892212
398,30282,30277,0.07693570107221603,0.2704799175262451,0.8977187871932983,-1.6397298574447632,-1.2504527568817139,-2.6579089164733887,2.065502643585205,4.011298179626465,0.3040126860141754,-0.21671906113624573,0.144226536154747,0.3531651794910431
399,30292,30287,0.06905443221330643,0.5253830552101135,0.8599107265472412,-2.2360501289367676,-0.46786805987358093,-2.184251546859741,2.0667996406555176,4.01140022277832,0.3039183020591736,-0.23144280910491943,0.11053584516048431,0.2604912221431732
400,30302,30297,-0.05352779105305672,0.15581782162189484,1.0386284589767456,-2.9589805603027344,1.6494872570037842,-2.2794840335845947,2.0680062770843506,4.010519981384277,0.3036855161190033,-0.14292952418327332,0.06992750614881516,0.2349299192428589
401,30312,30307,0.06180000305175781,-0.0329136997461319,0.9809888005256653,-2.052206039428711,-3.561030149459839,-1.5268114805221558,2.067497491836548,4.010146141052246,0.30157026648521423,-0.1730673760175705,0.01874343305826187,0.1322343647480011
402,30322,30317,-0.0036075194366276264,0.1185341477394104,1.1100953817367554,-1.2135009765625,-0.19063299894332886,-1.658806562423706,2.067852735519409,4.009974956512451,0.30156227946281433,-0.19159327447414398,0.058848511427640915,0.1467476338148117
403,30332,30327,-0.017971429973840714,0.08040627837181091,1.048901081085205,0.9317463636398315,-4.1243205070495605,-1.0475592613220215,2.069575548171997,4.009589672088623,0.3011524975299835,-0.20120592415332794,-0.020963817834854126,0.1283947080373764
404,30342,30337,-0.035390086472034454,-0.08013775944709778,0.9393736720085144,2.264918804168701,-6.311223030090332,-1.0693787336349487,2.0707240104675293,4.010278224945068,0.3008795380592346,-0.1573859006166458,0.006598930340260267,0.1184709221124649
405,30352,30347,-0.00607331283390522,0.10154198110103607,1.0860857963562012,4.294169902801514,-7.918818473815918,-1.2571262121200562,2.0716781616210938,4.0099687576293945,0.29974034428596497,-0.08162208646535873,0.06707284599542618,0.09145095199346542
406,30362,30357,0.05754103884100914,-0.20432277023792267,0.9230989217758179,4.581053256988525,-7.8208699226379395,-1.330117106437683,2.072364568710327,4.009762287139893,0.29949596524238586,-0.10305963456630707,0.1584000587463379,0.006328213959932327
407,30372,30367,-0.0129700293764472,-0.08959424495697021,0.9907666444778442,2.7082314491271973,-6.196423530578613,-0.7992042303085327,2.074275493621826,4.008151054382324,0.2990562617778778,0.081370510160923,0.22602853178977966,-0.002876329468563199
408,30382,30377,-0.040653422474861145,0.11540962755680084,1.0735381841659546,0.004008720628917217,-5.474624156951904,-0.5815686583518982,2.073943853378296,4.006958484649658,0.29960882663726807,0.15358883142471313,0.08841537684202194,-0.050566669553518295
409,30392,30387,-0.017377261072397232,0.013117071241140366,0.9907196760177612,-1.7208271026611328,-4.70401668548584,0.16739016771316528,2.0751559734344482,4.0089545249938965,0.2993844449520111,0.11796680837869644,0.08079829066991806,-0.0731726735830307
410,30402,30397,0.008066854439675808,-0.1497512012720108,0.976944625377655,-1.7350220680236816,-3.755808115005493,-0.6485907435417175,2.0764822959899902,4.00798225402832,0.29902926087379456,0.3312493562698364,0.07227209955453873,-0.12261051684617996
411,30412,30407,0.006070578005164862,-0.3033464252948761,0.8967276215553284,-1.1491731405258179,-2.7324047088623047,0.2445557564496994,2.0761663913726807,4.007931709289551,0.2989670932292938,0.24525447189807892,0.05916602909564972,-0.20918412506580353
412,30422,30417,0.058573611080646515,-0.21425271034240723,0.8947973847389221,0.2628997564315796,-3.9508492946624756,0.7999603748321533,2.0777947902679443,4.006906032562256,0.2985713481903076,0.42301034927368164,0.14883796870708466,-0.167353093624115
413,30432,30427,0.05629626661539078,-0.1385435312986374,0.927566647529602,2.4193673133850098,-1.8770133256912231,0.9450757503509521,2.0773231983184814,4.006470680236816,0.2983383238315582,0.34380048513412476,0.17506225407123566,-0.09414293617010117
414,30442,30437,0.014636887237429619,0.17100968956947327,1.030671238899231,0.3050357401371002,0.319004625082016,0.47290512919425964,2.0789732933044434,4.007678985595703,0.2962561547756195,0.3066049814224243,0.19623130559921265,-0.06309137493371964
415,30452,30447,0.06788970530033112,-0.02448764257133007,1.0402708053588867,0.004623034503310919,-0.18519414961338043,-0.04532218724489212,2.079925060272217,4.007894039154053,0.2956102192401886,0.24890491366386414,0.19803975522518158,-0.02627474069595337
416,30462,30457,0.08537495881319046,-0.049504928290843964,0.9466762542724609,-1.286071538925171,-0.1244223490357399,-1.0553492307662964,2.081256151199341,4.008569717407227,0.29500439763069153,0.3329222500324249,0.19255061447620392,-0.0005039694369770586
417,30472,30467,0.010962190106511116,-0.058363158255815506,0.9887000322341919,-2.099637508392334,-2.1259427070617676,-0.7071673274040222,2.0817360877990723,4.008580684661865,0.2945915162563324,0.21804508566856384,0.24415171146392822,-0.01893773302435875
418,30482,30477,0.02502729371190071,-0.00584621075540781,1.1062898635864258,-2.333786725997925,-3.923123598098755,-0.461051881313324,2.0828664302825928,4.008607387542725,0.2936191260814667,0.40259405970573425,0.1896180808544159,0.0198355782777071
419,30492,30487,-0.03448309376835823,0.030483625829219818,1.1136727333068848,-2.9334092140197754,-3.7341465950012207,0.01654878631234169,2.0826478004455566,4.0088043212890625,0.29318374395370483,0.2741605341434479,0.06070910766720772,0.017387693747878075
420,30502,30497,0.009573078714311123,0.08841553330421448,1.0610780715942383,-1.964238166809082,-3.5651931762695312,0.307015597820282,2.0852723121643066,4.0095672607421875,0.29260697960853577,0.5191263556480408,0.020924896001815796,0.026701828464865685
421,30512,30507,0.020328732207417488,0.06631036847829819,1.061590313911438,-0.20558683574199677,-3.272564172744751,0.27565038204193115,2.084538221359253,4.009781360626221,0.29365918040275574,0.3781658113002777,-0.07736003398895264,-0.01654525101184845
422,30522,30517,-0.11222284287214279,-0.01635078713297844,1.1295243501663208,2.5160720348358154,-0.08179155737161636,0.35268762707710266,2.0872631072998047,4.009919166564941,0.2933262586593628,0.4771898686885834,0.02040383592247963,-0.01885024458169937
423,30532,30527,-0.028893880546092987,0.0071001253090798855,1.054314136505127,4.442275524139404,1.6570523977279663,0.3912355899810791,2.087172508239746,4.008677005767822,0.29323625564575195,0.6020219922065735,0.08032580465078354,-0.055439580231904984
424,30542,30537,-0.023936545476317406,0.05266262963414192,0.9945112466812134,3.987182378768921,2.8040764331817627,0.7724048495292664,2.0872490406036377,4.007835388183594,0.29382336139678955,0.6022677421569824,0.15561257302761078,-0.07173380255699158
425,30552,30547,-0.05728546902537346,-0.05908622965216637,1.0693312883377075,2.0935373306274414,3.6459383964538574,0.672081470489502,2.088167428970337,4.006718635559082,0.2938370704650879,0.5941657423973083,0.2023276388645172,-0.11002704501152039
426,30562,30557,0.025635845959186554,-0.15936687588691711,1.033614993095398,0.485242635011673,5.731594562530518,0.639841616153717,2.089189291000366,4.007269859313965,0.29389405250549316,0.4072433412075043,0.21905210614204407,-0.09072645753622055
427,30572,30567,-0.014106056652963161,-0.04246702045202255,1.0785858631134033,-2.5215601921081543,7.780857086181641,0.4311709702014923,2.0917489528656006,4.007090091705322,0.2939230501651764,0.39353007078170776,0.1927579939365387,-0.06242792680859566
428,30582,30577,-0.03990821912884712,-0.02898017130792141,0.9654905200004578,-4.151237487792969,6.045389175415039,0.035107892006635666,2.0923328399658203,4.007547378540039,0.2954893410205841,0.2903721332550049,0.12885136902332306,-0.058097731322050095
429,30592,30587,-0.013375429436564445,-0.06583797186613083,0.9509424567222595,-3.7107295989990234,3.523420810699463,0.007576727773994207,2.0936479568481445,4.008425235748291,0.29573798179626465,0.3174695670604706,0.1417134553194046,-0.02041083201766014
430,30602,30597,-0.04960792139172554,-0.032721083611249924,1.014683723449707,-2.096066951751709,0.8061288595199585,-0.18116289377212524,2.093353748321533,4.008492946624756,0.29606136679649353,0.29781103134155273,0.08507852256298065,0.033720843493938446
431,30612,30607,-0.011579174548387527,0.03050633706152439,1.0633783340454102,-1.0567946434020996,-0.37715524435043335,-1.2457493543624878,2.0948076248168945,4.009316444396973,0.29717889428138733,0.31805554032325745,0.04965967312455177,0.10221436619758606
432,30622,30617,0.012208914384245872,0.035075269639492035,1.010406732559204,1.3515253067016602,-1.6579136848449707,-1.6282223463058472,2.0942883491516113,4.01093053817749,0.29719188809394836,0.40239933133125305,0.12274192273616791,0.16717584431171417
433,30632,30627,0.07146617770195007,-0.05023794248700142,0.9526215195655823,1.5101755857467651,-1.0552363395690918,-2.297086000442505,2.0938615798950195,4.010237693786621,0.2976028323173523,0.2640506625175476,0.1291162520647049,0.07497444748878479
434,30642,30637,-0.037501681596040726,0.07935439050197601,1.0887529850006104,0.8575927019119263,-2.859464168548584,-0.49442189931869507,2.0958542823791504,4.009801864624023,0.29823368787765503,0.3875325322151184,0.13256847858428955,0.09015677869319916
435,30652,30647,-0.08923102915287018,0.0700601264834404,1.0684688091278076,-0.055500954389572144,3.7857255935668945,-1.086074709892273,2.094348192214966,4.007486820220947,0.29899343848228455,0.2370612919330597,0.12011589854955673,-0.03394921496510506
436,30662,30657,0.07315439730882645,0.0074344719760119915,1.0171760320663452,-0.4959447681903839,7.352508068084717,-0.5933421850204468,2.096752405166626,4.008242607116699,0.2993566691875458,0.21061286330223083,0.09853487461805344,0.05424099415540695
437,30672,30667,0.004330660216510296,0.09309949725866318,1.0401289463043213,0.1594562977552414,5.129938125610352,-0.9233188033103943,2.0970115661621094,4.009284019470215,0.29994070529937744,0.18368001282215118,0.08622437715530396,0.026171337813138962
438,30682,30677,0.0001480334613006562,0.04248284175992012,1.0076301097869873,-0.8478895425796509,4.114990234375,-1.638922095298767,2.095831871032715,4.00904655456543,0.2999880015850067,0.1753411889076233,0.1421261727809906,-0.11836658418178558
439,30692,30687,-0.001684380928054452,-0.12213604897260666,0.9096159338951111,-2.0952203273773193,4.889458656311035,-0.14520414173603058,2.0961833000183105,4.006988525390625,0.3008576035499573,0.12071570008993149,0.11209700256586075,-0.08022946864366531
440,30702,30697,0.020727528259158134,-0.003151235170662403,1.044105887413025,-2.440032482147217,3.6326420307159424,-0.5627781748771667,2.0955114364624023,4.006077289581299,0.30083075165748596,-0.04631933942437172,0.13587604463100433,-0.11294090747833252
441,30712,30707,0.040389593690633774,-0.0569840669631958,0.9580333828926086,-1.8694279193878174,2.7061705589294434,-0.30296728014945984,2.0970351696014404,4.006093502044678,0.3007332980632782,-0.0698128268122673,0.1606949418783188,-0.12696348130702972
442,30722,30717,0.02547658234834671,-0.04037853702902794,0.9056856632232666,-3.9887349605560303,0.9087180495262146,-0.9544339179992676,2.097843647003174,4.005706310272217,0.3011004626750946,-0.21027594804763794,0.07942940294742584,-0.09902653843164444
443,30732,30727,-0.10806570202112198,0.27945005893707275,1.1360536813735962,-4.291155815124512,-1.7135528326034546,-0.5331178307533264,2.098804235458374,4.006359577178955,0.3013538718223572,-0.12622323632240295,0.06342440098524094,-0.16493195295333862
444,30742,30737,-0.0021670223213732243,0.13249920308589935,1.0550063848495483,-3.7753894329071045,-3.3526575565338135,0.2432595193386078,2.099059581756592,4.005014896392822,0.3035019040107727,-0.08847790211439133,-0.03561202436685562,-0.18279890716075897
445,30752,30747,0.01613292470574379,0.09363845735788345,1.040457010269165,-2.546314001083374,-3.9512314796447754,0.5318829417228699,2.0990724563598633,4.005127906799316,0.3039531707763672,-0.04029100760817528,-0.10962797701358795,-0.18082793056964874
446,30762,30757,-0.01865370012819767,0.030496256425976753,0.976495087146759,-1.913961410522461,-2.2031779289245605,0.3281402289867401,2.099785566329956,4.00572395324707,0.3045147955417633,-0.05949181690812111,-0.1609477698802948,-0.14201946556568146
447,30772,30767,0.034010834991931915,0.06826134026050568,1.0555428266525269,-1.788998007774353,-1.0190188884735107,-1.0521118640899658,2.1009252071380615,4.005096435546875,0.307270348072052,0.04273499548435211,-0.13311874866485596,-0.1315268725156784
448,30782,30777,0.025435471907258034,0.1139465719461441,0.9854223728179932,1.0895719528198242,-0.15732444822788239,-0.9817143082618713,2.101093292236328,4.005448341369629,0.30800992250442505,-0.17171069979667664,-0.15848465263843536,-0.19101494550704956
449,30792,30787,-0.02109316922724247,0.052629344165325165,0.9970573782920837,1.2267000675201416,4.030646324157715,-0.0015633029397577047,2.103553533554077,4.004882335662842,0.30854493379592896,-0.12352374941110611,-0.16932767629623413,-0.19810384511947632
450,30802,30797,0.056274741888046265,0.1225062906742096,1.0443493127822876,2.943999767303467,3.813088893890381,-0.29766494035720825,2.1041173934936523,4.0046563148498535,0.3092678189277649,-0.19401076436042786,-0.14644894003868103,-0.14669382572174072
451,30812,30807,-0.016013244166970253,0.7692914605140686,1.0357515811920166,2.21244478225708,2.1440610885620117,-1.0357321500778198,2.1048922538757324,4.005663871765137,0.30891153216362,-0.16133874654769897,-0.11621270328760147,-0.12150436639785767
452,30822,30817,-0.0325186587870121,0.25919508934020996,0.9456566572189331,1.244372010231018,1.4275434017181396,-1.925627589225769,2.104991912841797,4.006089687347412,0.3096242845058441,-0.28350526094436646,-0.10337170958518982,-0.09486702084541321
453,30832,30827,0.1104629635810852,-0.04919547960162163,0.9107146859169006,1.4090487957000732,-1.1849313974380493,-2.065615653991699,2.1069226264953613,4.005980491638184,0.31021007895469666,-0.30957770347595215,-0.08908095210790634,-0.11510933190584183
454,30842,30837,0.12495161592960358,0.4902815818786621,0.874120831489563,-0.0912792906165123,-2.7106070518493652,-2.2580924034118652,2.1081271171569824,4.006051063537598,0.3105601668357849,-0.19353151321411133,-0.09338229149580002,-0.12383344024419785
455,30852,30847,0.015554347075521946,0.12764225900173187,0.9421656131744385,0.03597217798233032,-4.98471212387085,-1.6010174751281738,2.108107089996338,4.006042957305908,0.31118547916412354,-0.2585074305534363,-0.1005772277712822,-0.17338399589061737
456,30862,30857,0.035686951130628586,-0.3214063048362732,0.7368205785751343,-3.1773242950439453,0.8531397581100464,-1.3331279754638672,2.110013961791992,4.005624294281006,0.31157705187797546,-0.12392020970582962,-0.050175443291664124,-0.19604456424713135
457,30872,30867,-0.10611077398061752,-0.0730142742395401,0.8328326940536499,-5.246274471282959,5.355096340179443,-2.007415533065796,2.1107876300811768,4.004591464996338,0.3124876618385315,-0.21946367621421814,-0.1213100478053093,-0.1939929574728012
458,30882,30877,-0.45385217666625977,0.5841255784034729,1.0367660522460938,-4.317545413970947,1.5244953632354736,-1.8724021911621094,2.111721992492676,4.005472660064697,0.3124328851699829,-0.11151109635829926,-0.11873316019773483,-0.27169349789619446
459,30892,30887,-0.42039212584495544,0.5066713690757751,1.0737369060516357,-1.418899416923523,1.782491683959961,-1.621073842048645,2.1113481521606445,4.004453659057617,0.31257113814353943,0.0011342181824147701,-0.10063071548938751,-0.24147851765155792
460,30902,30897,-0.22386083006858826,0.21689492464065552,1.063329815864563,-0.7113075256347656,2.3566081523895264,-1.004353404045105,2.111065149307251,4.003884315490723,0.31272658705711365,-0.09102126955986023,-0.13685716688632965,-0.302580863237381
461,30912,30907,-0.05310121178627014,0.009362333454191685,0.9702643752098083,-0.14822834730148315,6.462125778198242,-0.9858663082122803,2.1124203205108643,4.003584384918213,0.3136127293109894,-0.07300753146409988,-0.16082382202148438,-0.3068629503250122
462,30922,30917,-0.026021374389529228,0.09122703969478607,1.0298995971679688,0.22376586496829987,4.384291648864746,-0.754062294960022,2.112644672393799,4.003274440765381,0.31385692954063416,-0.24195720255374908,-0.26332879066467285,-0.30667445063591003
463,30932,30927,-0.05003879591822624,0.2802467942237854,0.9600920677185059,0.7239125370979309,3.0894744396209717,-1.1367226839065552,2.1145403385162354,4.0042643547058105,0.31397122144699097,-0.21724992990493774,-0.2600853443145752,-0.38339507579803467
464,30942,30937,-0.01955532468855381,0.2863042950630188,0.956438422203064,1.5991722345352173,-2.3057568073272705,-0.4987296760082245,2.1152150630950928,4.003353118896484,0.31349146366119385,-0.2985204756259918,-0.2555297017097473,-0.39366164803504944
465,30952,30947,-0.07417921721935272,0.24032719433307648,1.0442925691604614,2.267810583114624,-1.8241593837738037,-1.153550386428833,2.115718364715576,4.002893924713135,0.31362396478652954,-0.3661181628704071,-0.2440287172794342,-0.4317624270915985
466,30962,30957,-0.006349212024360895,0.08554262667894363,1.0381603240966797,3.6524155139923096,-3.20206356048584,-0.5212991833686829,2.1170530319213867,4.00322961807251,0.3137454688549042,-0.26304394006729126,-0.14086341857910156,-0.4169127345085144
467,30972,30967,-0.02638421766459942,0.17132897675037384,1.1043061017990112,2.930338144302368,-4.574594020843506,-0.2799009680747986,2.116316556930542,4.0027666091918945,0.3169425427913666,-0.28746166825294495,-0.10681530088186264,-0.3611597716808319
468,30982,30977,-0.0703265517950058,0.9481446743011475,0.9884143471717834,-0.3606811463832855,-5.314390182495117,-0.7465339303016663,2.1176793575286865,4.002998352050781,0.31731870770454407,-0.1547466665506363,-0.10579879581928253,-0.5074412822723389
469,30992,30987,-0.18741528689861298,0.9226810932159424,1.0695925951004028,-1.5723850727081299,-3.795105457305908,-0.9190477132797241,2.116201877593994,4.000888347625732,0.3178105652332306,-0.2453738898038864,-0.13120919466018677,-0.4919493496417999
470,31002,30997,0.0672246441245079,0.16465386748313904,0.8724363446235657,-3.3595309257507324,-1.725356101989746,-0.45725342631340027,2.117227077484131,3.9999332427978516,0.3164486587047577,-0.3090258240699768,-0.2558228671550751,-0.6413115859031677
471,31012,31007,0.06613030284643173,-0.06442287564277649,0.9360094666481018,-4.334866046905518,2.4849159717559814,-0.22283251583576202,2.119136095046997,4.00074577331543,0.3167616128921509,-0.2948019206523895,-0.3134394586086273,-0.5925695300102234
472,31022,31017,0.01823638379573822,-0.03804072365164757,0.9862504601478577,-1.51167631149292,0.25396832823753357,0.42808231711387634,2.1192681789398193,4.00152063369751,0.3169694244861603,-0.27295705676078796,-0.3360375165939331,-0.5644974708557129
473,31032,31027,0.07429441809654236,-0.030876420438289642,0.9066405892372131,-0.6016097068786621,4.894519805908203,-0.12132804840803146,2.120124340057373,4.002024173736572,0.3172267973423004,-0.2953126132488251,-0.3370321989059448,-0.5357350707054138
474,31042,31037,0.08370575308799744,0.18919602036476135,0.9864752292633057,4.4475202560424805,-2.0533440113067627,0.20887142419815063,2.1211459636688232,4.001750946044922,0.3151487112045288,-0.3390578329563141,-0.29271116852760315,-0.5425548553466797
475,31052,31047,0.06168689206242561,0.5498354434967041,0.9098867177963257,5.109289646148682,-3.622373580932617,-0.13898862898349762,2.1223206520080566,4.001656532287598,0.31510603427886963,-0.17271433770656586,-0.2008882761001587,-0.5497182011604309
476,31062,31057,0.009985491633415222,0.03365187719464302,0.9381459355354309,7.077497959136963,-4.162581920623779,-0.4421352744102478,2.1221745014190674,4.001441955566406,0.3152160346508026,-0.12658217549324036,-0.06684737652540207,-0.5207058787345886
477,31072,31067,0.010534248314797878,-0.20548993349075317,0.851525604724884,5.054593086242676,-3.0387160778045654,-0.5783812999725342,2.123307228088379,4.000033855438232,0.3140581250190735,-0.16793344914913177,-0.023325100541114807,-0.5612932443618774
478,31082,31077,0.011876096948981285,-0.10721595585346222,0.8549009561538696,0.791282594203949,0.24521461129188538,0.2746322751045227,2.1253468990325928,4.001116752624512,0.3137615919113159,-0.028704551979899406,-0.05044620484113693,-0.5562021732330322
479,31092,31087,-0.1654750257730484,0.22187888622283936,1.0647175312042236,-2.0758862495422363,1.0647716522216797,0.3993072807788849,2.1251027584075928,4.000728130340576,0.3134872317314148,-0.2007192075252533,-0.04886680096387863,-0.5739235281944275
