,timestamp_start,timestamp_end,acc.x,acc.y,acc.z,gyro.x,gyro.y,gyro.z,stateEstimate.x,stateEstimate.y,stateEstimate.z,stabilizer.pitch,stabilizer.roll,stabilizer.yaw
0,19632,19631,0.0018916131230071187,0.02495758980512619,1.0742579698562622,-3.010751485824585,-0.2924637198448181,3.3096632957458496,1.6830415725708008,4.463735580444336,0.15898007154464722,-0.6629818081855774,1.2120469808578491,3.043105363845825
1,19642,19641,-0.01408122293651104,0.1491648256778717,1.0061256885528564,-5.492500305175781,0.9008273482322693,3.567711353302002,1.6764134168624878,4.464603424072266,0.1669788658618927,0.5083019733428955,1.193529486656189,3.2842259407043457
2,19652,19651,0.02679460681974888,-0.038146886974573135,0.992197573184967,-8.084972381591797,3.0591418743133545,2.728463888168335,1.6828287839889526,4.469370365142822,0.17821736633777618,-1.1046688556671143,0.5417545437812805,3.0019640922546387
3,19662,19661,0.025435442104935646,-0.015401775948703289,0.971734881401062,-7.702490329742432,3.1766433715820312,3.9416613578796387,1.6830072402954102,4.46971321105957,0.17676891386508942,-0.9856217503547668,0.5241653323173523,3.058903694152832
4,19672,19671,-0.014896939508616924,0.030041882768273354,1.0004276037216187,-5.151749134063721,-2.491244316101074,3.598644256591797,1.6834821701049805,4.469605445861816,0.18007855117321014,-0.9385057091712952,0.575368344783783,3.119251012802124
5,19682,19681,0.03856709972023964,0.013836509548127651,1.015523076057434,-0.84572833776474,-9.269928932189941,3.086447238922119,1.682847023010254,4.469203948974609,0.18414317071437836,-0.630914568901062,0.6399596929550171,3.2148680686950684
6,19692,19691,0.051116425544023514,-0.11746523529291153,1.0164098739624023,3.580364942550659,-17.236562728881836,2.3702430725097656,1.6827529668807983,4.4684295654296875,0.18116116523742676,-0.4718863368034363,0.8263334035873413,3.2820560932159424
7,19702,19701,0.01863485388457775,-0.11816385388374329,0.9991410374641418,5.357382297515869,-22.004444122314453,2.3741400241851807,1.6838173866271973,4.469040393829346,0.1836564838886261,-0.4244827926158905,0.7555180788040161,3.279411554336548
8,19712,19711,0.027554066851735115,-0.0757322832942009,0.930223286151886,4.2818803787231445,-23.111162185668945,1.9604167938232422,1.683512568473816,4.468841075897217,0.1863107830286026,-0.07156933099031448,0.8685529828071594,3.324585199356079
9,19722,19721,0.0715530514717102,-0.08094168454408646,0.9881653785705566,0.6905626654624939,-20.632583618164062,2.124603748321533,1.6799370050430298,4.471168518066406,0.18615932762622833,0.35161253809928894,0.946402370929718,3.3764257431030273
10,19732,19731,0.05418074503540993,-0.09936043620109558,1.099439263343811,-3.178553581237793,-16.15155029296875,1.4310624599456787,1.6769872903823853,4.472218990325928,0.18822379410266876,0.7181393504142761,1.113535761833191,3.4273781776428223
11,19742,19741,0.06478490680456161,-0.1268523782491684,0.9480863213539124,-6.51131010055542,-7.636671543121338,1.1775119304656982,1.676334261894226,4.4760050773620605,0.19130277633666992,0.969220757484436,0.4456464350223541,3.4310245513916016
12,19752,19751,0.011643748730421066,-0.030047839507460594,0.9620371460914612,-7.094216823577881,2.018617630004883,1.6403591632843018,1.671477198600769,4.478002548217773,0.19178786873817444,1.651854157447815,0.1985217183828354,3.526947498321533
13,19762,19761,0.041542306542396545,-0.049120526760816574,0.9366987943649292,-3.837263345718384,12.517437934875488,1.3293001651763916,1.6717925071716309,4.477790832519531,0.19482991099357605,1.7101584672927856,0.7161757349967957,3.5223753452301025
14,19772,19771,0.07940787822008133,-0.03616835176944733,0.9871016144752502,0.17554032802581787,22.0438232421875,1.36825692653656,1.6680433750152588,4.477379322052002,0.1951690912246704,2.0450310707092285,0.5231608152389526,3.605680227279663
15,19782,19781,0.028944585472345352,-0.012587268836796284,1.0024118423461914,0.8094680309295654,31.003028869628906,0.8912135362625122,1.6679513454437256,4.476499080657959,0.19858397543430328,1.6252785921096802,0.5576781630516052,3.592726707458496
16,19792,19791,-0.03548191115260124,0.02171482890844345,0.9845401644706726,0.6683778166770935,37.53257369995117,0.895514965057373,1.6686679124832153,4.4763312339782715,0.20014458894729614,1.0836479663848877,0.5979406237602234,3.5720529556274414
17,19802,19801,-0.0015411855420097709,-0.002592993201687932,0.9865805506706238,-0.40082263946533203,38.22140121459961,0.955083966255188,1.668708086013794,4.473233699798584,0.20219191908836365,0.7025726437568665,0.7074852585792542,3.5669286251068115
18,19812,19811,0.015164229087531567,-0.004926576744765043,0.9823258519172668,-2.795236825942993,33.274837493896484,0.6434525847434998,1.6700555086135864,4.472562313079834,0.20453931391239166,0.1009584441781044,0.712282121181488,3.5572354793548584
19,19822,19821,0.015589410439133644,-0.013359149917960167,0.9685026407241821,-2.9848456382751465,23.192983627319336,1.057021975517273,1.6665143966674805,4.477234840393066,0.2050539255142212,-0.3152269721031189,0.7478432655334473,3.5547900199890137
20,19832,19831,-0.005674305371940136,0.029794754460453987,0.9408892393112183,-4.384243011474609,9.89919376373291,0.27268847823143005,1.6671044826507568,4.468144416809082,0.20691460371017456,-0.4703274965286255,0.8445107936859131,3.5678529739379883
21,19842,19841,0.017769118770956993,-0.000986470258794725,0.9792714715003967,-5.153725624084473,-1.498520016670227,0.19884660840034485,1.6673367023468018,4.468372821807861,0.20885995030403137,-0.7282325625419617,0.7449397444725037,3.558492422103882
22,19852,19851,0.012460063211619854,0.010448425076901913,0.9686660170555115,-4.754633903503418,-2.958301305770874,-0.5833073258399963,1.6668024063110352,4.466903209686279,0.21136753261089325,-0.7882764935493469,0.7880509495735168,3.5529539585113525
23,19862,19861,0.02040100283920765,0.014788500033318996,1.0154778957366943,-6.279723644256592,-10.641037940979004,-0.5061379075050354,1.6671494245529175,4.4654083251953125,0.21308046579360962,-0.9228769540786743,0.8071437478065491,3.5316836833953857
24,19872,19871,0.0018232574220746756,0.032647304236888885,0.9243727326393127,-7.123257637023926,-11.09467887878418,-0.8329570889472961,1.6651829481124878,4.463901519775391,0.21520300209522247,-0.6201727390289307,0.8017697930335999,3.5482840538024902
25,19882,19881,-0.0011836354387924075,0.02407277747988701,0.9747327566146851,-8.667612075805664,-8.76667308807373,-0.9525737166404724,1.6646121740341187,4.4642133712768555,0.21730521321296692,-0.6499838829040527,0.5489059686660767,3.5136585235595703
26,19892,19891,0.03683452680706978,-0.10266081988811493,0.9954598546028137,-10.541394233703613,-3.8932204246520996,-1.2459274530410767,1.6639546155929565,4.461935997009277,0.22095616161823273,-0.4906494915485382,0.7342339754104614,3.52687668800354
27,19902,19901,-0.0009097752044908702,-0.015909841284155846,1.0235058069229126,-11.630318641662598,1.3764936923980713,-2.0836455821990967,1.665154218673706,4.461402893066406,0.2226765900850296,-0.8068094849586487,0.7806065678596497,3.488138198852539
28,19912,19911,0.023432383313775063,-0.03683475777506828,0.9720611572265625,-12.873208045959473,4.136629104614258,-2.580496311187744,1.6643915176391602,4.461337089538574,0.22441701591014862,-0.8553223609924316,0.7171014547348022,3.4690942764282227
29,19922,19921,0.11458642035722733,-0.07041312009096146,0.975835382938385,-15.970230102539062,5.985226154327393,-2.473170280456543,1.6635966300964355,4.461594581604004,0.22644256055355072,-0.9572769999504089,0.612080991268158,3.4415249824523926
30,19932,19931,0.12934106588363647,-0.17621354758739471,0.9681912064552307,-17.89943504333496,-1.137877106666565,-2.848503828048706,1.66374933719635,4.462441921234131,0.22859233617782593,-1.03192937374115,0.23633790016174316,3.387974739074707
31,19942,19941,0.005678792018443346,-0.0635739415884018,0.9545281529426575,-16.38892364501953,-7.635510444641113,-2.6368818283081055,1.6604682207107544,4.464547157287598,0.23038604855537415,-1.0716890096664429,0.17574624717235565,3.367248773574829
32,19952,19951,0.0161266028881073,-0.029212918132543564,0.9011269211769104,-15.913277626037598,-11.015912055969238,-2.54956316947937,1.661806344985962,4.464337348937988,0.23201601207256317,-1.160499930381775,-0.03483288735151291,3.3206992149353027
33,19962,19961,0.013723419979214668,0.03473026677966118,0.9971179962158203,-11.126574516296387,-16.658905029296875,-2.9729835987091064,1.660556435585022,4.46437406539917,0.23406124114990234,-0.8516858816146851,-0.2943108081817627,3.2941384315490723
34,19972,19971,0.0326942503452301,0.026107879355549812,1.0488649606704712,-6.498207092285156,-20.359113693237305,-2.8548288345336914,1.660598874092102,4.461083889007568,0.23575101792812347,-0.7582759857177734,-0.24243223667144775,3.2893712520599365
35,19982,19981,0.019462797790765762,-0.00018213086877949536,0.9964779615402222,-3.618009328842163,-18.986942291259766,-2.6400890350341797,1.660551905632019,4.458695888519287,0.23745065927505493,-0.6158610582351685,-0.29078587889671326,3.262718439102173
36,19992,19991,-0.026596112176775932,0.09470891952514648,0.9537873864173889,-3.641681432723999,-13.722274780273438,-4.1070990562438965,1.6600840091705322,4.457812786102295,0.23912237584590912,-0.27059417963027954,-0.370616614818573,3.2326819896698
37,20002,20001,-0.0632782131433487,0.19116361439228058,0.937066376209259,-5.873658180236816,-14.13461685180664,-3.179885149002075,1.6601390838623047,4.457308769226074,0.24084214866161346,-0.1177816167473793,-0.4429657459259033,3.189793109893799
38,20012,20011,0.013249565847218037,0.03311679884791374,0.9192906022071838,-7.096165657043457,-6.9903435707092285,-4.219970703125,1.662413239479065,4.456324577331543,0.24253807961940765,-0.07991289347410202,-0.618650496006012,3.139822006225586
39,20022,20021,0.016933351755142212,0.006133297458291054,0.966033399105072,-7.314024925231934,-3.2094061374664307,-4.572378635406494,1.662857174873352,4.459136962890625,0.24630431830883026,-0.25166407227516174,-0.7271593809127808,3.0997049808502197
40,20032,20031,0.011032399721443653,-0.005361251533031464,0.979663610458374,-6.4900970458984375,-1.7346689701080322,-4.6659321784973145,1.6631759405136108,4.4578022956848145,0.24800172448158264,-0.13959139585494995,-0.8275008201599121,3.0502917766571045
41,20042,20041,-0.014147059060633183,-0.012042011134326458,1.048116683959961,-4.603459358215332,-3.0227460861206055,-4.823855400085449,1.6641472578048706,4.458228588104248,0.24955961108207703,-0.18049651384353638,-0.9841663837432861,3.001230478286743
42,20052,20051,-0.02192254550755024,0.020284978672862053,1.0199253559112549,-0.9944671392440796,-5.318806171417236,-4.930983543395996,1.6629242897033691,4.458060264587402,0.25256454944610596,0.02212425135076046,-1.0912144184112549,2.9358808994293213
43,20062,20061,-0.027576280757784843,0.028904419392347336,0.9990753531455994,0.3249181807041168,-7.659046173095703,-4.257202625274658,1.664890170097351,4.4565558433532715,0.25437378883361816,-0.07339801639318466,-0.9784632921218872,2.907634735107422
44,20072,20071,-0.002953931922093034,0.01263953372836113,0.9481541514396667,5.343461990356445,-7.97033166885376,-5.124805450439453,1.6644083261489868,4.454751968383789,0.25637978315353394,0.11704490333795547,-0.975147545337677,2.8456149101257324
45,20082,20081,0.03263560310006142,0.10443821549415588,0.8757813572883606,6.49270486831665,-10.93748664855957,-4.634952068328857,1.6635005474090576,4.454891204833984,0.25813817977905273,0.18666626513004303,-0.9196215271949768,2.793919563293457
46,20092,20091,0.033695485442876816,0.12275195121765137,0.9305412769317627,5.5009846687316895,-11.319172859191895,-4.46664571762085,1.6650946140289307,4.454511642456055,0.2632727324962616,0.16873690485954285,-0.8468976616859436,2.7597522735595703
47,20102,20101,0.017758958041667938,0.09397494792938232,0.9834291338920593,3.4826433658599854,-10.887259483337402,-4.907154083251953,1.664352536201477,4.453232288360596,0.26523715257644653,0.3825102746486664,-0.6591970920562744,2.702190399169922
48,20112,20111,0.005438550841063261,0.00394849618896842,0.9840287566184998,0.13067680597305298,-9.981460571289062,-4.585916042327881,1.6650251150131226,4.453286170959473,0.2669485807418823,0.443338006734848,-0.6632402539253235,2.6586694717407227
49,20122,20121,-0.035833071917295456,-0.05750632286071777,0.9940507411956787,-3.2739784717559814,-8.459565162658691,-4.78934383392334,1.664377212524414,4.452749729156494,0.27112072706222534,0.6401218771934509,-0.71425461769104,2.598949909210205
50,20132,20131,-0.0219425056129694,-0.01963595114648342,0.9566566348075867,-5.578106880187988,-6.110942363739014,-4.082754135131836,1.6635209321975708,4.451992034912109,0.27293092012405396,0.8058649301528931,-0.8170825242996216,2.5429563522338867
51,20142,20141,-0.052054136991500854,-0.09091711789369583,0.9460002779960632,-5.4293212890625,-2.7766029834747314,-3.8596086502075195,1.6632111072540283,4.45100736618042,0.27468299865722656,0.9211801886558533,-0.7938553690910339,2.4935340881347656
52,20152,20151,-0.03232843801379204,-0.21721261739730835,0.9443169832229614,-3.9576706886291504,-0.7978482246398926,-3.224717855453491,1.6634315252304077,4.452280521392822,0.27694591879844666,0.8359081149101257,-0.9053763151168823,2.472824811935425
53,20162,20161,0.018290553241968155,-0.2792685627937317,0.8994985222816467,-1.2319238185882568,3.1121349334716797,-3.9577298164367676,1.6633983850479126,4.452514171600342,0.2786860764026642,0.8609638810157776,-0.9824303388595581,2.437960386276245
54,20172,20171,0.020112833008170128,-0.05976236239075661,0.9104677438735962,1.938537359237671,4.801578521728516,-3.6033518314361572,1.6643184423446655,4.449557781219482,0.28037312626838684,0.8260118365287781,-1.0106761455535889,2.3992395401000977
55,20182,20181,0.008248517289757729,-0.0020944387651979923,0.9391635060310364,5.222987174987793,4.651569366455078,-3.262113094329834,1.6631863117218018,4.4485859870910645,0.2820090651512146,0.8452680110931396,-0.8327879905700684,2.343080759048462
56,20192,20191,0.048406317830085754,-0.042857177555561066,0.9078121781349182,8.187204360961914,3.371863842010498,-2.8993382453918457,1.662243366241455,4.450634479522705,0.2835922837257385,0.8719091415405273,-0.9771139025688171,2.3215105533599854
57,20202,20201,0.05734255164861679,-0.03620491549372673,0.9054942727088928,8.51501178741455,1.8188530206680298,-3.0011463165283203,1.661757469177246,4.450649261474609,0.2850777804851532,0.8415876626968384,-0.8454534411430359,2.290403127670288
58,20212,20211,-0.0032397557515650988,-0.008105685003101826,0.9357037544250488,6.833316802978516,0.7129796743392944,-2.9076035022735596,1.6617299318313599,4.451656341552734,0.2864064574241638,0.8276283144950867,-0.8683836460113525,2.27223801612854
59,20222,20221,0.05635849013924599,-0.006940028164535761,0.8974962830543518,6.016524314880371,-0.0249356459826231,-3.0541882514953613,1.6616499423980713,4.452630519866943,0.29136958718299866,0.8454354405403137,-0.8952709436416626,2.2539379596710205
60,20232,20231,0.11151737719774246,0.023376815021038055,0.8891429901123047,5.562851905822754,0.18843406438827515,-2.7649199962615967,1.6614073514938354,4.453717231750488,0.29268473386764526,0.8743050694465637,-0.9211681485176086,2.2342517375946045
61,20242,20241,0.045347437262535095,0.003135247388854623,0.9207155108451843,6.4086761474609375,1.7471897602081299,-2.694242238998413,1.6621123552322388,4.454827308654785,0.2939104437828064,0.7999995350837708,-0.937405526638031,2.226897716522217
62,20252,20251,0.0626327320933342,0.11543873697519302,0.9343094825744629,9.060296058654785,2.4443068504333496,-2.278132677078247,1.6613781452178955,4.4534783363342285,0.2937963008880615,0.8672252893447876,-0.7060250043869019,2.170936346054077
63,20262,20261,0.01653466559946537,-0.08715913444757462,0.9436282515525818,10.118703842163086,3.693124532699585,-2.033426284790039,1.6604933738708496,4.453039169311523,0.2948286533355713,0.8955665826797485,-0.5264766216278076,2.130122423171997
64,20272,20271,-0.0005505765439011157,0.0006730934837833047,0.9207988381385803,11.269425392150879,4.500946044921875,-1.473414421081543,1.66033136844635,4.4505205154418945,0.2958235442638397,0.8117784261703491,-0.25513777136802673,2.0952160358428955
65,20282,20281,0.017005395144224167,0.10876370966434479,0.9101205468177795,9.706473350524902,4.998781204223633,-1.1874445676803589,1.653067946434021,4.44860315322876,0.297976553440094,1.4407687187194824,0.002766742603853345,1.9699077606201172
66,20292,20291,0.03857572004199028,0.12112059444189072,0.9377789497375488,6.1447367668151855,5.836099147796631,-0.23227575421333313,1.6699944734573364,4.451220989227295,0.3018893301486969,-0.3020195960998535,-0.08715333789587021,2.183067798614502
67,20302,20301,0.0019311611540615559,0.0033607573714107275,0.9377785325050354,0.219485804438591,8.951445579528809,-1.6135820150375366,1.670560359954834,4.45100736618042,0.30292728543281555,-0.3396138846874237,-0.016155309975147247,2.1709811687469482
68,20312,20311,-0.005111953243613243,0.00041980479727499187,0.9410771131515503,-5.177109241485596,6.548491954803467,-1.9119253158569336,1.6695369482040405,4.451981067657471,0.3043021857738495,-0.25504380464553833,-0.12458837777376175,2.147076368331909
69,20322,20321,0.08535654097795486,-0.11082841455936432,0.9495230913162231,-7.62725830078125,-1.5678112506866455,-1.2759195566177368,1.6692984104156494,4.451528072357178,0.3029627799987793,-0.2857339084148407,-0.2917154133319855,2.130652904510498
70,20332,20331,0.09529972076416016,-0.17121049761772156,0.937596321105957,-5.925381660461426,-9.33770751953125,-1.8531172275543213,1.6689363718032837,4.452024936676025,0.30377641320228577,-0.16534873843193054,-0.3921530544757843,2.110154867172241
71,20342,20341,0.032496459782123566,-0.044649604707956314,0.9254465699195862,0.023921847343444824,-16.999975204467773,-1.3601831197738647,1.6674963235855103,4.451406955718994,0.30461880564689636,0.09219327569007874,-0.4348655045032501,2.083372116088867
72,20352,20351,0.029942329972982407,-0.018330706283450127,0.8907918930053711,6.254546165466309,-20.110227584838867,-1.3380941152572632,1.6666332483291626,4.4500627517700195,0.30299919843673706,0.4160347878932953,-0.38237154483795166,2.0575389862060547
73,20362,20361,-0.002716887043789029,0.002887330949306488,0.9622164368629456,11.245298385620117,-19.141010284423828,-0.33822229504585266,1.6659694910049438,4.449371337890625,0.3034166097640991,0.700656533241272,-0.2292734831571579,2.038877487182617
74,20372,20371,-0.01298583298921585,0.01374388113617897,0.987555742263794,13.813742637634277,-12.974853515625,-0.013519062660634518,1.6657886505126953,4.448017120361328,0.30375972390174866,0.8517454862594604,-0.08310819417238235,2.036223888397217
75,20382,20381,0.04216014966368675,-0.021481670439243317,0.9323037266731262,12.05511474609375,-3.626574754714966,-0.15459924936294556,1.664682388305664,4.448453903198242,0.3046814501285553,1.0161077976226807,0.07577177882194519,2.0301530361175537
76,20392,20391,-0.01592697575688362,-0.009177010506391525,1.0030988454818726,8.890691757202148,3.3925869464874268,-0.45000964403152466,1.6649099588394165,4.449063301086426,0.30496472120285034,0.9707508087158203,0.19385798275470734,2.0322771072387695
77,20402,20401,-0.0489836223423481,0.037061966955661774,1.010781168937683,3.0734951496124268,12.308619499206543,-0.5218103528022766,1.6649397611618042,4.4514994621276855,0.3052416741847992,0.8842082023620605,0.09424348175525665,2.0424370765686035
78,20412,20411,-0.007543166633695364,-0.1188177764415741,0.9935089945793152,-2.0246376991271973,21.94173812866211,-0.6626294851303101,1.664272665977478,4.452312469482422,0.30425921082496643,0.8219743967056274,0.07065632939338684,2.0420026779174805
79,20422,20421,0.022264033555984497,-0.1342124044895172,0.9927729964256287,-3.7440216541290283,29.09465789794922,-0.9340452551841736,1.6641956567764282,4.452523708343506,0.3043983578681946,0.6210931539535522,0.05674745514988899,2.0382773876190186
80,20432,20431,0.014269653707742691,-0.09009052067995071,1.0222008228302002,-2.33689284324646,31.83100128173828,-0.9232812523841858,1.6620436906814575,4.452582359313965,0.3045244812965393,0.5516006946563721,0.029032714664936066,2.028886556625366
81,20442,20441,-0.0165998637676239,-0.03580412641167641,1.039815068244934,0.15933272242546082,31.263324737548828,-1.3304697275161743,1.662503719329834,4.453447341918945,0.30469778180122375,0.19730031490325928,-0.043238915503025055,2.0269343852996826
82,20452,20451,-0.004461946431547403,-0.04578186944127083,0.9741691946983337,4.671871662139893,26.996593475341797,-1.111398696899414,1.6621743440628052,4.454794883728027,0.3014891743659973,-0.14897657930850983,-0.06750424206256866,2.0169050693511963
83,20462,20461,0.007536233868449926,-0.013815508224070072,0.9346199035644531,7.579805850982666,22.034786224365234,-1.2238620519638062,1.6599202156066895,4.454162120819092,0.3015919327735901,-0.21294838190078735,0.06098161265254021,1.999160647392273
84,20472,20471,0.062384508550167084,-0.023022018373012543,0.9076939821243286,10.58253002166748,15.526782989501953,-0.8271869421005249,1.6585582494735718,4.4514970779418945,0.3015759289264679,-0.3907647430896759,0.22689922153949738,1.9822078943252563
85,20482,20481,0.020123226568102837,0.01473218109458685,0.9972403049468994,10.504263877868652,10.0155611038208,-0.46282055974006653,1.6557261943817139,4.452579975128174,0.2991824150085449,-0.36482223868370056,0.11736521869897842,1.9844138622283936
86,20492,20491,0.019155722111463547,-0.03350556269288063,0.9825658798217773,8.038818359375,9.296586036682129,-0.30156949162483215,1.6561771631240845,4.451158046722412,0.29896506667137146,-0.5887631773948669,0.31049689650535583,1.977458119392395
87,20502,20501,-0.0224334467202425,0.017564380541443825,1.0387085676193237,6.852705955505371,8.896075248718262,0.5830149054527283,1.654923439025879,4.4515461921691895,0.2986694276332855,-0.6253666281700134,0.40322527289390564,1.9770128726959229
88,20512,20511,0.03812151029706001,-0.04538486897945404,0.9588755965232849,2.0180599689483643,12.816068649291992,0.8751171231269836,1.654018759727478,4.452081203460693,0.2982335388660431,-0.6856651306152344,0.443905770778656,1.9856178760528564
89,20522,20521,-0.01660541445016861,0.0025653368793427944,1.0509649515151978,-0.02431762032210827,15.279194831848145,0.27998027205467224,1.6550698280334473,4.45375919342041,0.29793474078178406,-0.9622422456741333,0.33864277601242065,1.9879664182662964
90,20532,20531,0.02780887670814991,-0.03396276384592056,0.9891467094421387,-0.6418650150299072,16.287973403930664,0.11180384457111359,1.6546616554260254,4.453723907470703,0.2976592779159546,-1.1063766479492188,0.3766881823539734,1.993861198425293
91,20542,20541,0.03243570029735565,0.04290628433227539,1.0081275701522827,-1.50184965133667,16.318164825439453,0.1264689862728119,1.6585344076156616,4.441678047180176,0.2973301112651825,-1.231687068939209,0.4153709411621094,2.0002260208129883
92,20552,20551,0.04402069002389908,-0.0001421627530362457,1.0070428848266602,-0.4712613821029663,14.15893268585205,0.2612929344177246,1.6588842868804932,4.442508697509766,0.2986382246017456,-1.4601805210113525,0.3583318889141083,1.995993971824646
93,20562,20561,-0.02238021232187748,0.0031253721099346876,1.073898196220398,1.3441869020462036,10.843239784240723,-0.07798560708761215,1.659897804260254,4.438918590545654,0.2984364926815033,-1.6292191743850708,0.3969278037548065,1.9990264177322388
94,20572,20571,-0.00903640128672123,-0.04003504291176796,1.0314935445785522,2.8642592430114746,8.14741039276123,0.38335564732551575,1.6592962741851807,4.438663482666016,0.2983003258705139,-1.7375233173370361,0.3859676420688629,1.9956750869750977
95,20582,20581,0.013221049681305885,-0.001088840188458562,1.0450224876403809,4.418292045593262,4.637515068054199,0.4422902464866638,1.659534215927124,4.437514305114746,0.30012238025665283,-1.868656873703003,0.48093393445014954,2.006072759628296
96,20592,20591,0.047684285789728165,0.018951158970594406,1.0631452798843384,7.0690016746521,0.2683675289154053,0.4449736475944519,1.6579111814498901,4.4372148513793945,0.3002963364124298,-1.7676036357879639,0.5911721587181091,2.0316197872161865
97,20602,20601,0.023731116205453873,-0.05442054942250252,1.060415267944336,6.890861511230469,-1.8391292095184326,0.3233252763748169,1.6577509641647339,4.43831729888916,0.30043014883995056,-1.763848900794983,0.5700510740280151,2.0213751792907715
98,20612,20611,0.012284930795431137,-0.039529621601104736,1.0292160511016846,3.6998372077941895,-0.9763913750648499,-0.14204542338848114,1.65762460231781,4.4378767013549805,0.29857197403907776,-1.745978832244873,0.7036727666854858,2.037151336669922
99,20622,20621,0.008560698479413986,-0.005286375992000103,1.023589849472046,1.2231074571609497,0.9268409609794617,-0.4170073866844177,1.657643437385559,4.437657833099365,0.2986658811569214,-1.747877597808838,0.7766379117965698,2.0430824756622314
100,20632,20631,0.0397186316549778,-0.04577100649476051,1.0242873430252075,-1.240695834159851,2.8456695079803467,-0.6946781873703003,1.6577606201171875,4.438436985015869,0.29879239201545715,-1.7766196727752686,0.7249394655227661,2.0257883071899414
101,20642,20641,0.07907867431640625,-0.13854384422302246,1.0411021709442139,-3.718388795852661,3.781811475753784,-0.6815248727798462,1.6572359800338745,4.439283847808838,0.29894277453422546,-1.8230968713760376,0.7064558267593384,2.021190643310547
102,20652,20651,0.03579581156373024,-0.09645873308181763,1.063183069229126,-4.478063583374023,5.052242755889893,-0.5080307722091675,1.6567555665969849,4.439554214477539,0.2991018295288086,-1.8109242916107178,0.6548601388931274,2.0189085006713867
103,20662,20661,0.008455458097159863,-0.019278859719634056,1.0009139776229858,-3.414013147354126,7.2094902992248535,-0.9534651637077332,1.6578208208084106,4.4381184577941895,0.29933279752731323,-1.9007465839385986,0.591961681842804,2.007685661315918
104,20672,20671,-0.007938235066831112,0.02193843014538288,0.9528266191482544,-1.6879762411117554,2.854642868041992,-0.43435296416282654,1.6584354639053345,4.4383416175842285,0.2995438277721405,-2.02506947517395,0.556749165058136,1.9915825128555298
105,20682,20681,0.007326479535549879,-0.006550600286573172,1.0061285495758057,1.3171666860580444,-2.726360559463501,-0.29069533944129944,1.6584354639053345,4.438393592834473,0.2959213852882385,-2.0411603450775146,0.5657951235771179,1.992414116859436
106,20692,20691,-0.006769982166588306,0.019273241981863976,1.046379566192627,2.5491156578063965,-1.6860235929489136,0.3199276626110077,1.658387303352356,4.438238620758057,0.29590845108032227,-2.0013539791107178,0.6103411316871643,2.0022764205932617
107,20702,20701,0.0064627304673194885,-0.019558612257242203,1.0115739107131958,2.956658124923706,-3.058075189590454,0.18968169391155243,1.6590253114700317,4.438059329986572,0.2958613336086273,-2.0207667350769043,0.6657838225364685,2.0094547271728516
108,20712,20711,-0.019972054287791252,0.03708920627832413,1.01604163646698,1.2264600992202759,-4.087873458862305,0.2293034791946411,1.658097505569458,4.43665075302124,0.2966027557849884,-1.9126882553100586,0.7213252782821655,2.023794651031494
109,20722,20721,-0.0356057845056057,0.04076046496629715,1.0623918771743774,-0.23395591974258423,-5.126861572265625,-0.31692904233932495,1.6577893495559692,4.436578273773193,0.29671239852905273,-1.8132569789886475,0.7372531294822693,2.029296875
110,20732,20731,-0.005434413906186819,0.09128500521183014,0.9600419402122498,-4.464653015136719,-2.4207794666290283,-0.5014828443527222,1.657003402709961,4.438109874725342,0.29686447978019714,-1.7459907531738281,0.6252952218055725,1.9992035627365112
111,20742,20741,-0.0418359637260437,0.03180520609021187,1.045386791229248,-4.8423566818237305,-1.3238242864608765,-1.3279465436935425,1.659702181816101,4.432743549346924,0.2969244718551636,-1.7786436080932617,0.6211229562759399,1.99984872341156
112,20752,20751,0.023473454639315605,-0.04884066805243492,0.986548900604248,-4.603382587432861,-0.2498238980770111,-1.174298644065857,1.6612474918365479,4.433144569396973,0.29845911264419556,-1.8841423988342285,0.5356993675231934,1.9665526151657104
113,20762,20761,-0.000740815419703722,0.017231104895472527,1.0505728721618652,-3.9561030864715576,0.16064879298210144,-1.0547897815704346,1.6612989902496338,4.431863784790039,0.29871493577957153,-1.830236554145813,0.4654237926006317,1.9538625478744507
114,20772,20771,0.02041272260248661,-0.013779287226498127,1.0039504766464233,-3.275027275085449,-2.125439405441284,-0.8359734416007996,1.6606624126434326,4.431183338165283,0.29900965094566345,-1.7642556428909302,0.41288939118385315,1.9433460235595703
115,20782,20781,-0.0013893722789362073,-0.04074067249894142,1.0056260824203491,-1.5660319328308105,-4.678536891937256,-0.9686498641967773,1.6608690023422241,4.429749965667725,0.2978076934814453,-1.6632267236709595,0.3787405788898468,1.9373284578323364
116,20792,20791,-0.006973994895815849,-0.011187317781150341,1.0314252376556396,1.4253473281860352,-5.756674766540527,-1.3633273839950562,1.66238534450531,4.424023628234863,0.29800254106521606,-1.5358235836029053,0.3844830095767975,1.9363222122192383
117,20802,20801,0.01621057093143463,-0.07218609750270844,1.0129069089889526,1.7757408618927002,-5.440114974975586,-1.79085111618042,1.6641366481781006,4.423970699310303,0.29816490411758423,-1.698920488357544,0.5061689615249634,1.931193232536316
118,20812,20811,-0.0201391763985157,-0.05568638816475868,0.9968328475952148,1.7939094305038452,-3.572287082672119,-2.3370888233184814,1.6626691818237305,4.420128345489502,0.30006179213523865,-1.5526374578475952,0.5238136649131775,1.9220798015594482
119,20822,20821,-0.005519018042832613,-0.04624134302139282,0.9821334481239319,1.3250679969787598,-4.834054470062256,-2.290225028991699,1.663906455039978,4.420089244842529,0.3003406226634979,-1.5817015171051025,0.5367165803909302,1.8948525190353394
120,20832,20831,0.002649825531989336,-0.010041425935924053,1.002100944519043,-0.6179169416427612,-4.330080509185791,-2.410064935684204,1.6640651226043701,4.419541358947754,0.3006504774093628,-1.5134265422821045,0.6209361553192139,1.8911590576171875
121,20842,20841,0.02189747802913189,0.0021871894132345915,1.0273244380950928,-2.833867311477661,-5.242239475250244,-2.7911713123321533,1.6660151481628418,4.419748306274414,0.29913565516471863,-1.6119604110717773,0.5791680216789246,1.8441818952560425
122,20852,20851,0.018931446596980095,-0.006743450649082661,1.0051023960113525,-6.227201461791992,-5.474972248077393,-2.8793842792510986,1.6657356023788452,4.419939994812012,0.29945433139801025,-1.449581503868103,0.49107274413108826,1.8117583990097046
123,20862,20861,-0.004685680847615004,-0.02849617600440979,1.0086504220962524,-5.857345104217529,-7.435335159301758,-3.5132312774658203,1.6648781299591064,4.41945219039917,0.2997611463069916,-1.2616177797317505,0.37803781032562256,1.7767237424850464
124,20872,20871,-0.0028022739570587873,-0.022866137325763702,0.9878582954406738,-7.886168479919434,-5.551319599151611,-3.649851083755493,1.6651339530944824,4.419947624206543,0.3000126779079437,-1.157486081123352,0.2539324462413788,1.7309490442276
125,20882,20881,0.002030209871008992,0.12085966020822525,0.9486179351806641,-6.68515157699585,-3.2834103107452393,-3.5967180728912354,1.6679929494857788,4.419880390167236,0.3008243143558502,-1.4382083415985107,0.2789466381072998,1.6922558546066284
126,20892,20891,-0.0030666240490972996,0.0593692809343338,0.9888732433319092,-3.0567166805267334,-4.533045291900635,-2.8479998111724854,1.6685667037963867,4.4215898513793945,0.30119311809539795,-1.2671302556991577,0.2672789692878723,1.6786704063415527
127,20902,20901,0.005150231532752514,-0.04469256103038788,0.9946889877319336,-1.1623786687850952,-5.660223484039307,-2.8120458126068115,1.669729471206665,4.420950412750244,0.3013749122619629,-1.2512816190719604,0.3000907897949219,1.657347559928894
128,20912,20911,0.04208487644791603,-0.015531075187027454,0.9539185762405396,1.0740437507629395,-7.105456352233887,-2.5533347129821777,1.6712615489959717,4.420808792114258,0.3034221827983856,-1.2762207984924316,0.2782297432422638,1.6168670654296875
129,20922,20921,0.05765887722373009,-0.05556052178144455,1.0131902694702148,1.7549806833267212,-9.03487777709961,-2.579104423522949,1.672465443611145,4.420865058898926,0.3036864697933197,-1.240305781364441,0.26033681631088257,1.584800124168396
130,20932,20931,-0.0026536749210208654,-0.054405923932790756,1.0914374589920044,-1.6779760122299194,-9.82833194732666,-1.7525501251220703,1.6720737218856812,4.419314861297607,0.304090291261673,-1.0395386219024658,0.3239564001560211,1.5789320468902588
131,20942,20941,-0.040947411209344864,-0.03632095456123352,1.0690786838531494,-1.2114272117614746,-11.114407539367676,-1.9062784910202026,1.674608588218689,4.41985559463501,0.302237868309021,-0.9745184183120728,0.12056426703929901,1.5257015228271484
132,20952,20951,-0.06032227352261543,0.11221093684434891,1.0240447521209717,-3.9412412643432617,-8.548791885375977,-1.8522790670394897,1.6763488054275513,4.418975830078125,0.3025382459163666,-0.839574933052063,0.09646984934806824,1.502993106842041
133,20962,20961,0.015383255667984486,-0.02069314755499363,0.9476838111877441,-2.101608991622925,-8.437738418579102,-1.8769502639770508,1.676863193511963,4.418883800506592,0.3028620481491089,-0.7559706568717957,0.1072828620672226,1.494702696800232
134,20972,20971,0.0240466371178627,0.1314118653535843,0.9687135815620422,-2.386089563369751,-5.106474876403809,-1.715816855430603,1.679104208946228,4.415820598602295,0.303054541349411,-0.8052788376808167,0.15337584912776947,1.476746916770935
135,20982,20981,0.015466663986444473,0.1319061517715454,0.9908324480056763,-0.17291812598705292,-5.821260929107666,-1.6857023239135742,1.6798269748687744,4.415579319000244,0.3040703237056732,-0.6385340094566345,0.11250635981559753,1.4590076208114624
136,20992,20991,-0.012370246462523937,0.0021563530899584293,1.0554184913635254,0.35184717178344727,-5.658417224884033,-2.3645894527435303,1.6810195446014404,4.4154205322265625,0.30434074997901917,-0.6003404855728149,0.09824605286121368,1.4368761777877808
137,21002,21001,-0.08285076916217804,-0.006794384215027094,1.0991533994674683,-1.1033592224121094,-5.017703056335449,-2.1582541465759277,1.685584545135498,4.413805961608887,0.3044643998146057,-0.7746013402938843,0.14300371706485748,1.4140760898590088
138,21012,21011,-0.1007779985666275,-0.0006366593297570944,1.041751742362976,-0.11790181696414948,-5.542860984802246,-2.8274824619293213,1.6846226453781128,4.41289758682251,0.3069484531879425,-0.5136343240737915,0.12586790323257446,1.3912729024887085
139,21022,21021,-0.09297042340040207,0.11668826639652252,1.0065239667892456,-3.54313588142395,-5.810214042663574,-2.559871196746826,1.6844260692596436,4.412184715270996,0.3076015114784241,-0.3539769649505615,0.09949474781751633,1.36114501953125
140,21032,21031,0.02232733555138111,0.023612676188349724,0.9675071835517883,-1.8766353130340576,-7.912167549133301,-2.4143006801605225,1.685720682144165,4.411412239074707,0.3081449270248413,-0.36673691868782043,0.029887355864048004,1.335137963294983
141,21042,21041,0.019231583923101425,0.1061861515045166,1.0025287866592407,-2.5227952003479004,-7.6947784423828125,-2.3287277221679688,1.685444951057434,4.410529136657715,0.3093898594379425,-0.20819607377052307,-0.02312696911394596,1.3102601766586304
142,21052,21051,0.02675611339509487,0.0735565647482872,1.000809907913208,-2.083644390106201,-7.142061233520508,-1.9821332693099976,1.686548113822937,4.409175872802734,0.30997174978256226,-0.14139041304588318,0.07528781145811081,1.292805790901184
143,21062,21061,0.009332085028290749,-0.027240371331572533,0.9899147152900696,-0.9695322513580322,-5.845629692077637,-1.6995266675949097,1.6902772188186646,4.406647682189941,0.31043386459350586,-0.23187565803527832,0.024945532903075218,1.273506999015808
144,21072,21071,-0.056178949773311615,-0.07190306484699249,1.0277729034423828,-0.8312652111053467,-5.160557746887207,-2.2753489017486572,1.6899008750915527,4.407305717468262,0.31113603711128235,-0.08601163327693939,-0.003963367082178593,1.2544918060302734
145,21082,21081,-0.09430820494890213,-0.05316806584596634,1.0377004146575928,-1.3696036338806152,-4.929764270782471,-2.1367712020874023,1.6901159286499023,4.407398700714111,0.31174591183662415,0.06450257450342178,-0.038665711879730225,1.2316116094589233
146,21092,21091,-0.08838653564453125,-0.00039154375554062426,0.9994818568229675,-1.3637248277664185,-3.243755578994751,-2.3192837238311768,1.6919020414352417,4.407508373260498,0.31231704354286194,0.0554506815969944,-0.06915689259767532,1.2101421356201172
147,21102,21101,-0.07904712855815887,0.06292176991701126,0.981009304523468,-1.3913753032684326,-1.7296823263168335,-2.058295965194702,1.692272424697876,4.406795501708984,0.3129974901676178,0.1686914712190628,-0.02328115701675415,1.1850242614746094
148,21112,21111,-0.04831002280116081,0.10649173706769943,0.9670357704162598,-1.8226604461669922,-0.46280181407928467,-2.2114052772521973,1.6930464506149292,4.406097888946533,0.312209814786911,0.16883176565170288,-0.06724576652050018,1.1650276184082031
149,21122,21121,-0.0030332731548696756,0.13316167891025543,0.965329647064209,-1.931681752204895,-0.13579359650611877,-2.4336671829223633,1.6951513290405273,4.405622959136963,0.3126823902130127,0.14781302213668823,-0.11354365944862366,1.1449745893478394
150,21132,21131,0.0233493372797966,0.13935597240924835,0.9808547496795654,-1.7235677242279053,-0.42632898688316345,-2.7730002403259277,1.6976754665374756,4.404016494750977,0.3131121098995209,0.11794622242450714,-0.08473818004131317,1.1179430484771729
151,21142,21141,0.02830573171377182,0.10638517141342163,0.9881798624992371,-0.9863283038139343,-1.8521801233291626,-2.4776158332824707,1.6984570026397705,4.404081344604492,0.31559303402900696,0.16838766634464264,-0.11891975998878479,1.0928146839141846
152,21152,21151,0.01909935288131237,0.04267054423689842,0.9873262047767639,-1.0623801946640015,-2.950209617614746,-2.1962337493896484,1.6998566389083862,4.404116153717041,0.31609129905700684,0.15662303566932678,-0.1452949494123459,1.0720453262329102
153,21162,21161,-0.008612212724983692,-0.015166908502578735,0.9852592945098877,0.4347352385520935,-3.8601043224334717,-2.2303192615509033,1.6995066404342651,4.404246807098389,0.31673383712768555,0.3114492893218994,-0.16960662603378296,1.0475577116012573
154,21172,21171,-0.04660966247320175,-0.04216153919696808,0.9840332865715027,1.5452145338058472,-3.6516921520233154,-2.0829851627349854,1.7023005485534668,4.404277324676514,0.315342515707016,0.17741400003433228,-0.16625924408435822,1.0319344997406006
155,21182,21181,-0.021703682839870453,-0.022080296650528908,0.9804627299308777,1.7295323610305786,-2.832195997238159,-1.7456939220428467,1.7020468711853027,4.40412712097168,0.31583723425865173,0.33912229537963867,-0.1433822512626648,1.0075892210006714
156,21192,21191,-0.10512946546077728,0.0022091506980359554,0.9872419238090515,1.988133430480957,-2.09798264503479,-1.6578789949417114,1.7016966342926025,4.403995513916016,0.3162853419780731,0.49912336468696594,-0.12229625135660172,0.9843971133232117
157,21202,21201,0.02476825937628746,-0.07689954340457916,0.9635576605796814,1.0810503959655762,2.0098443031311035,-1.8064789772033691,1.7044233083724976,4.404374599456787,0.3165349066257477,0.2904145419597626,-0.10369786620140076,0.9761924743652344
158,21212,21211,-0.05755191668868065,0.047129224985837936,0.9672520160675049,1.0918408632278442,2.010451316833496,-1.7821226119995117,1.7052183151245117,4.40489387512207,0.3159116506576538,0.2511218786239624,-0.08819397538900375,0.9578847885131836
159,21222,21221,-0.0843701884150505,0.1365751475095749,0.9741926193237305,0.2014550268650055,2.5884318351745605,-1.9800941944122314,1.7052221298217773,4.4047956466674805,0.3162272274494171,0.339541494846344,-0.07904419302940369,0.9342836737632751
160,21232,21231,-0.04537877440452576,0.15236519277095795,0.9757966995239258,-0.26975980401039124,2.2357587814331055,-2.0434858798980713,1.7054040431976318,4.405161380767822,0.3165011405944824,0.4064341187477112,-0.08569380640983582,0.9133511781692505
161,21242,21241,-0.008758606389164925,0.1348099410533905,0.9823735356330872,-0.32843413949012756,2.0203440189361572,-1.5915130376815796,1.705445408821106,4.405159950256348,0.31619927287101746,0.4657440185546875,-0.09333070367574692,0.8933319449424744
162,21252,21251,0.0068461354821920395,0.10746254026889801,0.9985101222991943,-0.5660114884376526,2.518791437149048,-1.856834053993225,1.7051341533660889,4.404354572296143,0.31638264656066895,0.5096815228462219,-0.10346332937479019,0.8761089444160461
163,21262,21261,0.001964639173820615,-0.0038156085647642612,0.9817832112312317,0.5384334325790405,3.719773530960083,-2.2118217945098877,1.7070977687835693,4.4033331871032715,0.3164864480495453,0.31230393052101135,-0.1088012233376503,0.8637402057647705
164,21272,21271,-0.032871685922145844,0.0058586569502949715,0.9993189573287964,2.3846428394317627,4.541482925415039,-1.8838872909545898,1.708120346069336,4.403292655944824,0.3140404522418976,0.2526121735572815,-0.09717649966478348,0.8420155644416809
165,21282,21281,-0.007698097266256809,-0.009644128382205963,0.9749258160591125,2.601976156234741,5.128105163574219,-2.2033133506774902,1.7073915004730225,4.402431011199951,0.3140771985054016,0.2639830708503723,-0.0542641319334507,0.816375195980072
166,21292,21291,-0.06524189561605453,0.027750425040721893,0.9840279221534729,2.055101156234741,4.7920308113098145,-2.4667134284973145,1.7077155113220215,4.402244567871094,0.3140746057033539,0.26335039734840393,-0.016292957589030266,0.7871679663658142
167,21302,21301,-0.10298492014408112,0.07374253123998642,0.9733604788780212,2.2185492515563965,4.2373738288879395,-2.239133596420288,1.7072546482086182,4.4067230224609375,0.3140363097190857,0.20071689784526825,-0.05608628690242767,0.7716772556304932
168,21312,21311,-0.07044795900583267,0.09541808813810349,0.9646168947219849,2.4223296642303467,3.6334500312805176,-2.00894832611084,1.708258867263794,4.40569543838501,0.3131853938102722,0.1425527185201645,0.049298133701086044,0.7350867390632629
169,21322,21321,-0.05880330130457878,0.10968878865242004,1.0256359577178955,-0.9023182988166809,4.50733757019043,-2.3744406700134277,1.709197759628296,4.405540466308594,0.3130250573158264,0.10292286425828934,0.07079548388719559,0.7109242081642151
170,21332,21331,-0.043637268245220184,0.0593300424516201,1.050897479057312,-0.8341740965843201,4.488589286804199,-1.5839309692382812,1.7102091312408447,4.406473636627197,0.31287845969200134,0.047907132655382156,-0.03200926631689072,0.7094519138336182
171,21342,21341,-0.0021813479252159595,-0.0043346211314201355,1.054166316986084,0.03140024468302727,3.279374599456787,-1.9571048021316528,1.711161494255066,4.40645694732666,0.31495118141174316,0.021505527198314667,-0.032437585294246674,0.6949201822280884
172,21352,21351,-0.024028733372688293,-0.01298175286501646,1.0770978927612305,0.7039756178855896,2.032296895980835,-2.218900442123413,1.7122166156768799,4.405412673950195,0.31503844261169434,0.011767501011490822,0.043256837874650955,0.6655973792076111
173,21362,21361,-0.007388387341052294,-0.05633406341075897,1.0044317245483398,1.4368224143981934,1.4670902490615845,-2.0266551971435547,1.7116174697875977,4.404281139373779,0.31526920199394226,0.08654952794313431,0.049613308161497116,0.635898232460022
174,21372,21371,-0.0011979632545262575,-0.04858478531241417,0.954825758934021,1.905800223350525,1.5859333276748657,-1.6061569452285767,1.7122446298599243,4.403585910797119,0.3167669177055359,0.146952286362648,0.07210997492074966,0.6130837798118591
175,21382,21381,-0.004038538318127394,-0.0143032381311059,0.9969052076339722,1.3671743869781494,1.5978142023086548,-1.4217660427093506,1.7129700183868408,4.402927875518799,0.3169878423213959,0.10886289924383163,0.08926188200712204,0.5934538841247559
176,21392,21391,0.010285262949764729,-0.014484208077192307,1.0061434507369995,0.07596851140260696,3.916165590286255,-2.1221697330474854,1.7143073081970215,4.403421401977539,0.31719842553138733,0.05420970171689987,0.012964020483195782,0.5892443656921387
177,21402,21401,0.005076052621006966,0.0018259637290611863,1.0104299783706665,2.0560758113861084,3.4923553466796875,-2.561993360519409,1.7162529230117798,4.401266574859619,0.31733012199401855,-0.09160551428794861,0.02028493583202362,0.5626440048217773
178,21412,21411,0.044574521481990814,-0.16434720158576965,1.0129811763763428,0.8940481543540955,3.7037153244018555,-1.3554874658584595,1.7158474922180176,4.400224208831787,0.3130013048648834,-0.06779707968235016,0.04197847843170166,0.5342715978622437
179,21422,21421,0.038617730140686035,-0.2172642946243286,1.04160475730896,0.6217279434204102,5.104403018951416,-1.8163636922836304,1.7164103984832764,4.400200366973877,0.3130190670490265,-0.05619235709309578,0.11178361624479294,0.512913703918457
180,21432,21431,0.026233062148094177,-0.1535700261592865,1.0117673873901367,2.2075517177581787,4.882181167602539,-2.118373155593872,1.7179036140441895,4.399580955505371,0.3129660189151764,-0.18874141573905945,0.12499948590993881,0.4943484663963318
181,21442,21441,0.01873687282204628,0.07336816936731339,0.9308514595031738,1.3394595384597778,5.198336124420166,-2.8768632411956787,1.7188371419906616,4.399728298187256,0.3141377866268158,-0.18254899978637695,0.057772137224674225,0.48023736476898193
182,21452,21451,0.0064439550042152405,0.21188487112522125,0.9244096875190735,-0.07771144062280655,3.7585105895996094,-3.077988624572754,1.721484661102295,4.397854328155518,0.31405961513519287,-0.3706981837749481,0.1369904726743698,0.4500521719455719
183,21462,21461,0.059469159692525864,0.14701056480407715,0.8447579741477966,-2.713641405105591,-1.1136378049850464,-2.164642810821533,1.721083402633667,4.3970746994018555,0.31413641571998596,-0.32601168751716614,0.1176406741142273,0.41552335023880005
184,21472,21471,-0.013706346973776817,-0.020644066855311394,1.0193116664886475,-3.851590394973755,-7.407598495483398,-1.2971704006195068,1.7217140197753906,4.398001670837402,0.30978891253471375,-0.2748342454433441,0.06210532411932945,0.3950585722923279
185,21482,21481,-0.0005886203143745661,-0.005880976561456919,1.0477274656295776,-2.955068588256836,-3.2126176357269287,-1.699059247970581,1.7237130403518677,4.396869659423828,0.3092842996120453,-0.37628310918807983,0.07637350261211395,0.37588557600975037
186,21492,21491,0.05235578492283821,0.00046489512897096574,1.008008360862732,-2.8714241981506348,-1.7354873418807983,-1.3744863271713257,1.7231489419937134,4.397597312927246,0.3090459406375885,-0.27263733744621277,0.013588137924671173,0.360893577337265
187,21502,21501,-0.003949505276978016,-0.02629939652979374,1.0491678714752197,-3.076408624649048,-1.7285206317901611,-1.1129100322723389,1.723594307899475,4.39651346206665,0.3084715008735657,-0.2390066683292389,0.03292899578809738,0.3437937796115875
188,21512,21511,-0.07253315299749374,-0.021283436566591263,1.083530306816101,-1.987178087234497,-1.1234259605407715,-1.0379645824432373,1.7236593961715698,4.395900249481201,0.30820590257644653,-0.178139328956604,-0.017714528366923332,0.32755154371261597
189,21522,21521,-0.08556420356035233,0.03450072556734085,1.0536038875579834,-1.2867414951324463,0.7592102289199829,-0.6058531403541565,1.7240188121795654,4.394618034362793,0.3080369532108307,-0.046482935547828674,0.02198938839137554,0.31494140625
190,21532,21531,-0.02348994091153145,-0.0027526714839041233,1.0334230661392212,-0.5361574292182922,3.7923755645751953,0.19023603200912476,1.7248051166534424,4.394069671630859,0.30788442492485046,0.00243227556347847,-0.011162805370986462,0.3114660084247589
191,21542,21541,0.023375455290079117,0.06052529066801071,0.9872053861618042,-0.11470036953687668,5.540865421295166,0.16872179508209229,1.7281885147094727,4.394094467163086,0.30913981795310974,-0.28475502133369446,-0.02666032873094082,0.316882461309433
192,21552,21551,0.05546380579471588,0.010308071970939636,1.0190054178237915,0.3879426419734955,5.682497978210449,0.3117489814758301,1.7281553745269775,4.394524574279785,0.30914124846458435,-0.2955631613731384,-0.04285184293985367,0.3207985758781433
193,21562,21561,0.08508587628602982,-0.104908287525177,1.01115882396698,-0.43289715051651,4.024323463439941,0.6342016458511353,1.7287898063659668,4.395120143890381,0.3090754449367523,-0.3808249831199646,-0.0677003487944603,0.32693246006965637
194,21572,21571,0.029223473742604256,-0.18113581836223602,1.0143667459487915,0.5664465427398682,-0.37916433811187744,0.34831300377845764,1.7290370464324951,4.396141052246094,0.30902162194252014,-0.40888795256614685,-0.004243194125592709,0.33640167117118835
195,21582,21581,-0.032720282673835754,-0.10425131022930145,0.9992780685424805,0.16218429803848267,-3.6346113681793213,0.6332134008407593,1.728913426399231,4.396109580993652,0.3091028332710266,-0.2978275716304779,-0.012488959357142448,0.3371211886405945
196,21592,21591,-0.017406072467565536,-0.05814739316701889,0.9424177408218384,-0.6215623617172241,-5.356937885284424,0.7439209818840027,1.7310081720352173,4.3960957527160645,0.3089728057384491,-0.383205384016037,-0.01789342425763607,0.3430253863334656
197,21602,21601,-0.00015230664575938135,0.018101461231708527,1.0034674406051636,-0.6044840216636658,-4.679646015167236,1.039979100227356,1.731000304222107,4.39543342590332,0.3090059757232666,-0.2753632962703705,-0.04608044773340225,0.3441021144390106
198,21612,21611,0.028628772124648094,-0.020347246900200844,0.9849633574485779,-1.5474039316177368,-4.839327335357666,1.3612613677978516,1.731070876121521,4.395064830780029,0.30898913741111755,-0.17851276695728302,-0.07821262627840042,0.35541868209838867
199,21622,21621,-0.015586658380925655,-0.020190637558698654,1.0217901468276978,-0.8286449909210205,-3.607210636138916,1.0884827375411987,1.7337793111801147,4.394535064697266,0.308827668428421,-0.24183934926986694,-0.10941343009471893,0.3693765699863434
200,21632,21631,-0.05289103090763092,0.050945769995450974,1.01375412940979,-0.270076721906662,-1.6190129518508911,1.105891227722168,1.7346738576889038,4.394166469573975,0.3087669610977173,-0.22824199497699738,-0.1198209747672081,0.37858691811561584
201,21642,21641,-0.08900486677885056,0.13122257590293884,1.0012683868408203,-0.30987536907196045,0.7962266802787781,1.157211184501648,1.734572172164917,4.39411735534668,0.30816495418548584,-0.11661441624164581,-0.1306932121515274,0.38509801030158997
202,21652,21651,-0.04679816961288452,0.08701270818710327,0.9581642746925354,0.4290997385978699,1.047904372215271,1.1148569583892822,1.7344709634780884,4.393588542938232,0.3081458806991577,-0.04382900893688202,-0.13333861529827118,0.39306968450546265
203,21662,21661,-0.028096746653318405,0.05428273230791092,1.0463565587997437,1.962733507156372,2.0673322677612305,1.1198357343673706,1.7364678382873535,4.393245697021484,0.30800876021385193,-0.1408499926328659,-0.1272166222333908,0.4055837392807007
204,21672,21671,0.04421035572886467,-0.09940246492624283,0.9900815486907959,2.413161039352417,3.052638292312622,0.7076298594474792,1.736289381980896,4.391427516937256,0.30514857172966003,-0.08586139231920242,-0.08642864972352982,0.39779362082481384
205,21682,21681,-0.026525333523750305,-0.041499800980091095,1.0420811176300049,1.167792797088623,4.065324306488037,1.054900050163269,1.7373292446136475,4.39132833480835,0.3049217760562897,-0.1458478569984436,-0.06185877323150635,0.40708857774734497
206,21692,21691,0.017069188877940178,-0.032615624368190765,1.0068457126617432,0.7975651025772095,4.276109218597412,0.6278067231178284,1.7385077476501465,4.391139507293701,0.3047093451023102,-0.2040223777294159,-0.050568319857120514,0.4166434705257416
207,21702,21701,0.004280474968254566,-0.02766546979546547,0.9647278189659119,0.9037463068962097,4.038665294647217,0.12980268895626068,1.7413880825042725,4.3914794921875,0.3041095733642578,-0.4886881709098816,-0.04699567332863808,0.4264119863510132
208,21712,21711,0.003524024737998843,-0.037602171301841736,0.9996095895767212,0.8285068869590759,-0.20925720036029816,0.6220763921737671,1.7427690029144287,4.3908281326293945,0.30392494797706604,-0.4726494252681732,-0.036095209419727325,0.4293461740016937
209,21722,21721,0.01019519753754139,-0.023169536143541336,0.998898446559906,0.44539880752563477,-3.5983519554138184,1.2157615423202515,1.7433536052703857,4.391537666320801,0.3037593960762024,-0.4043258726596832,-0.10551727563142776,0.43733420968055725
210,21732,21731,-0.0033035739324986935,-0.006698565557599068,1.0523347854614258,0.277923583984375,-7.325009346008301,0.9318888187408447,1.7444814443588257,4.391502380371094,0.30353090167045593,-0.362418532371521,-0.09274650365114212,0.44903644919395447
211,21742,21741,0.0312659926712513,-0.02617194689810276,1.0026991367340088,0.7810665369033813,-8.664772987365723,1.6665585041046143,1.7448256015777588,4.3906683921813965,0.3058115541934967,-0.20153966546058655,-0.004491112194955349,0.46019411087036133
212,21752,21751,-0.029432810842990875,-0.01869499869644642,1.0413087606430054,0.900551438331604,-7.714101314544678,1.8835114240646362,1.7446975708007812,4.389971733093262,0.305864155292511,-0.033884547650814056,0.0020727470982819796,0.46916112303733826
213,21762,21761,0.029552070423960686,-0.024115994572639465,1.0027912855148315,0.841791033744812,-5.2265543937683105,1.9933412075042725,1.7442139387130737,4.390652179718018,0.30598533153533936,0.18090860545635223,-0.06626413017511368,0.4867091178894043
214,21772,21771,-0.023481231182813644,0.020718974992632866,1.0617212057113647,0.41582363843917847,-1.424257516860962,1.8025344610214233,1.746313214302063,4.390638828277588,0.30917584896087646,0.0960470587015152,-0.05687832459807396,0.5085567235946655
215,21782,21781,0.010943622328341007,-0.009734450839459896,1.0304385423660278,0.7274242043495178,2.4001011848449707,1.739946722984314,1.7494926452636719,4.38991117477417,0.30929186940193176,-0.1470843255519867,0.02681230939924717,0.5515722632408142
216,21792,21791,-0.02178487926721573,0.038602765649557114,1.082227110862732,1.337326169013977,4.663102149963379,1.3665348291397095,1.747981071472168,4.394640922546387,0.30970871448516846,-0.10660931468009949,0.04562938213348389,0.5670395493507385
217,21802,21801,0.034886281937360764,-0.04445187374949455,1.0116870403289795,0.3077966272830963,6.908345699310303,0.5640361905097961,1.748762845993042,4.395298957824707,0.30770576000213623,-0.24997258186340332,0.05452477186918259,0.5788515210151672
218,21812,21811,-0.04674672707915306,0.01769799366593361,1.0528441667556763,-0.4092739224433899,1.98642897605896,0.973468542098999,1.7470704317092896,4.397012233734131,0.3080827295780182,-0.18624065816402435,0.048593029379844666,0.5844005346298218
219,21822,21821,0.02230171300470829,-0.08944827318191528,1.0038472414016724,-1.6216074228286743,0.04053076356649399,0.923468828201294,1.7475287914276123,4.392911434173584,0.30830708146095276,-0.24958494305610657,0.1082858219742775,0.5601171255111694
220,21832,21831,0.052434198558330536,-0.08411319553852081,1.0705703496932983,-1.9831169843673706,-6.24472713470459,1.46448814868927,1.7469367980957031,4.392333507537842,0.30647513270378113,-0.09371328353881836,0.07200869917869568,0.5616325736045837
221,21842,21841,0.04531879350543022,-0.04683016240596771,1.0018854141235352,-0.8361145257949829,-6.791934490203857,0.8039997220039368,1.7483009099960327,4.393145561218262,0.3066866397857666,-0.050245191901922226,0.03308016434311867,0.5794131755828857
222,21852,21851,0.0032502044923603535,-0.012753917835652828,1.007949948310852,-2.1688177585601807,-3.5220444202423096,0.9639608263969421,1.7487934827804565,4.39323091506958,0.3069669008255005,0.012273377738893032,-0.07276589423418045,0.5810719728469849
223,21862,21861,0.029210800305008888,-0.04772421717643738,0.9279849529266357,-0.08733317255973816,-4.577066898345947,1.5659408569335938,1.7510251998901367,4.39238977432251,0.30716782808303833,0.03560102730989456,-0.09814682602882385,0.5957559943199158
224,21872,21871,0.019194195047020912,-0.04180413857102394,0.9683042168617249,0.8078280091285706,-3.0189945697784424,2.3102777004241943,1.7515509128570557,4.394079208374023,0.30449870228767395,0.04647139459848404,-0.02920987643301487,0.6220303773880005
225,21882,21881,0.06386446207761765,-0.11745297908782959,1.0083324909210205,1.6656818389892578,-0.14930032193660736,2.605431079864502,1.7518569231033325,4.393317699432373,0.3045300245285034,0.10095550119876862,-0.01785915531218052,0.6382067799568176
226,21892,21891,0.006470450200140476,-0.05687562748789787,1.0238584280014038,2.2871851921081543,1.7575773000717163,2.3418402671813965,1.7530792951583862,4.392129421234131,0.3045455515384674,0.11555002629756927,0.0025867929216474295,0.6621471047401428
227,21902,21901,-0.00809468887746334,0.023648034781217575,1.017622709274292,0.8371889591217041,2.9161159992218018,2.9552807807922363,1.7539665699005127,4.391138553619385,0.3064345121383667,0.09614070504903793,0.104985810816288,0.6845818758010864
228,21912,21911,0.037577759474515915,-0.08467996120452881,0.9713360667228699,0.6360634565353394,5.091920852661133,2.6448628902435303,1.754954218864441,4.391077041625977,0.3065735101699829,0.05866499990224838,0.10598526149988174,0.7145640850067139
229,21922,21921,0.028995996341109276,-0.03810810670256615,0.9357004165649414,-0.11864329874515533,5.460353374481201,2.260491132736206,1.7557653188705444,4.3899946212768555,0.30674514174461365,0.06072259321808815,0.10063669830560684,0.7381675839424133
230,21932,21931,0.03033466823399067,-0.03676503896713257,0.9545527100563049,-2.0797486305236816,3.5779974460601807,2.5762147903442383,1.7575528621673584,4.389869689941406,0.30613189935684204,-0.07041069865226746,0.06633514165878296,0.7646798491477966
231,21942,21941,0.057264477014541626,-0.09453975409269333,0.9963887333869934,-3.8964996337890625,2.5971240997314453,2.4817516803741455,1.759401798248291,4.390100955963135,0.30606764554977417,-0.20037688314914703,0.004683497827500105,0.7937123775482178
232,21952,21951,0.029681626707315445,-0.15104220807552338,1.0797021389007568,-5.911494255065918,0.5525398850440979,2.7903852462768555,1.7605674266815186,4.391228675842285,0.3061011731624603,-0.20579032599925995,-0.09131515026092529,0.8302248120307922
233,21962,21961,0.03632039204239845,-0.17539873719215393,1.0631389617919922,-1.6977002620697021,-4.240927219390869,3.0999927520751953,1.7605359554290771,4.390010356903076,0.30631664395332336,-0.09134221076965332,-0.01909988932311535,0.8526667356491089
234,21972,21971,-0.02527395263314247,-0.03217712417244911,1.043623447418213,-0.11896786093711853,-3.721268653869629,2.7509660720825195,1.7589771747589111,4.393575191497803,0.3060547113418579,0.002383262850344181,-0.056139107793569565,0.8976064324378967
235,21982,21981,0.030858632177114487,0.07129006087779999,0.9109739065170288,2.075427770614624,-3.482093572616577,3.3095102310180664,1.761015772819519,4.394313812255859,0.30610138177871704,-0.07841330766677856,-0.13482894003391266,0.9299357533454895
236,21992,21991,-0.022907909005880356,0.07849308848381042,1.043765902519226,2.085486650466919,-2.961491346359253,3.2598531246185303,1.763227105140686,4.393283843994141,0.30616751313209534,-0.06157468631863594,-0.10790795087814331,0.9641037583351135
237,22002,22001,0.0718580111861229,-0.05526674538850784,0.9875465035438538,1.654535174369812,1.345001459121704,3.3299100399017334,1.7644658088684082,4.3897199630737305,0.30594485998153687,0.08529023081064224,-0.0037911804392933846,0.9832220077514648
238,22012,22011,0.020698368549346924,-0.03156653791666031,1.0698760747909546,0.18034739792346954,-0.5616406798362732,3.1580159664154053,1.7662135362625122,4.389479160308838,0.3059924244880676,0.017321685329079628,0.0023094466887414455,1.0156151056289673
239,22022,22021,-0.046006735414266586,0.019158970564603806,1.022242546081543,-0.07425114512443542,0.7554302215576172,3.395925283432007,1.7675100564956665,4.386945724487305,0.30608275532722473,-0.044728245586156845,-0.012643933296203613,1.0256649255752563
240,22032,22031,-0.0496087521314621,0.18060460686683655,1.0064700841903687,-1.8158960342407227,3.712899684906006,3.5489110946655273,1.7679964303970337,4.386662006378174,0.3083266317844391,0.02338866889476776,-0.032669518142938614,1.0597213506698608
241,22042,22041,0.010180609300732613,0.14672014117240906,1.0134817361831665,-2.504265546798706,3.221036434173584,3.5284667015075684,1.7676550149917603,4.3873291015625,0.3086846172809601,0.04633943736553192,-0.07497169822454453,1.0970059633255005
242,22052,22051,0.03474235534667969,0.08514784276485443,1.0597014427185059,-2.572296142578125,2.6025357246398926,3.4741172790527344,1.7723467350006104,4.383169174194336,0.30879154801368713,-0.22336305677890778,-0.054876502603292465,1.1097828149795532
243,22062,22061,-0.005801308434456587,0.040727097541093826,1.0360291004180908,-2.0029685497283936,1.6772534847259521,3.3648364543914795,1.7729068994522095,4.383055686950684,0.31261247396469116,-0.15474025905132294,-0.10975635796785355,1.1422473192214966
244,22072,22071,-0.014018070884048939,-0.01756003499031067,1.005098581314087,-1.0445020198822021,0.46412035822868347,3.219506025314331,1.7706081867218018,4.386221408843994,0.3133400082588196,-0.07011023908853531,-0.07301689684391022,1.1884573698043823
245,22082,22081,-0.029329733923077583,0.05123467743396759,0.9358454346656799,0.2992212474346161,-2.9933266639709473,3.5095126628875732,1.7726653814315796,4.385878562927246,0.31388306617736816,-0.14319075644016266,-0.09041979908943176,1.2194324731826782
246,22092,22091,-0.034550637006759644,0.028766382485628128,1.0271844863891602,0.9853814840316772,-5.440605163574219,3.4342610836029053,1.7743476629257202,4.381233215332031,0.31446802616119385,-0.04386487603187561,-0.025486541911959648,1.2336429357528687
247,22102,22101,0.011503655463457108,-0.047886986285448074,0.9879590272903442,0.48066309094429016,-3.9613025188446045,3.235231637954712,1.7764350175857544,4.377001762390137,0.3152022063732147,0.042409222573041916,-0.025310911238193512,1.2445262670516968
248,22112,22111,-0.015118258073925972,0.02607552893459797,1.0243438482284546,-0.14906060695648193,-2.481981039047241,3.0452747344970703,1.7776813507080078,4.3777947425842285,0.31578004360198975,0.04926475137472153,-0.1174505427479744,1.278828740119934
249,22122,22121,-0.01782362163066864,0.009883399121463299,0.9971109628677368,-1.484323263168335,0.4761704206466675,2.826749324798584,1.778442144393921,4.373028755187988,0.3164432942867279,0.1597500890493393,-0.06881606578826904,1.2760857343673706
250,22132,22131,-0.00017737509915605187,-0.03308406472206116,0.968143105506897,-1.7444268465042114,3.5719377994537354,2.9398953914642334,1.778896450996399,4.3704328536987305,0.31927111744880676,0.07559198141098022,-0.11173307150602341,1.2700666189193726
251,22142,22141,0.055276963859796524,-0.013755164109170437,0.8952765464782715,-1.7938660383224487,6.121020317077637,2.773052453994751,1.7804510593414307,4.370881080627441,0.3199111223220825,-0.07740971446037292,-0.14677968621253967,1.2817420959472656
252,22152,22151,0.10771962255239487,-0.07724341005086899,0.9317035675048828,-1.438994288444519,5.0307159423828125,2.99153733253479,1.783459186553955,4.3694610595703125,0.3204808533191681,-0.1599644273519516,-0.11275637149810791,1.3251655101776123
253,22162,22161,0.02074301615357399,-0.041859567165374756,0.9822364449501038,-1.5100343227386475,2.843416690826416,2.8902690410614014,1.78510582447052,4.368220329284668,0.3238186538219452,-0.20127911865711212,-0.1501396894454956,1.354902982711792
254,22172,22171,0.03618061915040016,-0.1500902771949768,0.979796290397644,-1.2861489057540894,1.9434572458267212,2.2287604808807373,1.7881618738174438,4.362546443939209,0.32443922758102417,-0.28000763058662415,-0.04290148243308067,1.3540687561035156
255,22182,22181,0.02160714939236641,-0.14343449473381042,0.9436255097389221,-1.2413171529769897,-2.9390201568603516,2.684828519821167,1.7887828350067139,4.362046241760254,0.3252606987953186,-0.16298732161521912,-0.08611828088760376,1.3786988258361816
256,22192,22191,-0.029179206117987633,-0.12039652466773987,0.9582295417785645,-2.3239738941192627,-5.292506217956543,2.498173952102661,1.7870804071426392,4.366426944732666,0.32605066895484924,-0.06532155722379684,-0.12972082197666168,1.4271067380905151
257,22202,22201,0.0009334813803434372,-0.00851245317608118,0.9585948586463928,-3.9200661182403564,-5.359174728393555,2.5253891944885254,1.7872414588928223,4.366355895996094,0.32456934452056885,0.02846243418753147,-0.20258773863315582,1.444793701171875
258,22212,22211,-0.019497141242027283,0.12243977934122086,0.9698434472084045,-4.379335880279541,-4.822007656097412,2.092014789581299,1.7874808311462402,4.366328239440918,0.32506048679351807,0.13642211258411407,-0.2878737151622772,1.468213677406311
259,22222,22221,-0.029397068545222282,0.16383066773414612,0.956784188747406,-3.666013479232788,-2.14347505569458,2.4758927822113037,1.788329005241394,4.365062236785889,0.32547715306282043,0.13682354986667633,-0.2941713333129883,1.4765998125076294
260,22232,22231,0.004012731369584799,0.1523076891899109,0.9779735803604126,-0.7132577896118164,0.9017351269721985,2.19284725189209,1.7890437841415405,4.365335941314697,0.3235882520675659,0.150258868932724,-0.35495468974113464,1.4999494552612305
261,22242,22241,0.02004750818014145,0.033844318240880966,0.9848673343658447,-0.20053242146968842,4.423952579498291,1.753156065940857,1.790385127067566,4.361750602722168,0.3238116204738617,0.18203742802143097,-0.3009481132030487,1.498285174369812
262,22252,22251,0.04760612174868584,-0.11726389080286026,0.9526839256286621,1.0790492296218872,6.368790626525879,1.8247114419937134,1.794010877609253,4.360964298248291,0.32384586334228516,-0.13249708712100983,-0.23434723913669586,1.5218144655227661
263,22262,22261,0.026303354650735855,-0.05377800762653351,0.9529436230659485,1.2517774105072021,6.020017147064209,2.0218851566314697,1.7968778610229492,4.3544487953186035,0.32474008202552795,-0.12814560532569885,-0.22900211811065674,1.4969277381896973
264,22272,22271,0.005267138592898846,-0.11621539294719696,0.9396181702613831,1.4914261102676392,4.197839260101318,2.554837703704834,1.795484185218811,4.357610702514648,0.32499194145202637,-0.12062375992536545,-0.2200598269701004,1.533951997756958
265,22282,22281,0.0009295150521211326,-0.15091146528720856,0.8739067316055298,-0.08318530768156052,1.5821540355682373,2.498838186264038,1.7956860065460205,4.357516288757324,0.3251529037952423,-0.08455291390419006,-0.2149033546447754,1.5568898916244507
266,22292,22291,-0.0401056744158268,0.0603092797100544,0.9278765916824341,-2.015777111053467,0.2746169865131378,1.6077826023101807,1.7955929040908813,4.356709957122803,0.32524755597114563,-0.02279926836490631,-0.2484937161207199,1.563714861869812
267,22302,22301,-0.04114045202732086,0.062294963747262955,0.9920185208320618,-3.4788331985473633,-1.6340012550354004,1.9271514415740967,1.7970449924468994,4.356861114501953,0.32392415404319763,-0.07978963851928711,-0.3059636652469635,1.5869135856628418
268,22312,22311,-0.083246149122715,0.013456592336297035,1.052403211593628,-2.1137948036193848,-0.5183164477348328,1.6900380849838257,1.7960994243621826,4.360596656799316,0.32381901144981384,-0.05260193720459938,-0.2938242256641388,1.6336934566497803
269,22322,22321,-0.0887269675731659,0.026111701503396034,1.0348771810531616,-0.5938873291015625,1.0841064453125,1.3935003280639648,1.79767644405365,4.357458114624023,0.3236978054046631,-0.04695536196231842,-0.3417819142341614,1.6217727661132812
270,22332,22331,-0.020390965044498444,-0.016831884160637856,0.9733768701553345,0.007590447086840868,3.7273998260498047,1.6734036207199097,1.7974357604980469,4.355808734893799,0.32050344347953796,-0.0031458998564630747,-0.28581273555755615,1.6193369626998901
271,22342,22341,-0.02369222231209278,0.10142366588115692,0.9374839663505554,0.3166925311088562,5.748803615570068,1.6653079986572266,1.799054741859436,4.354343414306641,0.3201511800289154,-0.16051556169986725,-0.30184635519981384,1.6224465370178223
272,22352,22351,0.009023590013384819,0.01269373670220375,0.9550340175628662,0.7907454371452332,6.127388954162598,2.0058271884918213,1.7992074489593506,4.353329181671143,0.31987684965133667,-0.16320571303367615,-0.23263196647167206,1.6385537385940552
273,22362,22361,-0.0034319853875786066,-0.037608932703733444,0.9744775891304016,-0.9408853650093079,5.713564395904541,1.807862639427185,1.800518274307251,4.353001594543457,0.3195299208164215,-0.24973446130752563,-0.2534567713737488,1.660528540611267
274,22372,22371,0.025198552757501602,-0.12959130108356476,1.0354148149490356,-1.7240053415298462,4.671719074249268,1.4658561944961548,1.800093650817871,4.354186534881592,0.3192068934440613,-0.26882678270339966,-0.294624924659729,1.6809906959533691
275,22382,22381,0.04704328626394272,-0.2409820854663849,1.015006184577942,-2.169745445251465,3.141834020614624,1.071985125541687,1.800358533859253,4.354334831237793,0.31889352202415466,-0.2577263116836548,-0.3420933187007904,1.6936748027801514
276,22392,22391,-0.02860288694500923,-0.011233915574848652,1.0622402429580688,-1.0212552547454834,1.8504419326782227,1.4123573303222656,1.8013538122177124,4.350449085235596,0.31860122084617615,-0.2329435646533966,-0.30700069665908813,1.6743943691253662
277,22402,22401,0.11447009444236755,0.05136024206876755,0.84031081199646,-0.8762413859367371,3.026602029800415,0.7197054028511047,1.8037331104278564,4.350854873657227,0.3160420060157776,-0.4689440131187439,-0.3290421664714813,1.6920512914657593
278,22412,22411,0.010727827437222004,0.017492912709712982,1.0266410112380981,-1.2991029024124146,1.3706716299057007,0.7869094014167786,1.8055784702301025,4.348016738891602,0.3154889643192291,-0.48528188467025757,-0.36191195249557495,1.678391695022583
279,22422,22421,0.05546211451292038,-0.16245755553245544,1.0447907447814941,-0.1605345606803894,0.29242491722106934,1.2430979013442993,1.804695963859558,4.348891735076904,0.3150660991668701,-0.41669461131095886,-0.39505791664123535,1.6844362020492554
280,22432,22431,0.04256715998053551,-0.2314939796924591,1.0196062326431274,0.0918082594871521,-0.8755341172218323,1.1634310483932495,1.8044822216033936,4.3489532470703125,0.3117058575153351,-0.3214155435562134,-0.4107361435890198,1.6931062936782837
281,22442,22441,0.015574256889522076,-0.12928155064582825,0.9739032983779907,1.4735184907913208,-0.7155801057815552,0.732557475566864,1.8031351566314697,4.351918697357178,0.31113865971565247,-0.22225956618785858,-0.4063892662525177,1.722357988357544
282,22452,22451,0.06178160384297371,-0.09114789962768555,0.9606221318244934,1.9358906745910645,1.4424333572387695,0.8921664357185364,1.8064119815826416,4.351098537445068,0.31032925844192505,-0.3746849596500397,-0.38161754608154297,1.7320911884307861
283,22462,22461,0.06646464765071869,-0.101647287607193,1.0721105337142944,1.2609024047851562,3.1711196899414062,0.8432877063751221,1.8086423873901367,4.350541114807129,0.307991087436676,-0.5442109704017639,-0.3581315875053406,1.7496740818023682
284,22472,22471,0.058106329292058945,-0.06107991188764572,1.0294363498687744,2.2758255004882812,3.407862663269043,0.6802495718002319,1.8088908195495605,4.3503031730651855,0.3073464632034302,-0.4987640380859375,-0.3445155620574951,1.7544970512390137
285,22482,22481,0.010418969206511974,-0.07335352897644043,0.9546021819114685,2.748745918273926,3.7232778072357178,0.4053930342197418,1.8106924295425415,4.350194454193115,0.306535542011261,-0.620599091053009,-0.3088965117931366,1.762294888496399
286,22492,22491,0.03765559569001198,-0.12211307138204575,1.0055476427078247,1.1294682025909424,3.403993844985962,1.2801358699798584,1.8113360404968262,4.34467887878418,0.31056490540504456,-0.5785918831825256,-0.2724992632865906,1.704932451248169
287,22502,22501,0.04350391402840614,-0.07582317292690277,1.0560462474822998,1.368849515914917,-2.954789400100708,1.4995367527008057,1.813675880432129,4.345407009124756,0.30999255180358887,-0.6996750831604004,-0.32703936100006104,1.7229267358779907
288,22512,22511,0.010606436058878899,-0.01303360890597105,1.0398502349853516,1.5379303693771362,-4.372617244720459,1.2987369298934937,1.8120170831680298,4.345573425292969,0.31018295884132385,-0.5222243070602417,-0.30441373586654663,1.7327072620391846
289,22522,22521,-0.004236390348523855,-0.008944428525865078,1.1023190021514893,1.5518503189086914,-5.5083394050598145,1.817849040031433,1.8118197917938232,4.345490455627441,0.3099468946456909,-0.342263787984848,-0.2856716811656952,1.7463603019714355
290,22532,22531,0.020891467109322548,-0.02107478864490986,1.0573415756225586,3.1048922538757324,-6.14896297454834,1.419840931892395,1.8145266771316528,4.344663619995117,0.30690473318099976,-0.4445886015892029,-0.274054616689682,1.7522177696228027
291,22542,22541,0.015628177672624588,0.0009606347302906215,1.0471597909927368,3.0188164710998535,-3.468317747116089,1.024658441543579,1.8151440620422363,4.3449177742004395,0.3065110445022583,-0.3623731732368469,-0.20010054111480713,1.783334493637085
292,22552,22551,-0.025414329022169113,-0.019731145352125168,1.0452277660369873,2.7970383167266846,-1.5250381231307983,0.5730652213096619,1.8180726766586304,4.343942165374756,0.30597078800201416,-0.5308870077133179,-0.15130890905857086,1.790097951889038
293,22562,22561,-0.015800878405570984,0.00497469212859869,1.0814473628997803,-1.2943391799926758,-0.5798034071922302,1.043627381324768,1.8201754093170166,4.343789577484131,0.3077385127544403,-0.5905873775482178,-0.15156134963035583,1.798756718635559
294,22572,22571,0.027935750782489777,-0.08282767236232758,1.0588594675064087,-0.615799605846405,1.6410773992538452,1.078345775604248,1.8210868835449219,4.343837261199951,0.3076613247394562,-0.5777343511581421,-0.164535254240036,1.8054141998291016
295,22582,22581,0.0361640527844429,-0.05374767258763313,1.0650415420532227,-0.9760651588439941,0.4159967005252838,0.5895109176635742,1.821660041809082,4.343425750732422,0.30777546763420105,-0.46575024724006653,-0.17552947998046875,1.8085485696792603
296,22592,22591,-0.012609926052391529,0.01787150837481022,1.0402318239212036,0.32501789927482605,-5.162905216217041,0.5553995370864868,1.8232598304748535,4.343018054962158,0.3104795813560486,-0.45721209049224854,-0.17392301559448242,1.8145794868469238
297,22602,22601,0.010584668256342411,0.019172390922904015,0.9990732073783875,1.9551961421966553,-7.6634521484375,0.5135712027549744,1.8237030506134033,4.342294216156006,0.3108063042163849,-0.3763696253299713,-0.09511461853981018,1.8172558546066284
298,22612,22611,0.013464708812534809,0.006774313747882843,1.0294890403747559,0.6668006777763367,-8.009552001953125,0.6998504996299744,1.824899673461914,4.33885383605957,0.3111543655395508,-0.14221349358558655,-0.08312759548425674,1.791207194328308
299,22622,22621,0.010794087313115597,-0.004419068805873394,1.0283465385437012,0.3602793216705322,-7.037919044494629,0.8784750699996948,1.8278542757034302,4.338979721069336,0.3113138675689697,-0.37483689188957214,-0.07847105711698532,1.7955031394958496
300,22632,22631,-0.016026444733142853,-0.024896321818232536,1.0230664014816284,-1.1422340869903564,-4.635226249694824,1.0174610614776611,1.8276634216308594,4.338949680328369,0.31332165002822876,-0.13313548266887665,-0.08591549098491669,1.8015094995498657
301,22642,22641,0.02667529135942459,-0.04480008780956268,0.9792670011520386,-1.4261454343795776,-2.448199510574341,0.9766251444816589,1.8291873931884766,4.338418006896973,0.3137073218822479,-0.16950128972530365,-0.11147784441709518,1.799001932144165
302,22652,22651,-0.0036237447056919336,-0.004960679914802313,1.0246236324310303,-1.4661211967468262,-0.7185536623001099,0.9410493969917297,1.832634449005127,4.338622093200684,0.31390702724456787,-0.39161792397499084,-0.1404113918542862,1.8123329877853394
303,22662,22661,0.03179938346147537,-0.018773790448904037,0.9322230815887451,-0.9075907468795776,0.28835350275039673,0.26557648181915283,1.833431601524353,4.33791446685791,0.31607601046562195,-0.23581111431121826,-0.09129904955625534,1.8295128345489502
304,22672,22671,-0.011565383523702621,0.09908320754766464,0.9067142605781555,0.18344184756278992,-2.737888813018799,0.09891290217638016,1.8334393501281738,4.337887287139893,0.31674665212631226,-0.09726220369338989,-0.11404816061258316,1.8232280015945435
305,22682,22681,-0.03247654810547829,0.1602655053138733,0.9261334538459778,-0.4435104727745056,-2.772052764892578,0.51108717918396,1.8344089984893799,4.336827278137207,0.317262202501297,-0.02127494104206562,-0.12418869137763977,1.82290780544281
306,22692,22691,-0.0001452360302209854,0.037329282611608505,1.006476879119873,-0.5040578246116638,-3.4170820713043213,0.5104766488075256,1.837148904800415,4.33315372467041,0.3163909912109375,-0.09510856121778488,-0.14032097160816193,1.7849971055984497
307,22702,22701,0.05010370537638664,-0.01650312915444374,1.0151485204696655,-0.39347460865974426,-2.988407611846924,0.9541066288948059,1.8386729955673218,4.332551956176758,0.31661659479141235,-0.0988711565732956,-0.07986439019441605,1.7905791997909546
308,22712,22711,0.016345122829079628,-0.004151551518589258,0.992760419845581,-0.3474350869655609,-2.593055009841919,1.2556711435317993,1.8396228551864624,4.332849979400635,0.3169505298137665,-0.014823410660028458,-0.1001228541135788,1.8088595867156982
309,22722,22721,0.043206945061683655,-0.03321100026369095,0.9859297871589661,-0.374093621969223,-3.0864663124084473,1.0411453247070312,1.8401479721069336,4.33254861831665,0.31726616621017456,0.07102558761835098,-0.11755678057670593,1.813170075416565
310,22732,22731,0.005770945455878973,-0.032817523926496506,0.9571842551231384,-0.6440712213516235,-2.6350252628326416,1.0791664123535156,1.8437681198120117,4.332215309143066,0.31560131907463074,-0.08743935078382492,-0.21521861851215363,1.820590853691101
311,22742,22741,-0.03245839849114418,-0.013395091518759727,0.9861280918121338,-1.0759588479995728,-2.247159004211426,1.1134865283966064,1.8444938659667969,4.331620693206787,0.3157978355884552,0.003950183745473623,-0.15150056779384613,1.830189824104309
312,22752,22751,0.01980370469391346,-0.05752720683813095,0.9371659159660339,-1.2212553024291992,-2.4212327003479004,0.8090848326683044,1.8458657264709473,4.329787254333496,0.3159211575984955,0.08653756231069565,-0.1757873296737671,1.8208330869674683
313,22762,22761,0.02662329375743866,-0.07596581429243088,0.9614154696464539,-1.3582731485366821,1.4029628038406372,0.8237527012825012,1.847485899925232,4.326789379119873,0.31764206290245056,0.002548589836806059,-0.12278730422258377,1.7839339971542358
314,22772,22771,0.05804673954844475,-0.05844978988170624,0.931018590927124,-0.2017478495836258,-2.6622021198272705,1.21004319190979,1.8469922542572021,4.325647830963135,0.31788569688796997,0.1435433179140091,-0.15388178825378418,1.7662426233291626
315,22782,22781,0.000436559523222968,-0.001202603685669601,0.9927695393562317,0.20945562422275543,-4.228919506072998,1.2381881475448608,1.8472596406936646,4.328461647033691,0.3179919719696045,0.1413746178150177,-0.24924103915691376,1.7980536222457886
316,22792,22791,0.0169221218675375,-0.030330151319503784,0.9641252756118774,-0.11701203882694244,-4.200284957885742,0.9901010990142822,1.8478899002075195,4.3282999992370605,0.3170151710510254,0.17105504870414734,-0.17030347883701324,1.8072367906570435
317,22802,22801,-0.0045763603411614895,-0.0034147934056818485,0.9911514520645142,0.8057107925415039,-3.0285136699676514,0.5023525357246399,1.8476966619491577,4.328363418579102,0.31705355644226074,0.35816505551338196,-0.17548564076423645,1.8191789388656616
318,22812,22811,0.021199895069003105,-0.010433346964418888,0.9879496097564697,0.6907669305801392,-0.5249642729759216,0.883376955986023,1.8483693599700928,4.328242778778076,0.31698140501976013,0.4255485534667969,-0.1706574708223343,1.8246821165084839
319,22822,22821,-0.035980403423309326,0.09686072915792465,0.9275622367858887,0.9547520279884338,1.945561170578003,0.58278888463974,1.8512554168701172,4.32825231552124,0.31619685888290405,0.2190740555524826,-0.16253699362277985,1.8316638469696045
320,22832,22831,-0.04617490619421005,0.07811654359102249,1.0016217231750488,-0.20864757895469666,5.29332160949707,0.9897736310958862,1.852410078048706,4.327028751373291,0.31608763337135315,0.30268654227256775,-0.07907725125551224,1.8347069025039673
321,22842,22841,0.025270061567425728,0.014670992270112038,0.9745579957962036,-1.5743532180786133,7.666070461273193,0.28587648272514343,1.8537955284118652,4.3274006843566895,0.3158614933490753,0.24155759811401367,-0.0993916243314743,1.852586269378662
322,22852,22851,-0.002804054878652096,0.03562352806329727,1.0265661478042603,-1.989131212234497,5.459326267242432,0.4983881413936615,1.854760766029358,4.328014373779297,0.3156195282936096,0.16184194386005402,-0.13384637236595154,1.8577560186386108
323,22862,22861,-0.005524863488972187,-0.02895888313651085,0.9779221415519714,-2.5286054611206055,3.463172674179077,0.744848906993866,1.8548284769058228,4.331265926361084,0.3201175034046173,0.1045340821146965,-0.1731748878955841,1.895925760269165
324,22872,22871,0.04910906404256821,-0.08292905241250992,0.9878782033920288,-1.9370676279067993,0.7888215780258179,0.11437106877565384,1.8549116849899292,4.331906795501709,0.32026487588882446,0.15509435534477234,-0.21692414581775665,1.9022351503372192
325,22882,22881,-0.03039054200053215,0.018012424930930138,1.0272670984268188,-0.7777852416038513,-2.408372402191162,-0.0023306396324187517,1.8549875020980835,4.333237171173096,0.3203614056110382,0.1590775102376938,-0.1757390797138214,1.922762393951416
326,22892,22891,-0.09051426500082016,0.09282420575618744,0.9830926656723022,0.6930287480354309,-3.4594483375549316,-0.43908122181892395,1.8549973964691162,4.3330535888671875,0.31965622305870056,0.20868544280529022,-0.19826316833496094,1.9100847244262695
327,22902,22901,-0.03858869895339012,0.000511830672621727,0.9563092589378357,1.12531316280365,-1.665615200996399,-0.22964833676815033,1.855674147605896,4.332977294921875,0.3196922540664673,0.27027514576911926,-0.19816754758358002,1.906866431236267
328,22912,22911,0.045276377350091934,-0.0891120508313179,0.8817754983901978,1.5362414121627808,0.08592499047517776,-0.08973812311887741,1.857098937034607,4.332938194274902,0.3196607530117035,0.23253455758094788,-0.18856872618198395,1.9052377939224243
329,22922,22921,0.07358548790216446,-0.08544536679983139,0.9309730529785156,0.22911337018013,2.999372720718384,1.130060076713562,1.8575100898742676,4.332150459289551,0.3158522844314575,0.2466082125902176,-0.17435963451862335,1.8853904008865356
330,22932,22931,0.04175034165382385,-0.07952923327684402,0.9594799876213074,0.08925828337669373,1.3912652730941772,1.3519679307937622,1.8594316244125366,4.332548141479492,0.3153919577598572,0.07192844152450562,-0.17278118431568146,1.8748855590820312
331,22942,22941,0.03560531884431839,-0.21425867080688477,1.0148072242736816,-0.06604313850402832,2.5219974517822266,1.3530007600784302,1.8574446439743042,4.328511714935303,0.31503215432167053,0.1458255499601364,-0.17851851880550385,1.804033875465393
332,22952,22951,0.022383881732821465,-0.19682437181472778,0.9647536873817444,-0.5065376162528992,2.5343871116638184,1.161556601524353,1.8588550090789795,4.328154563903809,0.3145628273487091,0.12568078935146332,-0.2645745277404785,1.809546947479248
333,22962,22961,0.007665516808629036,-0.06078064441680908,0.974827766418457,-0.5605151057243347,2.5861072540283203,1.1897649765014648,1.8579450845718384,4.324902534484863,0.31391143798828125,0.09497416764497757,-0.2674069106578827,1.7335788011550903
334,22972,22971,0.01011654082685709,-0.008209796622395515,0.9814180135726929,0.029713965952396393,1.5416055917739868,1.913155198097229,1.8588889837265015,4.324886798858643,0.3134050667285919,0.061635084450244904,-0.2748369872570038,1.78511381149292
335,22982,22981,-0.0043409462086856365,-0.05946967378258705,1.0655914545059204,0.8416191935539246,-0.8324077129364014,1.7235835790634155,1.8604389429092407,4.326222896575928,0.3129177391529083,0.05972662568092346,-0.27236005663871765,1.795591950416565
336,22992,22991,0.042719826102256775,-0.07893303781747818,0.974931001663208,2.644167184829712,-1.2701659202575684,1.0913227796554565,1.8610951900482178,4.3246965408325195,0.31257492303848267,0.014432315714657307,-0.24997474253177643,1.7787609100341797
337,23002,23001,-0.017244653776288033,-0.008112690411508083,1.0366721153259277,3.1971333026885986,-1.7082234621047974,1.0612157583236694,1.8615840673446655,4.323554515838623,0.31218665838241577,0.13268588483333588,-0.20122452080249786,1.7798675298690796
338,23012,23011,-0.00029310828540474176,-0.06359994411468506,0.9991128444671631,2.5970022678375244,-0.7435262799263,1.015548825263977,1.8611012697219849,4.322922229766846,0.31180307269096375,0.24211269617080688,-0.22370851039886475,1.7679975032806396
339,23022,23021,0.011036603711545467,-0.1590884029865265,0.9713289141654968,1.2881169319152832,0.5418276786804199,0.8684947490692139,1.8630732297897339,4.3216705322265625,0.3109002113342285,0.18313398957252502,-0.09782038629055023,1.7742083072662354
340,23032,23031,0.00757948262616992,-0.09434685111045837,1.0058079957962036,0.23282290995121002,2.191410541534424,0.49444955587387085,1.8643954992294312,4.321527481079102,0.31041762232780457,0.10948822647333145,-0.07551489025354385,1.783229112625122
341,23042,23041,0.001799546298570931,-0.024612082168459892,1.0205953121185303,-1.4284801483154297,3.646733522415161,0.09333392232656479,1.864762544631958,4.321793079376221,0.3100131154060364,0.16567228734493256,-0.07512035220861435,1.7861143350601196
342,23052,23051,0.037547361105680466,-0.03309741988778114,1.031245231628418,-3.1029140949249268,3.1238150596618652,-0.2405083179473877,1.867082118988037,4.318809986114502,0.3096352815628052,0.042548418045043945,-0.1011381596326828,1.7538684606552124
343,23062,23061,-0.04439656436443329,0.042377982288599014,1.1630539894104004,-3.250756025314331,1.9880024194717407,-0.23740027844905853,1.8691126108169556,4.317966938018799,0.30912649631500244,-0.06428058445453644,-0.15057015419006348,1.7412973642349243
344,23072,23071,-0.053728118538856506,0.058731842786073685,1.144882082939148,-1.31935453414917,0.4782906472682953,-0.7711408138275146,1.8700146675109863,4.316213130950928,0.3088289499282837,0.005925447214394808,-0.20158103108406067,1.7165088653564453
345,23082,23081,-0.0469670295715332,0.060807593166828156,1.0396648645401,-0.1972898691892624,0.6896767616271973,-0.33897659182548523,1.8704324960708618,4.315863609313965,0.30869078636169434,0.06445305049419403,-0.23341187834739685,1.7135318517684937
346,23092,23091,0.009089824743568897,0.0168318934738636,1.0301339626312256,0.9366989135742188,0.41200998425483704,0.01726856455206871,1.8722918033599854,4.314905166625977,0.30976366996765137,0.048029862344264984,-0.24462153017520905,1.700168251991272
347,23102,23101,0.002003172878175974,-0.046654727309942245,1.0957658290863037,2.3123245239257812,-2.4366135597229004,0.02524419128894806,1.8742315769195557,4.315854072570801,0.30979305505752563,-0.011546739377081394,-0.2304639369249344,1.7367972135543823
348,23112,23111,-0.023101290687918663,-0.026490923017263412,1.0842182636260986,4.243048191070557,-4.963343143463135,-0.07136335223913193,1.8741275072097778,4.315431594848633,0.3099600076675415,0.10224542021751404,-0.18790659308433533,1.7312653064727783
349,23122,23121,0.005643937271088362,-0.11504103988409042,1.0368785858154297,2.180926561355591,4.2290940284729,-0.6339402198791504,1.8771302700042725,4.315728187561035,0.3089618384838104,-0.09849636256694794,-0.12510211765766144,1.7413817644119263
350,23132,23131,0.04688144102692604,-0.07203971594572067,0.9792836308479309,1.5203301906585693,3.440843343734741,-1.0854333639144897,1.8768830299377441,4.31539249420166,0.30919966101646423,-0.044727619737386703,-0.15476886928081512,1.721078634262085
351,23142,23141,-0.014394010417163372,0.037060730159282684,1.0575515031814575,0.4969351887702942,2.041084051132202,-0.7700955271720886,1.8772478103637695,4.3156938552856445,0.3094700872898102,-0.00043255428317934275,-0.12376875430345535,1.7100287675857544
352,23152,23151,0.041692059487104416,-0.06633329391479492,0.9605903029441833,-1.0763564109802246,0.9252389073371887,-1.153583288192749,1.8774420022964478,4.3156938552856445,0.30982932448387146,0.0573095977306366,-0.11122044920921326,1.7023816108703613
353,23162,23161,-0.004383639432489872,-0.00971627701073885,1.0247948169708252,-1.8450361490249634,0.9938236474990845,-1.2285170555114746,1.8789432048797607,4.3157958984375,0.3100219666957855,-0.03620118275284767,-0.11823952198028564,1.6927016973495483
354,23172,23171,0.00360703282058239,-0.005071112420409918,1.0153237581253052,-1.2087551355361938,1.32549250125885,-0.8764827847480774,1.8790993690490723,4.315918922424316,0.31031063199043274,0.02693893201649189,-0.1394735425710678,1.681272268295288
355,23182,23181,0.016085417941212654,0.043957266956567764,0.9904671907424927,-0.8297296762466431,1.771376132965088,-0.6127604842185974,1.8797292709350586,4.314550399780273,0.31048980355262756,-0.0685526579618454,-0.15631133317947388,1.6281280517578125
356,23192,23191,-0.02623446099460125,0.04678136110305786,1.04434072971344,0.07916101068258286,2.3599202632904053,-1.1025384664535522,1.8812673091888428,4.314589500427246,0.3107684850692749,-0.15631769597530365,-0.1606685072183609,1.6215932369232178
357,23202,23201,-0.0008835794287733734,0.02076645940542221,1.0184379816055298,0.7123993635177612,0.9516506791114807,-1.2385960817337036,1.8819823265075684,4.313217639923096,0.3110935091972351,-0.09007182717323303,-0.1494075059890747,1.598210334777832
358,23212,23211,0.02276516519486904,-0.030008457601070404,0.9918429255485535,1.378105878829956,0.874788761138916,-0.9835310578346252,1.8826600313186646,4.3122406005859375,0.31139707565307617,-0.09744518250226974,-0.13288842141628265,1.5681381225585938
359,23222,23221,-0.025175323709845543,0.08097134530544281,1.007106900215149,1.506423830986023,-0.09228996932506561,-1.1030004024505615,1.884024977684021,4.312192440032959,0.3073384463787079,-0.16743509471416473,-0.10928323119878769,1.5580980777740479
360,23232,23231,0.005541330203413963,-0.012565245851874352,0.9620800018310547,1.460557222366333,0.3299896717071533,-0.9266504645347595,1.8841354846954346,4.312100887298584,0.30731987953186035,-0.22415383160114288,-0.08207771182060242,1.5237740278244019
361,23242,23241,-0.005404915194958448,0.020713413134217262,1.0204716920852661,0.2753639817237854,0.6098024249076843,-0.6934535503387451,1.88473379611969,4.311586380004883,0.30732834339141846,-0.20574793219566345,-0.06187950447201729,1.499891757965088
362,23252,23251,-0.028185324743390083,0.018126007169485092,1.041101098060608,-0.5443053245544434,0.07595622539520264,-0.7283096313476562,1.8863279819488525,4.312735080718994,0.30453288555145264,-0.26230013370513916,-0.1301548182964325,1.5030804872512817
363,23262,23261,0.01841629296541214,0.009465973824262619,0.927585780620575,-0.9494378566741943,1.3368232250213623,-1.2957217693328857,1.8860721588134766,4.312252998352051,0.3044968545436859,-0.16442126035690308,-0.12704217433929443,1.480273962020874
364,23272,23271,0.0285511277616024,0.015988167375326157,0.9362519979476929,-0.10438106209039688,0.3280446231365204,-0.6981465816497803,1.8875617980957031,4.3117499351501465,0.30435165762901306,-0.16659168899059296,-0.13059988617897034,1.4688537120819092
365,23282,23281,0.05201643332839012,-0.04623221606016159,1.0080296993255615,0.5493789315223694,-1.11384916305542,-0.3474572002887726,1.888713002204895,4.311432838439941,0.30410999059677124,-0.22856584191322327,-0.124918133020401,1.4476492404937744
366,23292,23291,0.027157412841916084,-0.017677364870905876,1.0205625295639038,1.5473902225494385,-1.6410192251205444,-0.2658838927745819,1.8873257637023926,4.312552452087402,0.3049825429916382,-0.1075969934463501,-0.10609588772058487,1.4448338747024536
367,23302,23301,0.023734385147690773,-0.014804532751441002,0.9988408088684082,1.8638451099395752,-0.017375225201249123,-0.3899720311164856,1.8890254497528076,4.3118696212768555,0.30470895767211914,-0.2208942025899887,-0.07021483778953552,1.4227855205535889
368,23312,23311,-0.0011102420976385474,-0.0030249941628426313,0.9376464486122131,2.4170024394989014,3.1996212005615234,-0.7482122182846069,1.8906846046447754,4.311955451965332,0.3044508397579193,-0.3037724196910858,-0.0037581638898700476,1.4116735458374023
369,23322,23321,-0.012776296585798264,0.010591346770524979,1.0355287790298462,0.6293537020683289,2.2935805320739746,-0.5611220598220825,1.8921301364898682,4.311397552490234,0.302406370639801,-0.2897888123989105,0.010983678512275219,1.4122562408447266
370,23332,23331,-0.005806585308164358,-0.015621115453541279,1.0639772415161133,0.37916940450668335,1.4380568265914917,-0.9311627149581909,1.8929346799850464,4.311290264129639,0.3020777702331543,-0.29753243923187256,0.029065968468785286,1.4075604677200317
371,23342,23341,-0.016356319189071655,0.02495627850294113,0.9882432222366333,-1.6204073429107666,-0.9174743890762329,0.11648444086313248,1.8948332071304321,4.310799598693848,0.3017089366912842,-0.3497655689716339,0.039154812693595886,1.398508071899414
372,23352,23351,-0.006465564481914043,-0.01864953339099884,1.086090087890625,-0.9641859531402588,-3.165907144546509,-0.1712813377380371,1.8950309753417969,4.311305046081543,0.3017374277114868,-0.1934625208377838,0.017211921513080597,1.4060107469558716
373,23362,23361,0.0500931590795517,-0.015326022170484066,0.9146105647087097,-1.188698410987854,-2.8146138191223145,-0.19774572551250458,1.8969048261642456,4.311648368835449,0.3014393448829651,-0.2978643476963043,0.00639217859134078,1.4037491083145142
374,23372,23371,0.03518674522638321,0.08769189566373825,0.9947593212127686,-1.6107361316680908,-1.9347906112670898,-0.3706479072570801,1.898980736732483,4.309615135192871,0.30115750432014465,-0.2843634784221649,-0.011998695321381092,1.3717023134231567
375,23382,23381,0.06483375281095505,-0.05058399960398674,1.0311895608901978,-1.857952356338501,-3.5737483501434326,-0.4403362572193146,1.8991823196411133,4.310150623321533,0.3026328384876251,-0.21217940747737885,-0.040160324424505234,1.3691680431365967
376,23392,23391,-0.017845047637820244,-0.08187858760356903,1.0239108800888062,-0.9216240048408508,-4.451791286468506,0.39321786165237427,1.9006016254425049,4.309579849243164,0.3025047779083252,-0.08745808154344559,-0.09444122761487961,1.3004908561706543
377,23402,23401,-0.024870702996850014,0.022618889808654785,1.0186142921447754,-0.5267311334609985,-3.091529369354248,0.7059981822967529,1.8988826274871826,4.309422492980957,0.3023591637611389,-0.10436567664146423,-0.16506320238113403,1.2980190515518188
378,23412,23411,0.016946665942668915,0.0052663404494524,0.9960094690322876,2.6189920902252197,-1.1272001266479492,0.9115602374076843,1.8973511457443237,4.305531024932861,0.3023054003715515,0.06115720421075821,-0.07675964385271072,1.214085340499878
379,23422,23421,0.05081845447421074,0.03555312007665634,1.0415551662445068,1.8823186159133911,0.6360916495323181,1.313293695449829,1.8972759246826172,4.306482791900635,0.30203375220298767,-0.12104859203100204,-0.04661764204502106,1.1944223642349243
380,23432,23431,0.0397486686706543,-0.0583534799516201,1.0817104578018188,1.25701904296875,1.4789352416992188,1.7487571239471436,1.899724006652832,4.308069229125977,0.3019031584262848,-0.17194846272468567,-0.019766908138990402,1.2560726404190063
381,23442,23441,0.028821038082242012,-0.04552989453077316,0.9957970380783081,0.8685230016708374,1.2475615739822388,0.354043185710907,1.9009736776351929,4.308624267578125,0.30191609263420105,-0.15492424368858337,-0.0021056989207863808,1.2917430400848389
382,23452,23451,-0.02175816148519516,0.018062405288219452,1.014431118965149,-0.3461870849132538,-0.4509330689907074,0.34582632780075073,1.9027987718582153,4.3090081214904785,0.3023358881473541,-0.13670331239700317,-0.06862794607877731,1.3080390691757202
383,23462,23461,-0.016519976779818535,-0.013384300284087658,1.0380147695541382,-0.5725088715553284,-1.9206657409667969,0.4842258095741272,1.90412175655365,4.30910587310791,0.30239737033843994,-0.16378948092460632,-0.06082070991396904,1.2944087982177734
384,23472,23471,0.012169442139565945,-0.0046587781980633736,1.0219594240188599,0.0022717025130987167,-4.039151668548584,0.5023672580718994,1.9044705629348755,4.308801174163818,0.30256369709968567,-0.07986552268266678,-0.05557091906666756,1.2987017631530762
385,23482,23481,-0.031239667907357216,0.10745704919099808,0.9615181684494019,0.9458317160606384,-3.3303866386413574,0.14801396429538727,1.9044835567474365,4.309175968170166,0.3008404076099396,0.018089596182107925,-0.12953056395053864,1.2900216579437256
386,23492,23491,-0.04079514369368553,0.05195470526814461,1.0039944648742676,0.9691099524497986,-3.3808767795562744,0.2741553783416748,1.905890703201294,4.30962610244751,0.3008328378200531,0.030777079984545708,-0.10247272998094559,1.304965615272522
387,23502,23501,0.0039049868937581778,-0.00859063770622015,1.0770728588104248,1.653267502784729,-2.076266288757324,0.7284755110740662,1.9083613157272339,4.309414863586426,0.3006804585456848,-0.11456479877233505,-0.07319431006908417,1.2952919006347656
388,23512,23511,0.04028590768575668,-0.06920979171991348,1.0612804889678955,2.052340269088745,2.4488000869750977,0.9089000821113586,1.9081398248672485,4.309518337249756,0.30089443922042847,0.043326485902071,-0.03153688460588455,1.2977231740951538
389,23522,23521,0.029860110953450203,-0.009016338735818863,1.0274240970611572,4.6019978523254395,-3.703571319580078,0.32062819600105286,1.9103741645812988,4.305831432342529,0.30032405257225037,0.06624741852283478,-0.06016192212700844,1.2506219148635864
390,23532,23531,-0.033412206918001175,0.1147315725684166,1.0571789741516113,1.795781135559082,-1.720877766609192,1.5656248331069946,1.9134089946746826,4.308593273162842,0.3004211485385895,0.05548140034079552,0.01568702794611454,1.3521921634674072
391,23542,23541,0.025809109210968018,-0.05942006781697273,1.018113613128662,0.8108845949172974,2.083010196685791,-0.030353790149092674,1.9142242670059204,4.3103156089782715,0.3005988895893097,0.1180415228009224,-0.10182356089353561,1.379105806350708
392,23552,23551,-0.02541910856962204,0.030433624982833862,1.0640828609466553,0.5248305201530457,2.3834567070007324,0.1170424148440361,1.9144467115402222,4.310308456420898,0.3012736439704895,0.19475354254245758,-0.06598322093486786,1.3820079565048218
393,23562,23561,0.019098371267318726,-0.015481221489608288,1.0058127641677856,1.30543053150177,3.0812833309173584,0.5303477048873901,1.9175410270690918,4.309598445892334,0.3014281094074249,0.02171817049384117,-0.034675613045692444,1.3812963962554932
394,23572,23571,0.031920913606882095,-0.032760877162218094,0.9779089093208313,1.994336724281311,2.9564011096954346,0.5960378646850586,1.9195060729980469,4.306595802307129,0.3017633259296417,0.08335313946008682,0.0027313425671309233,1.353883981704712
395,23582,23581,-0.027164597064256668,0.01100878044962883,1.0499751567840576,2.5019538402557373,2.632490873336792,0.34831684827804565,1.9207861423492432,4.306413173675537,0.30437177419662476,0.05641305819153786,-0.024189352989196777,1.350868582725525
396,23592,23591,0.016345107927918434,0.011481066234409809,1.0049002170562744,2.535921335220337,3.6467125415802,0.5295106172561646,1.921707272529602,4.306358337402344,0.3048114776611328,0.029955623671412468,0.04205073043704033,1.3555794954299927
397,23602,23601,-0.04357798025012016,0.04128172621130943,1.0733634233474731,2.669503927230835,0.45518332719802856,0.35608571767807007,1.9223986864089966,4.305741310119629,0.3052845895290375,0.006778242066502571,0.10668101161718369,1.3482961654663086
398,23612,23611,0.0051535447128117085,-0.09166805446147919,1.022624135017395,1.7710635662078857,0.3504839241504669,0.47172513604164124,1.9231387376785278,4.3054986000061035,0.3057909905910492,0.021050453186035156,0.16294224560260773,1.2784440517425537
399,23622,23621,0.009053787216544151,-0.08619970083236694,1.01198148727417,1.537320613861084,-1.6840370893478394,0.9857862591743469,1.923924446105957,4.300781726837158,0.30459579825401306,-0.03278977796435356,0.20494940876960754,1.2323228120803833
400,23632,23631,-0.004567226395010948,0.0023900610394775867,1.0007765293121338,0.5753874778747559,-1.766821026802063,1.1244800090789795,1.9250144958496094,4.301516056060791,0.3050958812236786,0.024953877553343773,0.23068541288375854,1.267787218093872
401,23642,23641,-0.0344616174697876,0.06779219210147858,1.0438529253005981,-0.7671383619308472,-1.596811056137085,0.6191171407699585,1.9248968362808228,4.305673122406006,0.3056224584579468,0.007607803214341402,0.16448207199573517,1.3298685550689697
402,23652,23651,-0.027046604081988335,0.06993831694126129,1.024775743484497,-1.6829159259796143,0.2281910628080368,-0.1044519767165184,1.9264838695526123,4.308267593383789,0.30602219700813293,-0.09588942676782608,0.16205544769763947,1.3792136907577515
403,23662,23661,0.0013528534909710288,0.02184419333934784,0.9123445749282837,-2.172983169555664,1.4291486740112305,-0.45631226897239685,1.927761197090149,4.3107218742370605,0.3067191243171692,0.02020038105547428,0.14379389584064484,1.458182454109192
404,23672,23671,0.009610184468328953,-0.021938396617770195,0.9437288045883179,-0.9505767822265625,-0.9147940874099731,-0.4092249274253845,1.9286823272705078,4.310716152191162,0.30725085735321045,0.03216826543211937,0.1237710639834404,1.4978647232055664
405,23682,23681,-0.018274713307619095,0.03280302882194519,0.9590752124786377,0.9033525586128235,-0.40414854884147644,-1.0048223733901978,1.9322357177734375,4.314757823944092,0.3061254620552063,-0.01207092497497797,0.1165914312005043,1.5798885822296143
406,23692,23691,-0.014443623833358288,0.022958707064390182,0.9566935896873474,0.8262922167778015,-1.062364101409912,0.1710999459028244,1.9331421852111816,4.314401626586914,0.3064408004283905,0.025625647976994514,0.1355549842119217,1.5714702606201172
407,23702,23701,0.09966471791267395,-0.27999070286750793,1.0040398836135864,1.823378086090088,0.6027822494506836,-0.592014491558075,1.9326491355895996,4.315969944000244,0.30676230788230896,0.06117420643568039,0.09102162718772888,1.571986198425293
408,23712,23711,0.026892833411693573,-0.09025808423757553,0.9996223449707031,2.6542251110076904,2.6354713439941406,-0.7593043446540833,1.932814598083496,4.315896511077881,0.3060881197452545,0.1438959389925003,0.13686881959438324,1.5391696691513062
409,23722,23721,0.06569872051477432,-0.08940620720386505,0.9800682067871094,2.986281394958496,5.230444431304932,-0.7193280458450317,1.93254816532135,4.318018436431885,0.30627375841140747,0.03266537934541702,0.19673626124858856,1.6297647953033447
410,23732,23731,0.041778746992349625,-0.07785697281360626,0.9736782312393188,3.1539251804351807,2.8033957481384277,-1.0145169496536255,1.9343194961547852,4.3204569816589355,0.30652734637260437,-0.020763760432600975,0.17512521147727966,1.6295559406280518
411,23742,23741,0.009120557457208633,-0.05494311824440956,0.985643208026886,2.1977548599243164,1.8110178709030151,-0.2621270716190338,1.9338146448135376,4.32157039642334,0.3067252039909363,-0.0461067333817482,0.2328675240278244,1.6221323013305664
412,23752,23751,0.013217261992394924,0.03447392210364342,0.9356807470321655,1.9012645483016968,1.443257451057434,-0.5121144652366638,1.9333606958389282,4.321829795837402,0.30773645639419556,0.010509440675377846,0.28107941150665283,1.6155720949172974
413,23762,23761,0.11635231226682663,0.01599927619099617,0.9155544638633728,0.2192983478307724,1.0632048845291138,-0.4727751612663269,1.9350218772888184,4.321786403656006,0.30782827734947205,-0.1101578027009964,0.3164726495742798,1.606787919998169
414,23772,23771,0.03165224567055702,0.008417998440563679,0.9849627017974854,-1.5231151580810547,0.44231855869293213,0.03507760167121887,1.9374332427978516,4.321956634521484,0.30776527523994446,-0.2601880133152008,0.24302545189857483,1.5871628522872925
415,23782,23781,-0.000416095630498603,-0.02518550492823124,0.9990065097808838,-2.7025625705718994,-1.5698912143707275,0.3975478410720825,1.9375232458114624,4.322099208831787,0.3083157241344452,-0.15042434632778168,0.2272907793521881,1.5923157930374146
416,23792,23791,0.004371210467070341,-0.04692422226071358,0.9929497241973877,-1.6598474979400635,-3.3173556327819824,-0.23165792226791382,1.9388024806976318,4.322286128997803,0.30833473801612854,-0.17419998347759247,0.20058724284172058,1.5939371585845947
417,23802,23801,-0.05766758695244789,0.05607065185904503,0.9715068340301514,-0.4270534813404083,-3.738051652908325,-0.20475833117961884,1.9394426345825195,4.3224310874938965,0.30842363834381104,-0.10303083807229996,0.18099111318588257,1.5945560932159424
418,23812,23811,-0.061234258115291595,0.06691044569015503,0.984682023525238,0.04703225940465927,-2.7431907653808594,0.025802893564105034,1.9405587911605835,4.3248395919799805,0.30892956256866455,-0.18663905560970306,0.18031130731105804,1.6255834102630615
419,23822,23821,0.030882028862833977,-0.05157453566789627,0.9473300576210022,1.0480080842971802,0.15487229824066162,-0.20245735347270966,1.9402942657470703,4.325048923492432,0.3090846836566925,-0.04517095535993576,0.19547437131404877,1.630613923072815
420,23832,23831,0.014517704956233501,-0.023756500333547592,0.9859137535095215,2.726217746734619,-1.2808223962783813,-0.03209330886602402,1.9402309656143188,4.324958324432373,0.3091958165168762,0.06527606397867203,0.23104821145534515,1.6338484287261963
421,23842,23841,-0.021643606945872307,0.00027120002778247,1.015329122543335,3.064511299133301,0.25944533944129944,0.11500554531812668,1.9420580863952637,4.325169563293457,0.3091311454772949,0.01566021889448166,0.20616644620895386,1.6313047409057617
422,23852,23851,0.02189502865076065,0.02124088443815708,0.9231358170509338,1.5019443035125732,5.294227600097656,-0.4093574583530426,1.944069504737854,4.3221259117126465,0.307662695646286,0.025940602645277977,0.2644917964935303,1.5856034755706787
423,23862,23861,-0.05492756888270378,0.09017056226730347,1.0361369848251343,-0.5682079792022705,-1.1545904874801636,0.9371070265769958,1.9453932046890259,4.319615364074707,0.3073943853378296,-0.09671784192323685,0.2919258177280426,1.5128511190414429
424,23872,23871,-0.027931014075875282,0.02276436612010002,1.0672273635864258,-0.6014882326126099,4.371554374694824,1.227847695350647,1.9457718133926392,4.319648742675781,0.3073158860206604,-0.04051244258880615,0.28951913118362427,1.5240098237991333
425,23882,23881,0.005429500248283148,-0.005850719753652811,1.0219707489013672,-1.8266687393188477,4.8326416015625,1.0212881565093994,1.9474210739135742,4.319894313812256,0.3088093400001526,-0.1762433797121048,0.2745591998100281,1.530752182006836
426,23892,23891,0.018192235380411148,-0.015220670960843563,0.9965006113052368,-2.2878804206848145,3.145749568939209,0.6592957973480225,1.9476910829544067,4.3200483322143555,0.3089122474193573,-0.13575907051563263,0.2450733333826065,1.5460211038589478
427,23902,23901,0.008867516182363033,-0.03868923336267471,1.0052601099014282,-1.403035044670105,1.9093098640441895,-0.13340990245342255,1.9514918327331543,4.321634292602539,0.30874842405319214,-0.38047245144844055,0.2165573239326477,1.594720721244812
428,23912,23911,0.08523117750883102,-0.09142271429300308,0.9646273851394653,-2.4230339527130127,1.8945053815841675,-0.4149656891822815,1.9500781297683716,4.323843479156494,0.30909839272499084,-0.20001600682735443,0.1980193853378296,1.6414521932601929
429,23922,23921,0.06213151291012764,-0.06727337092161179,0.9941331148147583,-0.7871134281158447,-4.744340419769287,-0.5631696581840515,1.9507131576538086,4.323847770690918,0.30917418003082275,-0.16303236782550812,0.17403793334960938,1.6394072771072388
430,23932,23931,0.0020924860145896673,-0.01995106041431427,0.9935339093208313,-0.20334920287132263,-6.402085304260254,-0.792553186416626,1.9518213272094727,4.323897838592529,0.30919528007507324,-0.13649523258209229,0.1696794480085373,1.632830023765564
431,23942,23941,-0.009126565419137478,-0.10006411373615265,0.9896411299705505,0.5800735354423523,-4.4968719482421875,-0.9915618896484375,1.9527711868286133,4.322572231292725,0.30922794342041016,-0.08449317514896393,0.254367858171463,1.6124475002288818
432,23952,23951,-0.07738139480352402,0.05420183017849922,0.9867405295372009,0.4710473418235779,-2.952334403991699,-0.670137345790863,1.9540096521377563,4.32374906539917,0.308876633644104,0.016330646350979805,0.2631980776786804,1.672492265701294
433,23962,23961,-0.08064831048250198,0.14898625016212463,0.9923619031906128,-1.9835536479949951,0.13323016464710236,-1.0497347116470337,1.9548375606536865,4.326993942260742,0.30893823504447937,0.07038270682096481,0.17592377960681915,1.7050929069519043
434,23972,23971,0.004658349324017763,0.016725867986679077,0.9800226092338562,-2.6723580360412598,5.280458450317383,-1.9145900011062622,1.9561853408813477,4.329425811767578,0.30887892842292786,-0.007496954407542944,0.14164218306541443,1.742916464805603
435,23982,23981,0.0331435389816761,-0.07503966242074966,0.949890673160553,-2.8974812030792236,4.225294589996338,-1.6680554151535034,1.9571292400360107,4.32902717590332,0.3095617890357971,-0.054043468087911606,0.17770017683506012,1.724312663078308
436,23992,23991,-0.022370202466845512,0.06826015561819077,0.9662907719612122,-1.953977346420288,5.172772407531738,-2.0411128997802734,1.9586602449417114,4.328907489776611,0.30945369601249695,-0.18165887892246246,0.13407276570796967,1.6908605098724365
437,24002,24001,-0.0035936732310801744,0.09716086834669113,0.9351571798324585,-1.828354001045227,4.662400722503662,-1.8394092321395874,1.9585351943969727,4.327259063720703,0.30937787890434265,-0.23408669233322144,0.10336132347583771,1.6000574827194214
438,24012,24011,0.01837879791855812,0.024823252111673355,1.0028241872787476,-1.7317487001419067,1.9250853061676025,-0.9892603754997253,1.9606908559799194,4.327151298522949,0.3081017732620239,-0.3419099748134613,0.22408632934093475,1.6201190948486328
439,24022,24021,0.023755988106131554,-0.014110011048614979,1.006189227104187,-0.23788386583328247,-2.383714437484741,-1.040737509727478,1.960745096206665,4.327342987060547,0.3080378472805023,-0.2402268350124359,0.18368910253047943,1.6169357299804688
440,24032,24031,-0.011501857079565525,0.0179749745875597,1.0384304523468018,-1.1042593717575073,-4.954217433929443,-0.7984966039657593,1.9605706930160522,4.329160213470459,0.3079244792461395,-0.16290980577468872,0.16404961049556732,1.6126172542572021
441,24042,24041,0.020145079120993614,0.12647756934165955,0.919292151927948,-2.2823867797851562,-1.9071829319000244,-1.2269318103790283,1.9615405797958374,4.329394817352295,0.30708667635917664,-0.23115180432796478,0.14211785793304443,1.562049150466919
442,24052,24051,0.025256404653191566,0.16001662611961365,0.9793676733970642,-3.314483165740967,0.7278072237968445,-1.0462602376937866,1.9609113931655884,4.328370571136475,0.306926429271698,-0.07715489715337753,0.09741835296154022,1.5613545179367065
443,24062,24061,0.11574631184339523,-0.10288623720407486,1.0239322185516357,-4.890809535980225,-1.1889005899429321,-0.44298943877220154,1.9629793167114258,4.328587532043457,0.3066510856151581,-0.1095564216375351,0.02831621840596199,1.5638126134872437
444,24072,24071,0.050892967730760574,-0.2697725296020508,1.0495880842208862,-3.539522409439087,-2.0660054683685303,-0.2240486443042755,1.9658410549163818,4.326706886291504,0.30625444650650024,-0.19524887204170227,-0.04351012036204338,1.5173243284225464
445,24082,24081,-0.014070894569158554,-0.0956520289182663,1.0429970026016235,-2.56101393699646,-0.27577072381973267,0.333945095539093,1.9667892456054688,4.326725006103516,0.3080607056617737,-0.1292748749256134,-0.09656863659620285,1.5159498453140259
446,24092,24091,0.05919291451573372,-0.053400930017232895,0.9657608270645142,-1.0126768350601196,0.3393896520137787,0.640531063079834,1.9668986797332764,4.32570219039917,0.30813372135162354,-0.018005797639489174,-0.05675217881798744,1.5129802227020264
447,24102,24101,0.08585520833730698,-0.0959838405251503,1.0293303728103638,-0.23078414797782898,0.2705944776535034,0.4696480631828308,1.9690399169921875,4.325138568878174,0.3079957962036133,-0.14775897562503815,-0.005673870909959078,1.5187169313430786
448,24112,24111,0.09864060580730438,-0.20661260187625885,1.006594181060791,1.4114679098129272,0.26100465655326843,0.2630712389945984,1.9690499305725098,4.3276286125183105,0.30673518776893616,-0.03683915361762047,-0.013407113030552864,1.593024492263794
449,24122,24121,0.014590119943022728,-0.09482482820749283,1.0024027824401855,1.2509225606918335,-0.9041265249252319,-0.3461139500141144,1.97063148021698,4.327177047729492,0.30661100149154663,-0.08495008945465088,-5.720350964111276e-05,1.5872690677642822
450,24132,24131,0.006069116294384003,-0.027068093419075012,1.0126855373382568,0.10825507342815399,-0.7910453677177429,-0.23924191296100616,1.9723024368286133,4.326979637145996,0.3064943552017212,-0.11611688137054443,0.002781646093353629,1.5837987661361694
451,24142,24141,0.0018909162608906627,-0.016977906227111816,0.9994519948959351,-0.7328834533691406,-0.7941078543663025,-0.4255198836326599,1.9710184335708618,4.32525110244751,0.3057215213775635,0.0053800903260707855,0.06282559037208557,1.5228326320648193
452,24152,24151,0.013432086445391178,-0.022031698375940323,0.9915122389793396,-1.794351577758789,-1.2756011486053467,0.5182868242263794,1.971949577331543,4.324725151062012,0.3056136965751648,-0.029417648911476135,0.028080927208065987,1.494260311126709
453,24162,24161,-0.005049652885645628,0.011041936464607716,1.0229461193084717,-2.6450750827789307,-0.8153864741325378,0.5166881084442139,1.9727753400802612,4.322758674621582,0.3054277002811432,-0.0535946786403656,-0.020594414323568344,1.4275671243667603
454,24172,24171,0.003983287140727043,0.020900756120681763,1.0198543071746826,-2.092059373855591,-1.0220531225204468,0.6428725719451904,1.9736038446426392,4.322533130645752,0.3053509593009949,0.0009461312438361347,-0.08279059082269669,1.4225568771362305
455,24182,24181,0.013013954274356365,0.047229792922735214,0.9693896174430847,-3.3082449436187744,0.5681952238082886,1.3968231678009033,1.9743701219558716,4.322014331817627,0.30622053146362305,0.041341714560985565,-0.05916076898574829,1.4304661750793457
456,24192,24191,0.018032869324088097,-0.004043290391564369,1.0052216053009033,-2.23249888420105,0.020986536517739296,0.9391723275184631,1.9749571084976196,4.322295188903809,0.30620118975639343,0.06895376741886139,-0.11958935111761093,1.4446362257003784
457,24202,24201,-0.017673151567578316,-0.00893365778028965,1.052242398262024,-1.3820682764053345,-0.31000950932502747,0.25251030921936035,1.9760150909423828,4.322842597961426,0.3061654269695282,0.09604676812887192,-0.16062971949577332,1.474291205406189
458,24212,24211,0.03302733600139618,-0.01025199331343174,0.9200589060783386,-0.9951364994049072,0.27356958389282227,0.33974123001098633,1.9778114557266235,4.32182502746582,0.308519184589386,0.04728160426020622,-0.10741545259952545,1.47796630859375
459,24222,24221,0.020479727536439896,0.04412396252155304,0.9901114106178284,-0.638058066368103,1.1405843496322632,0.1630593091249466,1.9778505563735962,4.320940971374512,0.30869606137275696,0.13982483744621277,-0.05951675772666931,1.4706518650054932
460,24232,24231,-0.03636349365115166,0.019236214458942413,1.0650691986083984,-0.21700723469257355,0.9816502928733826,0.0923083946108818,1.9793282747268677,4.321011066436768,0.3087461590766907,0.060942813754081726,-0.0867406576871872,1.4737112522125244
461,24242,24241,-0.05894007906317711,0.009641055017709732,1.0268681049346924,-0.6692273020744324,0.231607124209404,-0.19400200247764587,1.9816876649856567,4.319138526916504,0.3112248182296753,-0.007627555634826422,-0.10841888189315796,1.4393362998962402
462,24252,24251,-0.11684185266494751,0.10806092619895935,1.034398078918457,-1.065123200416565,0.9504093527793884,-0.2730447053909302,1.981896162033081,4.319177150726318,0.31161338090896606,0.07960282266139984,-0.13622450828552246,1.4226018190383911
463,24262,24261,-0.046505361795425415,0.0877523124217987,0.9953742027282715,-1.6425292491912842,-0.16909663379192352,-0.20982731878757477,1.983528971672058,4.316569805145264,0.3119369149208069,0.08146951347589493,-0.1713191121816635,1.3720989227294922
464,24272,24271,-0.05438584089279175,0.10828699171543121,1.1062067747116089,-2.0917153358459473,-1.3309961557388306,0.30013325810432434,1.9844101667404175,4.316420555114746,0.3123035430908203,0.09857136011123657,-0.2106906622648239,1.3655378818511963
465,24282,24281,-0.05435611307621002,0.11680776625871658,1.0495787858963013,-0.7131566405296326,-0.049390580505132675,-0.21129579842090607,1.9851558208465576,4.316548824310303,0.311195433139801,0.11467545479536057,-0.24922360479831696,1.36886465549469
466,24292,24291,-0.017143668606877327,0.08690045773983002,0.9998146891593933,-1.2113022804260254,-1.2353523969650269,-0.5797984004020691,1.9850742816925049,4.315961837768555,0.31163445115089417,0.20085285604000092,-0.2675868272781372,1.3464505672454834
467,24302,24301,0.012135288678109646,0.05437689647078514,0.9754783511161804,0.15266931056976318,4.063204765319824,-1.228438138961792,1.9859470129013062,4.315980911254883,0.31202927231788635,0.1939939260482788,-0.2802262604236603,1.3406599760055542
468,24312,24311,0.06831558793783188,-0.07942167669534683,0.9801244735717773,1.1987308263778687,2.3602681159973145,-1.0272992849349976,1.9869478940963745,4.3164849281311035,0.314448744058609,0.07927677780389786,-0.27458426356315613,1.332935094833374
469,24322,24321,0.08288044482469559,-0.1848679631948471,1.03759765625,2.00038743019104,1.6004019975662231,-0.6658727526664734,1.9885261058807373,4.3164472579956055,0.3148577809333801,-0.022080812603235245,-0.2561955153942108,1.3526204824447632
470,24332,24331,0.06549181789159775,-0.21495087444782257,1.0452907085418701,2.9225339889526367,0.7055051326751709,-1.389618158340454,1.989056944847107,4.318397521972656,0.3153989613056183,-0.021707041189074516,-0.21709953248500824,1.3733094930648804
471,24342,24341,-0.003505472093820572,-0.1042364090681076,0.9795838594436646,4.55340576171875,0.6947990655899048,-1.8578073978424072,1.9903801679611206,4.316740989685059,0.31313541531562805,-0.004885600879788399,-0.1665482521057129,1.329451560974121
472,24352,24351,0.01048499345779419,0.012779460288584232,0.8776571154594421,2.4647727012634277,1.5683976411819458,-1.9440314769744873,1.9899320602416992,4.318290710449219,0.31358227133750916,0.06267107278108597,-0.11816758662462234,1.3417506217956543
473,24362,24361,0.041112180799245834,0.1413489282131195,0.9024773836135864,0.3077998757362366,1.7153515815734863,-1.489517331123352,1.9911867380142212,4.318552494049072,0.313823938369751,-0.03265536576509476,-0.1659155935049057,1.3084808588027954
474,24372,24371,0.005795636679977179,0.13398486375808716,0.9642407894134521,-1.594967007637024,0.889679491519928,-1.8316407203674316,1.9909790754318237,4.318167686462402,0.31412750482559204,0.0272569227963686,-0.16838017106056213,1.266131043434143
475,24382,24381,-0.05209491401910782,0.02827644534409046,1.0223292112350464,-1.2290515899658203,0.364102840423584,-1.4195423126220703,1.991870403289795,4.31791877746582,0.3127847909927368,0.018862906843423843,-0.1905069649219513,1.2404147386550903
476,24392,24391,-0.05819840729236603,0.021552136167883873,0.9676055908203125,-0.7240309715270996,-0.01199125312268734,-2.0322015285491943,1.9920395612716675,4.318901538848877,0.3128977417945862,0.09597780555486679,-0.2871369421482086,1.2308810949325562
477,24402,24401,-0.04932102560997009,0.01454299408942461,0.9450047016143799,-0.410968542098999,1.2829921245574951,-1.725682258605957,1.9928600788116455,4.318979263305664,0.3129339814186096,0.08514712750911713,-0.28916504979133606,1.2108627557754517
478,24412,24411,0.011969429440796375,0.003939200192689896,0.9324544072151184,2.0984363555908203,2.4609975814819336,-1.1571934223175049,1.99429190158844,4.31842565536499,0.3118494153022766,-0.015438837930560112,-0.3529490530490875,1.1598396301269531
