,timestamp_start,timestamp_end,acc.x,acc.y,acc.z,gyro.x,gyro.y,gyro.z,stateEstimate.x,stateEstimate.y,stateEstimate.z,stabilizer.pitch,stabilizer.roll,stabilizer.yaw
0,17298,17296,-0.05434718355536461,-0.021353065967559814,1.0062352418899536,-2.9215188026428223,8.378438949584961,-6.026227951049805,1.4488171339035034,3.912540912628174,0.16839973628520966,-1.6723394393920898,0.7757005095481873,4.795034885406494
1,17308,17306,-0.14920876920223236,0.13252003490924835,1.1234925985336304,2.0881145000457764,-1.2530418634414673,-3.9945149421691895,1.4517500400543213,3.914673089981079,0.16991247236728668,-1.903504729270935,0.8193824291229248,4.719269275665283
2,17318,17316,-0.18150758743286133,0.13443748652935028,1.0342020988464355,0.37249839305877686,-0.0848350003361702,-4.653400421142578,1.454262375831604,3.916382312774658,0.17139668762683868,-1.9272934198379517,0.8691632747650146,4.682662010192871
3,17328,17326,-0.27238091826438904,0.7509533166885376,1.0842899084091187,-1.4943463802337646,-2.387047052383423,-4.079015731811523,1.4536058902740479,3.916414260864258,0.17293690145015717,-1.9140328168869019,0.8912528157234192,4.650061130523682
4,17338,17336,-0.11584768444299698,0.5577112436294556,1.0651006698608398,-3.3265652656555176,2.1123926639556885,-4.733722686767578,1.4535402059555054,3.9160852432250977,0.1728825718164444,-1.9995778799057007,0.8720434904098511,4.593966960906982
5,17348,17346,-0.10230549424886703,0.3033291697502136,1.1070008277893066,-5.277762413024902,-2.566596746444702,-3.3789284229278564,1.456214427947998,3.9187917709350586,0.17441537976264954,-2.037062406539917,0.8158411979675293,4.543943405151367
6,17358,17356,0.03118804097175598,0.186515673995018,1.0765858888626099,-6.485845565795898,-2.264481544494629,-5.775832653045654,1.4551677703857422,3.918757438659668,0.175975501537323,-2.0771102905273438,0.7426812052726746,4.479124546051025
7,17368,17366,-0.11333931237459183,0.42099592089653015,1.244512677192688,-8.143853187561035,-7.713714599609375,-4.355928897857666,1.4580225944519043,3.920603036880493,0.17571447789669037,-2.067218780517578,0.6380094885826111,4.409623146057129
8,17378,17376,-0.055213186889886856,0.24900786578655243,1.156914234161377,-5.655054092407227,-11.06498908996582,-3.750601053237915,1.4589403867721558,3.9214656352996826,0.17738106846809387,-1.9797353744506836,0.5392187237739563,4.357927322387695
9,17388,17386,-0.031518395990133286,0.17272326350212097,1.102836012840271,-1.6855039596557617,-14.006604194641113,-3.591909408569336,1.4591368436813354,3.9225215911865234,0.17927350103855133,-1.8313132524490356,0.570279598236084,4.347401142120361
10,17398,17396,-0.06232667714357376,0.12879179418087006,1.06179678440094,-0.6651594638824463,-18.851980209350586,-3.452561855316162,1.4571094512939453,3.9232864379882812,0.17920152842998505,-1.6197712421417236,0.6270544528961182,4.3425469398498535
11,17408,17406,-0.11038831621408463,0.2610544264316559,1.1791465282440186,-2.103367567062378,-11.760295867919922,-3.985508918762207,1.458223819732666,3.924638032913208,0.18114645779132843,-1.5111358165740967,0.5949563384056091,4.293669700622559
12,17418,17416,-0.07394730299711227,0.16790984570980072,1.0823233127593994,-3.514313220977783,-9.94662857055664,-3.204561471939087,1.4620994329452515,3.928395986557007,0.18322525918483734,-2.0306994915008545,0.4046609103679657,4.086869716644287
13,17428,17426,-0.09324397146701813,0.46958059072494507,1.1757187843322754,-6.758076190948486,-9.421072959899902,-2.347971200942993,1.461999535560608,3.928563117980957,0.1867523491382599,-1.611621379852295,0.34356436133384705,4.109253406524658
14,17438,17436,-0.054153066128492355,0.6784485578536987,1.1656676530838013,-4.763072967529297,-14.971455574035645,-2.5058915615081787,1.4624814987182617,3.9322404861450195,0.18645034730434418,-1.3273327350616455,-0.021778622642159462,4.002582550048828
15,17448,17446,-0.030850345268845558,0.2528403401374817,1.101588249206543,1.9227033853530884,-17.082674026489258,-1.971814513206482,1.4630165100097656,3.9330804347991943,0.18888427317142487,-1.4217720031738281,0.008134174160659313,3.9629263877868652
16,17458,17456,0.029089296236634254,0.00416141701862216,0.9992169141769409,2.2807905673980713,-14.565086364746094,-2.785431146621704,1.4646718502044678,3.9323158264160156,0.19235913455486298,-1.1407945156097412,0.4424474835395813,4.091451644897461
17,17468,17466,-0.05525286868214607,0.3861715793609619,1.134040117263794,6.601870536804199,-16.8211612701416,-3.7067081928253174,1.4648656845092773,3.934253692626953,0.1938173919916153,-0.864425539970398,0.3101673424243927,4.0152974128723145
18,17478,17476,-0.07283122092485428,0.20765547454357147,1.149479866027832,3.050086498260498,-13.635335922241211,-2.9581618309020996,1.4642140865325928,3.9348878860473633,0.19638913869857788,-0.6106681823730469,0.27027663588523865,3.9692885875701904
19,17488,17486,0.06328022480010986,0.023033425211906433,1.0479501485824585,1.236747145652771,-10.84189510345459,-3.3236212730407715,1.4680910110473633,3.9398465156555176,0.1993565410375595,-1.1034866571426392,-0.35362812876701355,3.7091262340545654
20,17498,17496,0.010612663812935352,-0.03310589864850044,1.0168455839157104,1.8187493085861206,-8.107200622558594,-1.448013424873352,1.4680362939834595,3.939735174179077,0.1990833729505539,-0.9197075366973877,-0.19242516160011292,3.7277817726135254
21,17508,17506,0.08572649210691452,0.03209631145000458,1.0077706575393677,1.9226776361465454,-8.13842487335205,-1.1364431381225586,1.4697386026382446,3.9399988651275635,0.20196297764778137,-0.8947067856788635,-0.04764588922262192,3.7392282485961914
22,17518,17516,0.1721620261669159,-0.08852790296077728,0.9171759486198425,7.360596179962158,-7.8887505531311035,-1.839176058769226,1.4717620611190796,3.940096378326416,0.20520582795143127,-0.645105242729187,0.12797927856445312,3.7596254348754883
23,17528,17526,0.0674164742231369,-0.32627466320991516,0.8141930103302002,8.883901596069336,-14.019484519958496,-1.7642154693603516,1.4726992845535278,3.9389452934265137,0.20810666680335999,-0.504947304725647,0.4057091772556305,3.77968692779541
24,17538,17536,0.1017223671078682,-0.30918699502944946,0.8825764656066895,10.20995807647705,-18.862958908081055,-1.5653769969940186,1.471950888633728,3.938523530960083,0.20800739526748657,-0.1762913018465042,0.5777191519737244,3.7840163707733154
25,17548,17546,0.058385398238897324,-0.06473179906606674,0.94281005859375,2.779930830001831,-16.33545684814453,-1.745622992515564,1.4742558002471924,3.938656806945801,0.21039371192455292,-0.23122325539588928,0.6139545440673828,3.746659994125366
26,17558,17556,-0.11258888989686966,0.14775528013706207,1.0354349613189697,-0.22698624432086945,-15.83846378326416,-3.0538763999938965,1.477500081062317,3.938194751739502,0.21250319480895996,-0.21370238065719604,0.6611189246177673,3.720494270324707
27,17568,17566,-0.18853530287742615,0.11279557645320892,0.9840455055236816,-5.311446666717529,-10.175188064575195,-2.731098175048828,1.4791523218154907,3.9402458667755127,0.21179214119911194,0.0640304684638977,0.6339243054389954,3.7021360397338867
28,17578,17576,-0.0018533349502831697,0.20870482921600342,0.9478371143341064,-9.894689559936523,-4.207164764404297,-3.067996025085449,1.4791338443756104,3.9405088424682617,0.21380732953548431,0.22286945581436157,0.5451052784919739,3.678708076477051
29,17588,17586,0.23802673816680908,-0.09426449984312057,0.8131278157234192,-10.843795776367188,-1.904794454574585,-3.0828049182891846,1.4801486730575562,3.9432034492492676,0.21578574180603027,0.1290130615234375,0.5334891080856323,3.6401896476745605
30,17598,17596,0.21602727472782135,-0.05508216843008995,0.8848851323127747,-6.465601921081543,-10.693045616149902,-3.114715814590454,1.4830904006958008,3.9458112716674805,0.2127818912267685,0.2838015854358673,0.4673246741294861,3.612252950668335
31,17608,17606,0.08526422083377838,0.21401916444301605,0.8756367564201355,-3.524097204208374,-12.161665916442871,-3.3773865699768066,1.4811949729919434,3.9473938941955566,0.21420647203922272,0.2929399609565735,0.5005464553833008,3.5699710845947266
32,17618,17616,-0.07704184204339981,0.12094726413488388,0.9875518679618835,-7.494546890258789,-10.723443984985352,-3.0556085109710693,1.4825828075408936,3.9465389251708984,0.21564744412899017,0.5080942511558533,0.36462077498435974,3.5470330715179443
33,17628,17626,-0.09291264414787292,0.26400333642959595,0.9692946076393127,-6.496791839599609,-9.266890525817871,-4.074238300323486,1.4825111627578735,3.945242166519165,0.2148914784193039,0.7693941593170166,0.4600507318973541,3.5285778045654297
34,17638,17636,-0.12158992141485214,0.29472386837005615,0.9800992012023926,-7.609870910644531,0.6895111203193665,-5.398907661437988,1.4851058721542358,3.9480035305023193,0.2160854935646057,0.6578588485717773,0.3371789753437042,3.473252058029175
35,17648,17646,-0.0262881051748991,0.15553230047225952,0.9775786995887756,-7.066182613372803,2.695443868637085,-3.1640660762786865,1.4854756593704224,3.9472367763519287,0.21716076135635376,0.7400811314582825,0.2990832030773163,3.4402658939361572
36,17658,17656,0.08519364893436432,-0.032219771295785904,0.9619404077529907,-5.6663923263549805,0.08506948500871658,-3.114391565322876,1.4868355989456177,3.947662353515625,0.21828527748584747,0.5035275220870972,0.3447284698486328,3.3818037509918213
37,17668,17666,0.0018886314937844872,0.018415452912449837,1.0035570859909058,-7.275681972503662,4.442911624908447,-3.1230857372283936,1.4889209270477295,3.9475173950195312,0.21719254553318024,0.5043564438819885,0.26759395003318787,3.351017475128174
38,17678,17676,0.05306180194020271,-0.09375853091478348,0.8542402982711792,-7.472850322723389,-5.170146942138672,-2.648385763168335,1.4894771575927734,3.9474377632141113,0.21815501153469086,0.5249297618865967,0.16997243463993073,3.322087049484253
39,17688,17686,0.03056512214243412,-0.1734619289636612,0.8437918424606323,-6.136849880218506,-7.041357517242432,-3.41001296043396,1.4893512725830078,3.9461967945098877,0.21906237304210663,0.6721675992012024,0.21943789720535278,3.282848834991455
40,17698,17696,0.06949279457330704,-0.10770817846059799,0.9479890465736389,-10.259662628173828,-1.6404497623443604,-3.9636216163635254,1.489417552947998,3.945903778076172,0.2168949693441391,0.7304553985595703,0.07762625068426132,3.250117301940918
41,17708,17706,0.05431712791323662,0.12931586802005768,1.1065860986709595,-8.653325080871582,-6.1797709465026855,-3.938076972961426,1.4909807443618774,3.9454538822174072,0.21730974316596985,0.6275628209114075,0.00519542396068573,3.1930668354034424
42,17718,17716,0.009598293341696262,0.03517122194170952,0.980578601360321,-4.744807720184326,-9.377273559570312,-2.2567660808563232,1.4952852725982666,3.945728302001953,0.21792148053646088,0.830680787563324,-0.16980771720409393,3.1839072704315186
43,17728,17726,-0.036837559193372726,-0.09801775962114334,0.9452207088470459,-3.312657356262207,-9.970658302307129,-2.0878360271453857,1.4972530603408813,3.9446890354156494,0.2169477790594101,1.0189915895462036,-0.21545138955116272,3.166203260421753
44,17738,17736,-0.01771548017859459,-0.18818362057209015,0.9453696012496948,-1.4407624006271362,-1.6899861097335815,-3.080747127532959,1.5007070302963257,3.942138671875,0.21730037033557892,1.1428172588348389,-0.0760430321097374,3.1198811531066895
45,17748,17746,0.05360192432999611,-0.20787853002548218,0.9699626564979553,-4.64532995223999,1.8287702798843384,-2.840618371963501,1.5007811784744263,3.942239999771118,0.2175900787115097,1.1917717456817627,-0.15826185047626495,3.1053152084350586
46,17758,17756,-0.1032208576798439,-0.03485161438584328,1.0792882442474365,-2.854977607727051,3.2646665573120117,-3.4756009578704834,1.5036671161651611,3.9416403770446777,0.217876598238945,1.028584361076355,-0.13256880640983582,3.0631511211395264
47,17768,17766,-0.08967969566583633,-0.25243324041366577,0.994998037815094,-5.891877174377441,7.112286567687988,-2.790346384048462,1.5064109563827515,3.9424962997436523,0.21784605085849762,0.9767088890075684,-0.18901780247688293,3.0352280139923096
48,17778,17776,0.13997572660446167,-0.2270146906375885,0.9849560856819153,-4.541006088256836,8.183337211608887,-2.8956518173217773,1.5067718029022217,3.9429640769958496,0.21811123192310333,0.9839356541633606,-0.19380301237106323,3.001061201095581
49,17788,17786,0.07885085046291351,-0.017527831718325615,1.07707679271698,-8.349146842956543,3.6715002059936523,-3.2149176597595215,1.5088342428207397,3.944276809692383,0.21849027276039124,0.9410752654075623,-0.29381412267684937,2.9777748584747314
50,17798,17796,-0.0011095735244452953,-0.020352337509393692,1.1049824953079224,-7.329192638397217,5.368497371673584,-3.4765594005584717,1.5096908807754517,3.9444196224212646,0.21889057755470276,0.8293979167938232,-0.411684513092041,2.9492430686950684
51,17808,17806,0.00365307554602623,-0.031721483916044235,1.1323390007019043,-5.629002094268799,-4.956347942352295,-2.808108329772949,1.5094608068466187,3.945161819458008,0.21929119527339935,0.8505669236183167,-0.49615898728370667,2.922786235809326
52,17818,17816,-0.08932848274707794,-0.11985071748495102,1.1409763097763062,-5.355773448944092,-3.0572922229766846,-2.3175535202026367,1.508811354637146,3.9448094367980957,0.2198268473148346,0.9900882840156555,-0.5532119274139404,2.8973567485809326
53,17828,17826,-0.05741241201758385,-0.05314936861395836,1.2136598825454712,0.5077636241912842,0.6150562763214111,-1.7216345071792603,1.5105066299438477,3.943824052810669,0.22159510850906372,1.00483238697052,-0.475868284702301,2.8588130474090576
54,17838,17836,-0.035322707146406174,-0.07937595248222351,1.1603832244873047,-0.867152988910675,3.8353817462921143,-0.6213967204093933,1.5111130475997925,3.944371461868286,0.2225530594587326,0.9106339812278748,-0.5895228385925293,2.872912645339966
55,17848,17846,0.05217185243964195,-0.1042729914188385,1.1813435554504395,0.4554688632488251,8.913537979125977,-0.5860452055931091,1.51042902469635,3.9443771839141846,0.22360554337501526,0.9895708560943604,-0.62925785779953,2.8698933124542236
56,17858,17856,0.006742415018379688,-0.09253273159265518,1.0510826110839844,-1.8134667873382568,4.637196063995361,0.5538256764411926,1.5103342533111572,3.9436962604522705,0.2258947342634201,0.8943537473678589,-0.5352321267127991,2.8536696434020996
57,17868,17866,-0.007529500871896744,-0.028214208781719208,1.1093064546585083,-1.0887703895568848,4.952895641326904,0.5065972208976746,1.510050654411316,3.945629835128784,0.22738803923130035,0.8877681493759155,-0.6006982326507568,2.8658876419067383
58,17878,17876,0.008483244106173515,0.05247483029961586,1.0685023069381714,-2.7527995109558105,6.201755046844482,-0.014430422335863113,1.5084662437438965,3.946974039077759,0.2288539856672287,0.9792555570602417,-0.5917516350746155,2.8585903644561768
59,17888,17886,-0.01882782392203808,-0.061890557408332825,1.063054084777832,-5.894493579864502,5.7217583656311035,-0.2582847476005554,1.508855938911438,3.9471850395202637,0.2305578738451004,0.8307027220726013,-0.694084107875824,2.8684632778167725
60,17898,17896,-0.0813944861292839,-0.1284557282924652,1.0439833402633667,-0.8468234539031982,9.33310604095459,0.20786595344543457,1.5093351602554321,3.944777011871338,0.2336265742778778,0.6524372100830078,-0.4316994547843933,2.8220415115356445
61,17908,17906,-0.02363390102982521,-0.19670891761779785,0.9350350499153137,-4.4467363357543945,9.984918594360352,0.6529765725135803,1.5099058151245117,3.9443397521972656,0.23565156757831573,0.46259498596191406,-0.4722771942615509,2.835059881210327
62,17918,17916,0.033794503659009933,-0.2077517956495285,1.0002425909042358,-4.014861583709717,9.71961784362793,-0.1648566871881485,1.5127671957015991,3.946347713470459,0.2375502586364746,0.23617619276046753,-0.6019755005836487,2.8608150482177734
63,17928,17926,0.04762643575668335,-0.01961561106145382,1.0921366214752197,-5.582197666168213,4.918807506561279,0.5230365991592407,1.5142449140548706,3.9471771717071533,0.23956957459449768,0.22214210033416748,-0.5880428552627563,2.855095386505127
64,17938,17936,0.14483331143856049,-0.09848859161138535,1.0008482933044434,-5.144284248352051,2.585797071456909,0.8117484450340271,1.5136648416519165,3.949911117553711,0.24159063398838043,0.41996076703071594,-0.6900433301925659,2.853789806365967
65,17948,17946,0.09294318407773972,0.03284793347120285,0.9785951375961304,-7.200991630554199,1.7672189474105835,-0.004689135123044252,1.5112884044647217,3.9503402709960938,0.24356700479984283,0.37747475504875183,-0.6848849654197693,2.8548734188079834
66,17958,17956,-0.016289176419377327,-0.04906448721885681,1.0541647672653198,-4.359385013580322,-4.004316806793213,1.1372383832931519,1.5115960836410522,3.952894926071167,0.24730274081230164,0.3848845660686493,-0.8316446542739868,2.869518995285034
67,17968,17966,-0.0160269383341074,0.012411735020577908,1.0481040477752686,-5.223248481750488,6.945584297180176,-0.6498624682426453,1.5131137371063232,3.9532010555267334,0.24933035671710968,0.4265758991241455,-0.936411440372467,2.8791937828063965
68,17978,17976,0.040845632553100586,-0.06037455052137375,0.9882705807685852,-2.432985782623291,6.682467937469482,0.028604190796613693,1.514003872871399,3.954965114593506,0.25151029229164124,0.29890117049217224,-1.037544846534729,2.895763635635376
69,17988,17986,0.1804385632276535,0.09745163470506668,0.9622209072113037,0.3678130507469177,9.133158683776855,-1.2552558183670044,1.5142933130264282,3.954603910446167,0.2535904347896576,0.26424768567085266,-1.0681003332138062,2.901585102081299
70,17998,17996,0.11948518455028534,0.04289109632372856,1.012384057044983,4.99315071105957,9.726207733154297,-0.1410556584596634,1.5153263807296753,3.9541773796081543,0.2567988634109497,0.23212279379367828,-1.0713483095169067,2.891674518585205
71,18008,18006,0.0185597725212574,-0.030046023428440094,1.0199406147003174,7.07219934463501,5.71531343460083,0.10418528318405151,1.5165565013885498,3.9532153606414795,0.2589845061302185,0.31559115648269653,-1.023223876953125,2.866262435913086
72,18018,18016,-0.03647411987185478,-0.08453373610973358,0.9038878083229065,7.494612216949463,4.738544940948486,0.0353861078619957,1.5183371305465698,3.95269775390625,0.26122575998306274,0.09628298133611679,-0.9384862184524536,2.8783133029937744
73,18028,18026,0.025994814932346344,-0.06469886749982834,0.9070937037467957,8.065739631652832,1.7867642641067505,0.010228753089904785,1.5181262493133545,3.9524147510528564,0.26153287291526794,0.05355691909790039,-0.8505791425704956,2.8738741874694824
74,18038,18036,0.09168713539838791,0.11861905455589294,0.8899435997009277,6.876699447631836,-1.9383219480514526,0.24482809007167816,1.519207239151001,3.952174663543701,0.26346027851104736,-0.12674255669116974,-0.6220325231552124,2.880840301513672
75,18048,18046,0.020355191081762314,0.032977666705846786,0.9448301196098328,-1.015944480895996,5.428134918212891,-0.5571665167808533,1.5220284461975098,3.9507954120635986,0.26508474349975586,-0.4927210211753845,-0.43974918127059937,2.9135794639587402
76,18058,18056,0.018811605870723724,-0.005299476440995932,0.9126964211463928,-3.121936082839966,-1.4651217460632324,-0.8552794456481934,1.5309263467788696,3.9645190238952637,0.26752975583076477,-1.656054139137268,-1.8998466730117798,3.0255095958709717
77,18068,18066,-0.07415253669023514,0.3212515413761139,1.023324966430664,-11.09814453125,5.355587005615234,-0.6696125268936157,1.531364917755127,3.9649016857147217,0.2698119580745697,-1.5861294269561768,-1.8520294427871704,3.007371425628662
78,18078,18076,-0.10383214801549911,0.2898646295070648,0.9940699934959412,0.720564067363739,-13.43275260925293,-0.44663378596305847,1.5309884548187256,3.9649064540863037,0.272591233253479,-1.398294448852539,-1.7810282707214355,2.984884262084961
79,18088,18086,-0.08953860402107239,0.10291247814893723,1.010582447052002,13.65785026550293,-25.523738861083984,-0.7308517098426819,1.5331653356552124,3.9651405811309814,0.2752853035926819,-1.0455085039138794,-1.7527523040771484,2.9537248611450195
80,18098,18096,-0.053043149411678314,0.09421830624341965,0.9402227997779846,22.951457977294922,-24.71664810180664,-0.18073591589927673,1.5327876806259155,3.9648048877716064,0.2797025442123413,-0.6674557328224182,-1.5243380069732666,2.9427731037139893
81,18108,18106,0.06328307092189789,-0.00782578345388174,0.9852104783058167,33.463138580322266,-34.489593505859375,1.0735081434249878,1.5315309762954712,3.965069055557251,0.2818300426006317,-0.1410047858953476,-1.2610841989517212,2.911348819732666
82,18118,18116,0.07017703354358673,-0.03569038212299347,0.9364652633666992,41.51054000854492,-34.92740249633789,1.7770940065383911,1.5320810079574585,3.9662117958068848,0.28366169333457947,0.33836355805397034,-0.9227591753005981,2.8973026275634766
83,18128,18126,-0.02943412773311138,-0.03888991102576256,0.8569965958595276,37.94313049316406,-25.880483627319336,0.6887610554695129,1.5331779718399048,3.9663262367248535,0.2846829295158386,0.6733341217041016,-0.3536970019340515,2.9274425506591797
84,18138,18136,-0.13291704654693604,0.8435999751091003,1.0117899179458618,26.337608337402344,-10.108542442321777,-1.0526094436645508,1.5341386795043945,3.967128038406372,0.2863628566265106,0.8867223262786865,-0.12004473060369492,2.935014486312866
85,18148,18146,-0.1844855397939682,0.5284231901168823,1.0811066627502441,12.210049629211426,4.998244762420654,-0.3840005397796631,1.5333092212677002,3.969180107116699,0.2878941297531128,1.1072678565979004,0.18974466621875763,2.9239277839660645
86,18158,18156,-0.042293768376111984,-0.06206570938229561,0.8892064094543457,5.619507789611816,5.477719783782959,-0.7102047204971313,1.534487009048462,3.9711756706237793,0.2890094816684723,1.1061471700668335,0.43297579884529114,2.920908212661743
87,18168,18166,0.05385579541325569,-0.18580958247184753,0.8609047532081604,-1.745483160018921,10.062088966369629,-1.8457530736923218,1.534490704536438,3.9714932441711426,0.29053688049316406,1.0889382362365723,0.503235399723053,2.909294605255127
88,18178,18176,0.07475679367780685,-0.07444387674331665,0.9815948009490967,-9.201286315917969,13.15314769744873,-2.0527989864349365,1.5354899168014526,3.9730892181396484,0.29190823435783386,1.1570645570755005,0.5234610438346863,2.886129856109619
89,18188,18186,-0.05358276888728142,-0.01279502548277378,0.9770484566688538,-7.106180191040039,10.792274475097656,-1.3208404779434204,1.5380867719650269,3.9751641750335693,0.2931937575340271,1.0445141792297363,0.4662898778915405,2.8648838996887207
90,18198,18196,-0.1451435536146164,0.25969693064689636,0.9197112321853638,-2.5553030967712402,8.250201225280762,-2.2260050773620605,1.540588617324829,3.9772987365722656,0.29450175166130066,1.036962866783142,0.4234241843223572,2.849404811859131
91,18208,18206,-0.017065763473510742,0.47588029503822327,0.90046626329422,2.3063368797302246,11.673012733459473,-2.0419375896453857,1.541252613067627,3.9771852493286133,0.29588475823402405,0.9037430286407471,0.4393676519393921,2.8263003826141357
92,18218,18216,0.20857620239257812,-0.06502369046211243,0.8403298258781433,10.105228424072266,1.3179049491882324,-0.9338887333869934,1.5410338640213013,3.977693557739258,0.2972003221511841,0.8721963763237,0.5356248617172241,2.7967803478240967
93,18228,18226,0.17380911111831665,-0.3204360902309418,0.799728512763977,12.661919593811035,-4.17556619644165,-1.7149507999420166,1.5382260084152222,3.9784789085388184,0.29986071586608887,1.115981936454773,0.5611908435821533,2.792020320892334
94,18238,18236,-0.012529815547168255,-0.055379193276166916,0.9271981120109558,9.052689552307129,6.073268413543701,-2.6930220127105713,1.5384005308151245,3.9797873497009277,0.3010334074497223,1.059468150138855,0.6415072679519653,2.7731618881225586
95,18248,18246,-0.1655585616827011,0.7213520407676697,0.9593295454978943,8.476210594177246,12.999896049499512,-2.615778923034668,1.536717414855957,3.9790892601013184,0.3018816113471985,1.154229760169983,0.8544503450393677,2.7459094524383545
96,18258,18256,-0.07231146842241287,0.4062158763408661,0.9996281862258911,5.866527557373047,15.628854751586914,-3.3722429275512695,1.5369312763214111,3.9785382747650146,0.30052652955055237,0.9955499768257141,1.0304795503616333,2.7093167304992676
97,18268,18266,-0.0382314957678318,0.2632110118865967,0.9469110369682312,1.630826711654663,13.789676666259766,-2.013396978378296,1.5349223613739014,3.979766607284546,0.30120426416397095,1.0063163042068481,0.9969717264175415,2.702402114868164
98,18278,18276,-0.02337273396551609,0.2140379101037979,0.8488920331001282,-2.4890503883361816,13.538410186767578,-2.914890766143799,1.5361747741699219,3.9799997806549072,0.30203884840011597,0.6798776984214783,1.0373154878616333,2.657510757446289
99,18288,18286,-0.1016046553850174,0.18018440902233124,0.9075479507446289,-6.418393135070801,16.001712799072266,-4.163830757141113,1.5343856811523438,3.9794507026672363,0.302004873752594,0.46142369508743286,1.0256731510162354,2.6057803630828857
100,18298,18296,-0.2588818669319153,0.23226980865001678,1.0174729824066162,-11.594819068908691,15.826799392700195,-3.323129653930664,1.533784031867981,3.9813191890716553,0.3023432493209839,0.5957744121551514,0.9909372329711914,2.6261394023895264
101,18308,18306,-0.253180593252182,0.45793071389198303,1.0732107162475586,-8.816056251525879,16.67731285095215,-3.0066771507263184,1.5330443382263184,3.9817962646484375,0.30272114276885986,0.41313672065734863,0.8724241852760315,2.597773551940918
102,18318,18316,-0.14820456504821777,0.2767731249332428,0.9603134989738464,-4.6400532722473145,17.2962646484375,-2.7060303688049316,1.5329152345657349,3.983100175857544,0.303122878074646,0.24098853766918182,0.769271969795227,2.5718746185302734
103,18328,18326,-0.02190685085952282,-0.022526849061250687,0.9121224880218506,-1.0556918382644653,15.0033597946167,-1.95652437210083,1.532213807106018,3.9829342365264893,0.30146363377571106,-0.06186980381608009,0.8316850662231445,2.5162601470947266
104,18338,18336,0.03404923900961876,-0.15376657247543335,0.8880480527877808,3.623976230621338,6.523406982421875,-0.8800560832023621,1.5317997932434082,3.982839822769165,0.3016990125179291,-0.06803876906633377,0.7641932964324951,2.51992130279541
105,18348,18346,0.006794370245188475,-0.14600981771945953,0.8590562343597412,1.177309513092041,8.46133804321289,-1.748911738395691,1.5315016508102417,3.98506760597229,0.30181705951690674,-0.24645349383354187,0.8244695067405701,2.4942550659179688
106,18358,18356,0.023248856887221336,0.1628033071756363,0.9616283178329468,2.380241870880127,11.978988647460938,-0.7977356314659119,1.5307949781417847,3.9863460063934326,0.299788236618042,-0.2550208270549774,0.8504995703697205,2.4939067363739014
107,18368,18366,0.08492471277713776,0.06229490414261818,0.9506932497024536,-0.38026055693626404,15.559680938720703,0.40564632415771484,1.5312926769256592,3.9869329929351807,0.29969510436058044,-0.5909134745597839,0.8630049228668213,2.465589761734009
108,18378,18376,-0.042560774832963943,0.0337931290268898,1.0127116441726685,-3.6374330520629883,27.529001235961914,-0.8208654522895813,1.529637098312378,3.9877007007598877,0.29947203397750854,-0.49163463711738586,0.7867042422294617,2.481257438659668
109,18388,18386,0.010450051166117191,0.1275194138288498,0.9960610866546631,-4.496345043182373,29.354732513427734,-1.0880690813064575,1.5276081562042236,3.9893736839294434,0.3004758954048157,-0.5332281589508057,0.6024528741836548,2.5079102516174316
110,18398,18396,-0.046984151005744934,0.08964971452951431,1.0113985538482666,-8.351283073425293,35.07645797729492,-1.482153296470642,1.527413010597229,3.9889109134674072,0.3003458082675934,-0.8927258253097534,0.6195330023765564,2.4902994632720947
111,18408,18406,-0.07443545013666153,0.04152728244662285,1.0059407949447632,-5.78641414642334,35.48002624511719,-1.5555388927459717,1.5266023874282837,3.989095449447632,0.3001862168312073,-1.0639381408691406,0.5992327332496643,2.504570722579956
112,18418,18416,0.008353854529559612,-0.0707286074757576,0.9307597875595093,-4.281148910522461,34.98478698730469,-0.6688075065612793,1.5253393650054932,3.9892871379852295,0.2999904453754425,-1.3247029781341553,0.5282672047615051,2.5044984817504883
113,18428,18426,-0.008200191892683506,0.0025770438369363546,1.032915711402893,1.0349133014678955,23.859905242919922,-0.5043641328811646,1.527579426765442,3.990044116973877,0.29778075218200684,-2.178292751312256,0.5786452889442444,2.468658447265625
114,18438,18436,0.03011179529130459,0.186659038066864,1.001957654953003,3.239377498626709,19.162805557250977,-0.8138963580131531,1.528760552406311,3.9913980960845947,0.2975078523159027,-2.2190983295440674,0.5214520692825317,2.4556078910827637
115,18448,18446,-0.05769724398851395,0.11424608528614044,1.0539590120315552,3.0576298236846924,11.329524993896484,0.3484414517879486,1.527887225151062,3.991518497467041,0.297260582447052,-2.413883686065674,0.5761553645133972,2.4575867652893066
116,18458,18456,-0.04905754327774048,0.08625073730945587,0.9559304714202881,0.7771205306053162,7.676236629486084,1.0331906080245972,1.5263428688049316,3.9916608333587646,0.29604461789131165,-2.3495850563049316,0.6254390478134155,2.488797187805176
117,18468,18466,-0.023813404142856598,0.03897928446531296,1.0373446941375732,-2.4681460857391357,11.16701602935791,0.342570036649704,1.5251996517181396,3.9922473430633545,0.29580435156822205,-2.4517765045166016,0.6435244083404541,2.4952611923217773
118,18478,18476,-0.036777935922145844,-0.036759525537490845,1.051256537437439,-3.7143399715423584,5.253623008728027,1.0322868824005127,1.5255634784698486,3.9922657012939453,0.295629620552063,-2.5333521366119385,0.6175755858421326,2.4978818893432617
119,18488,18486,-0.0013814631383866072,0.023689666762948036,0.9860251545906067,-5.273654937744141,2.6221117973327637,0.4839940071105957,1.5258469581604004,3.9918229579925537,0.29416534304618835,-2.6590967178344727,0.5557165741920471,2.4850175380706787
120,18498,18496,-0.0386018380522728,-0.0014930323231965303,1.0192030668258667,-8.06531047821045,8.165743827819824,0.2573457956314087,1.528030514717102,3.992732524871826,0.29396331310272217,-2.7637805938720703,0.4655708968639374,2.4719746112823486
121,18508,18506,0.019791414961218834,-0.09444337338209152,1.004387378692627,-4.263712406158447,2.7358314990997314,1.807325839996338,1.52886962890625,3.9929051399230957,0.29378288984298706,-2.886727809906006,0.35904401540756226,2.4544880390167236
122,18518,18516,-0.06905434280633926,-0.00566069083288312,1.0447945594787598,-0.6830087900161743,2.807779312133789,1.6175042390823364,1.5306116342544556,3.993839979171753,0.2916134297847748,-2.983721971511841,0.2888130247592926,2.4582042694091797
123,18528,18526,0.043654896318912506,-0.02785959467291832,0.9861788153648376,1.3556679487228394,1.257534384727478,1.7276297807693481,1.5288844108581543,3.994657039642334,0.291527658700943,-2.886336088180542,0.2799885869026184,2.4925036430358887
124,18538,18536,-0.04440326243638992,0.19421891868114471,1.1005723476409912,-0.18698902428150177,3.999518871307373,0.8130708336830139,1.5295169353485107,3.993349552154541,0.29138609766960144,-2.9137678146362305,0.46256524324417114,2.5774388313293457
125,18548,18546,0.0006463294266723096,0.039258845150470734,1.127695918083191,2.2490804195404053,-0.10641234368085861,1.7254501581192017,1.530759334564209,3.994901180267334,0.2913406491279602,-2.937737226486206,0.40056970715522766,2.562001943588257
126,18558,18556,-0.044072337448596954,0.08896087110042572,1.1021817922592163,1.78726327419281,-4.0808424949646,2.5399491786956787,1.5325175523757935,3.9969441890716553,0.289009690284729,-3.0023245811462402,0.2822962999343872,2.5155224800109863
127,18568,18566,0.055108509957790375,-0.019662700593471527,1.0469104051589966,-1.9599313735961914,-4.541904449462891,1.9554494619369507,1.5318063497543335,3.9978907108306885,0.2890467643737793,-2.93683123588562,0.3176411986351013,2.546121597290039
128,18578,18576,-0.0535234659910202,0.2340909242630005,1.1659600734710693,-3.9209401607513428,-2.203166961669922,0.8288938999176025,1.5319914817810059,3.998171806335449,0.2891080975532532,-2.9105074405670166,0.3093686103820801,2.566912889480591
129,18588,18586,-0.06590400636196136,0.13013695180416107,1.1472768783569336,-4.7165117263793945,-2.974605083465576,2.4500296115875244,1.5327497720718384,3.997401714324951,0.28711578249931335,-2.8182289600372314,0.3456663489341736,2.6127402782440186
130,18598,18596,-0.019828859716653824,0.1393028199672699,1.168067455291748,-2.729012966156006,-3.299729347229004,2.182452440261841,1.534609317779541,3.998178482055664,0.28733161091804504,-2.8009729385375977,0.36817193031311035,2.6584720611572266
131,18608,18606,0.06045208498835564,0.18683944642543793,1.1070986986160278,-4.156373023986816,-6.162494659423828,0.6444529294967651,1.5381042957305908,3.996912717819214,0.2876148819923401,-2.9096086025238037,0.3944997787475586,2.694411039352417
132,18618,18616,-0.08014578372240067,0.2427905946969986,1.166185736656189,-1.21926748752594,-9.718415260314941,2.034304618835449,1.539717674255371,3.998210906982422,0.28855475783348083,-2.8845787048339844,0.33700549602508545,2.6907145977020264
133,18628,18626,0.03496873751282692,-0.002384715713560581,1.0420693159103394,-5.570883750915527,-6.088834285736084,1.2258453369140625,1.5398104190826416,3.9983317852020264,0.28923773765563965,-2.7410221099853516,0.2941364645957947,2.6993157863616943
134,18638,18636,-0.0392937958240509,0.07455826550722122,1.108651876449585,-2.9745073318481445,-12.172595024108887,1.4781137704849243,1.5423773527145386,3.999297857284546,0.2900524139404297,-2.5294885635375977,0.3040808439254761,2.7409064769744873
135,18648,18646,-0.019049793481826782,0.13944794237613678,1.0735729932785034,-5.253870487213135,-6.248286724090576,0.825103759765625,1.5467722415924072,4.00106143951416,0.29086223244667053,-2.4510085582733154,0.3023914396762848,2.769404888153076
136,18658,18656,-0.14756827056407928,0.3219291567802429,1.1419916152954102,-5.948846817016602,-14.43349552154541,-0.14690710604190826,1.549131989479065,4.001684188842773,0.29080045223236084,-2.36244797706604,0.2183399647474289,2.762291431427002
137,18668,18666,-0.16993451118469238,0.30448558926582336,1.097501277923584,-6.244052410125732,-5.933302879333496,-0.21472910046577454,1.551177740097046,4.001924991607666,0.291664719581604,-2.387176275253296,0.12486743181943893,2.7383453845977783
138,18678,18676,-0.004011292941868305,0.023817596957087517,1.0788393020629883,-4.626887798309326,-5.369126796722412,0.9919306039810181,1.5548019409179688,4.002579689025879,0.2925819456577301,-2.4611637592315674,0.10779306292533875,2.749964475631714
139,18688,18686,0.1911524534225464,-0.07251615822315216,1.084391474723816,-2.2505483627319336,-5.664467811584473,0.8462269306182861,1.5547070503234863,4.0026960372924805,0.2931724190711975,-2.3187544345855713,0.024708455428481102,2.7437870502471924
140,18698,18696,0.17622670531272888,-0.07225140184164047,1.0007961988449097,-1.619081735610962,-10.455378532409668,0.9093141555786133,1.5550174713134766,4.002217769622803,0.29448381066322327,-2.1737935543060303,0.035652320832014084,2.7716856002807617
141,18708,18706,0.19039417803287506,-0.18330667912960052,0.9803158044815063,-0.6256494522094727,-22.529855728149414,0.5018576383590698,1.5540332794189453,4.002096176147461,0.2959609925746918,-1.8791403770446777,-0.019362006336450577,2.7705302238464355
142,18718,18716,-0.0035799196921288967,-0.12792402505874634,0.9290536046028137,-3.4298319816589355,-13.088667869567871,-0.7055915594100952,1.557019829750061,4.002438068389893,0.29409462213516235,-1.7749723196029663,0.010887217707931995,2.791405200958252
143,18728,18726,0.0327935554087162,-0.07769469916820526,0.9720472097396851,-0.12757617235183716,-13.880013465881348,-0.34105339646339417,1.5582541227340698,4.002551078796387,0.295065313577652,-1.6580332517623901,-0.036863647401332855,2.778550386428833
144,18738,18736,0.0833902508020401,-0.07521729916334152,0.9572457671165466,-2.930300712585449,-9.14399242401123,-1.7326401472091675,1.5584083795547485,4.001209735870361,0.296049028635025,-1.4334425926208496,0.08503330498933792,2.8172717094421387
145,18748,18746,-0.04046070575714111,-0.029409317299723625,0.9424318075180054,-2.827843189239502,-10.092565536499023,-2.1823372840881348,1.5613927841186523,4.001543045043945,0.2967774271965027,-1.5473004579544067,0.01717054285109043,2.784778118133545
146,18758,18756,0.01496745366603136,-0.0005962109426036477,0.8973522782325745,-6.159732341766357,-2.990250587463379,-1.5667506456375122,1.5620492696762085,4.001597881317139,0.2959577441215515,-1.369194746017456,-0.07006289809942245,2.747180461883545
147,18768,18766,-0.06464190036058426,0.10053038597106934,0.9545248746871948,-4.347380638122559,-0.9263448119163513,-2.063269853591919,1.564657211303711,4.002956390380859,0.2965555191040039,-1.3881534337997437,-0.17048540711402893,2.7152700424194336
148,18778,18776,0.12575338780879974,0.024395179003477097,0.9194125533103943,-5.210979461669922,-5.426087856292725,-2.8764584064483643,1.5661782026290894,4.0006608963012695,0.2974221110343933,-1.2051697969436646,-0.10964176058769226,2.7223684787750244
149,18788,18786,0.21192269027233124,-0.2577696442604065,0.8904207944869995,-1.0782101154327393,-17.67984962463379,-1.274964690208435,1.5704632997512817,4.000601291656494,0.2956206202507019,-1.3685890436172485,-0.21408186852931976,2.686443567276001
150,18798,18796,0.11456549167633057,-0.206437349319458,0.8723373413085938,-0.6377154588699341,-14.447728157043457,-2.592320442199707,1.5731693506240845,4.001026153564453,0.29579654335975647,-1.3624998331069946,-0.26156744360923767,2.6652991771698
151,18808,18806,0.034470219165086746,0.1071150079369545,0.9569041728973389,-3.0874011516571045,-14.272801399230957,-3.0459136962890625,1.5743298530578613,4.00115966796875,0.296334445476532,-1.072989583015442,-0.22487547993659973,2.64943528175354
152,18818,18816,-0.19843877851963043,0.24379271268844604,1.0093790292739868,-1.3402515649795532,-14.24053955078125,-3.9469780921936035,1.5773582458496094,4.002068996429443,0.2939933240413666,-1.09388267993927,-0.28018108010292053,2.616942882537842
153,18828,18826,-0.26679864525794983,0.4482724964618683,1.0028690099716187,-1.7800483703613281,-11.985550880432129,-3.4464027881622314,1.5794497728347778,4.004588603973389,0.2941349148750305,-0.8532233238220215,-0.3080301582813263,2.5778005123138428
154,18838,18836,-0.18062281608581543,0.5510045886039734,1.1040819883346558,-2.596161365509033,-8.985243797302246,-3.310633659362793,1.5808907747268677,4.0051374435424805,0.29420411586761475,-0.6484813094139099,-0.3438625633716583,2.536503791809082
155,18848,18846,-0.07226813584566116,0.31342020630836487,1.1046768426895142,0.89154452085495,-14.115293502807617,-3.200228214263916,1.5837008953094482,4.006896495819092,0.2937847375869751,-0.6150692701339722,-0.3667427897453308,2.509615898132324
156,18858,18856,-0.04893564060330391,-0.017314698547124863,0.9411395192146301,0.9495327472686768,-11.419085502624512,-2.5529441833496094,1.5845781564712524,4.008060455322266,0.2941248416900635,-0.3431127965450287,-0.359122097492218,2.4729440212249756
157,18868,18866,-0.1570725440979004,0.1771727055311203,0.9644129872322083,1.223404049873352,-12.161048889160156,-2.9590678215026855,1.586523413658142,4.006575584411621,0.29427680373191833,-0.27055636048316956,-0.18573476374149323,2.4624502658843994
158,18878,18876,-0.004287026356905699,0.24232718348503113,1.0299475193023682,0.984935998916626,-9.082589149475098,-3.515354633331299,1.5886110067367554,4.008088111877441,0.29456835985183716,-0.09012861549854279,-0.26661357283592224,2.428086280822754
159,18888,18886,0.10284441709518433,0.01325742807239294,1.0720937252044678,0.9929509162902832,-7.052246570587158,-3.356039524078369,1.5884522199630737,4.008914947509766,0.2956642210483551,0.02827393263578415,-0.26654180884361267,2.3972725868225098
160,18898,18896,0.14986436069011688,-0.167286679148674,0.9999275803565979,-0.9528980851173401,-4.649439334869385,-3.8475375175476074,1.5889583826065063,4.009839057922363,0.29596132040023804,0.046109557151794434,-0.2661190330982208,2.3739781379699707
161,18908,18906,0.005262041464447975,0.0182003453373909,1.0193414688110352,-0.4117649793624878,-4.020180702209473,-4.298467636108398,1.5886409282684326,4.009864807128906,0.296417236328125,0.27752193808555603,-0.2845599353313446,2.3292806148529053
162,18918,18916,0.03950662910938263,-0.14351341128349304,0.96662437915802,1.1091203689575195,-6.589766025543213,-4.789366245269775,1.5920279026031494,4.009246826171875,0.29778289794921875,0.08521969616413116,-0.21444785594940186,2.297755241394043
163,18928,18926,0.03525387868285179,-0.1731056571006775,0.8878943920135498,-0.428782194852829,-4.905117988586426,-4.475876331329346,1.593271255493164,4.009279727935791,0.29813286662101746,0.17514631152153015,-0.2050967961549759,2.250157356262207
164,18938,18936,-0.05963575094938278,-0.2448299080133438,0.9021564722061157,-0.6537178754806519,-5.1428704261779785,-4.104930877685547,1.5944633483886719,4.009057998657227,0.2984118163585663,0.2467106282711029,-0.2201901525259018,2.2073352336883545
165,18948,18946,0.00882161408662796,-0.12675213813781738,0.9848577380180359,-2.251485824584961,-5.102874755859375,-4.1292805671691895,1.5950616598129272,4.009222030639648,0.29673969745635986,0.3294980227947235,-0.2616216242313385,2.1647047996520996
166,18958,18956,0.01901504211127758,-0.07881724089384079,0.953700065612793,-0.8620441555976868,-8.0944185256958,-3.589627742767334,1.595706820487976,4.0100178718566895,0.29689183831214905,0.5569278001785278,-0.3069334328174591,2.116145372390747
167,18968,18966,-0.04725020378828049,0.008807002566754818,1.0325653553009033,1.2060550451278687,-10.44706916809082,-3.2025187015533447,1.597814917564392,4.0094895362854,0.29692381620407104,0.5730450749397278,-0.17512880265712738,2.0721147060394287
168,18978,18976,-0.02588728256523609,-0.01963767223060131,0.9591978788375854,1.2262873649597168,-6.777427673339844,-3.1942992210388184,1.600324273109436,4.00875186920166,0.2969275116920471,0.5379223823547363,-0.2401731014251709,2.047447443008423
169,18988,18986,-0.03593110293149948,-0.23782186210155487,0.9169487953186035,-0.25295019149780273,-0.48687103390693665,-3.332200765609741,1.6008819341659546,4.009128570556641,0.2934952676296234,0.6207167506217957,-0.2327728122472763,2.0178141593933105
170,18998,18996,-0.01945296674966812,0.3578858971595764,1.064690113067627,1.0326735973358154,-1.0116311311721802,-3.035104274749756,1.601538062095642,4.009605884552002,0.2933170199394226,0.6979631185531616,-0.2427571564912796,1.9858590364456177
171,19008,19006,-0.03228044509887695,0.050482094287872314,0.939853847026825,-0.1518099009990692,0.059753138571977615,-2.5543770790100098,1.6015691757202148,4.009581089019775,0.29318004846572876,0.8273823261260986,-0.239424929022789,1.9532122611999512
172,19018,19016,0.04875698313117027,-0.036368418484926224,0.9486267566680908,-2.0719103813171387,6.445810794830322,-3.8896901607513428,1.601893663406372,4.010847568511963,0.29188764095306396,0.9391002655029297,-0.24502398073673248,1.932613492012024
173,19028,19026,-0.03430411219596863,-0.07654605805873871,0.9786298274993896,-1.5099529027938843,5.823657512664795,-3.3773677349090576,1.603001594543457,4.010196208953857,0.29151588678359985,0.8713204860687256,-0.1876409947872162,1.8852643966674805
174,19038,19036,-0.011553570628166199,-0.09257246553897858,0.9483855962753296,5.969090938568115,0.5909151434898376,-2.5787134170532227,1.6028954982757568,4.011354446411133,0.2911536693572998,0.891960084438324,-0.21908272802829742,1.857019305229187
175,19048,19046,0.01753033883869648,-0.28684255480766296,0.7956939935684204,-0.17449799180030823,10.548171043395996,-2.6517577171325684,1.6049336194992065,4.011582851409912,0.2873122990131378,0.6871919631958008,-0.23995451629161835,1.8440722227096558
176,19058,19056,-0.09125245362520218,-0.07075405865907669,1.0072895288467407,-0.057558801025152206,10.814496994018555,-1.6863781213760376,1.6057928800582886,4.011223793029785,0.28654932975769043,0.624707818031311,-0.24156109988689423,1.8235876560211182
177,19068,19066,0.04592898488044739,-0.00919787771999836,1.074512243270874,0.45784613490104675,8.371254920959473,-1.8880743980407715,1.6053310632705688,4.012346267700195,0.28592580556869507,0.7185018062591553,-0.24609015882015228,1.802056908607483
178,19078,19076,0.08313436061143875,0.0375513955950737,1.103371500968933,2.8335187435150146,6.600025653839111,-1.311071753501892,1.6083964109420776,4.0137176513671875,0.2850945293903351,0.4868300259113312,-0.30808955430984497,1.8138024806976318
179,19088,19086,0.08993103355169296,-0.048326801508665085,1.0181554555892944,1.7426097393035889,4.322922229766846,-1.6141462326049805,1.6121454238891602,4.0132246017456055,0.28644609451293945,0.325227826833725,-0.25547313690185547,1.797825813293457
180,19098,19096,-0.044194094836711884,-0.07236529886722565,1.0083569288253784,1.9716583490371704,1.9733762741088867,-1.7657437324523926,1.612274408340454,4.013374328613281,0.286018431186676,0.3599931597709656,-0.21964044868946075,1.7734812498092651
181,19108,19106,0.03251350671052933,0.051151275634765625,1.1525269746780396,3.330820322036743,1.5619031190872192,-2.110348701477051,1.6123632192611694,4.013201713562012,0.285626083612442,0.420925498008728,-0.17755110561847687,1.7532848119735718
182,19118,19116,0.0010780642041936517,0.08273885399103165,1.17087984085083,4.360509395599365,-3.5926549434661865,-0.6632798910140991,1.6155027151107788,4.015201091766357,0.2892135977745056,0.41882216930389404,-0.19597128033638,1.7513904571533203
183,19128,19126,-0.07702220976352692,0.006046747323125601,1.1068601608276367,4.900061130523682,-3.1928870677948,0.5524223446846008,1.6179453134536743,4.016128063201904,0.2892814874649048,0.4761009216308594,-0.1126994863152504,1.7460238933563232
184,19138,19136,-0.11573222279548645,0.056293848901987076,1.1244161128997803,4.9774017333984375,-3.132087230682373,-0.7727694511413574,1.6186915636062622,4.015700340270996,0.2895001769065857,0.60318523645401,-0.03227603808045387,1.7393808364868164
185,19148,19146,-0.07906080782413483,0.09206657111644745,1.0880205631256104,2.0812699794769287,5.501291275024414,-1.0196527242660522,1.6189990043640137,4.016615390777588,0.2923506200313568,0.7131638526916504,-0.09831806272268295,1.755768060684204
186,19158,19156,-0.07276207208633423,-0.06795137375593185,1.0663151741027832,1.9398424625396729,11.038726806640625,-1.281109094619751,1.6209652423858643,4.016727924346924,0.2928639054298401,0.5858725309371948,-0.05637277662754059,1.7463642358779907
187,19168,19166,0.03484563156962395,-0.2257384955883026,1.0741653442382812,-0.10827142745256424,14.05964469909668,-1.9435611963272095,1.6238782405853271,4.01654052734375,0.29333072900772095,0.189971923828125,-0.03375577926635742,1.7351428270339966
188,19178,19176,-0.015317675657570362,-0.21176496148109436,1.1055477857589722,1.1623821258544922,11.670597076416016,-1.3116178512573242,1.6248722076416016,4.01628303527832,0.29400476813316345,0.044173914939165115,-0.02511434443295002,1.712985634803772
189,19188,19186,0.0818329006433487,-0.18004897236824036,0.9649602770805359,1.4756168127059937,7.894504547119141,-1.9646824598312378,1.6235847473144531,4.016843318939209,0.2971738278865814,0.1575075089931488,-0.0655011534690857,1.7033977508544922
190,19198,19196,-0.02343972772359848,0.010309607721865177,1.073312520980835,3.1485137939453125,2.6857516765594482,-2.1242873668670654,1.6236902475357056,4.01677942276001,0.29811397194862366,0.11090893298387527,-0.02786802127957344,1.6964882612228394
191,19208,19206,-0.04832110181450844,0.16863787174224854,1.1653352975845337,4.709920406341553,-0.8095806837081909,-2.093482732772827,1.625609040260315,4.017407417297363,0.2990233302116394,-0.10359020531177521,0.030125325545668602,1.661961317062378
192,19218,19216,-0.098277248442173,-0.03935934230685234,1.015811562538147,5.903965473175049,-5.3599982261657715,-2.4487500190734863,1.6278369426727295,4.018395900726318,0.30153629183769226,-0.219728022813797,0.053949568420648575,1.6515817642211914
193,19228,19226,-0.15177926421165466,-0.16925272345542908,0.9950007796287537,5.673184394836426,-0.8679608702659607,-1.8844938278198242,1.6264851093292236,4.0186567306518555,0.3029876947402954,-0.03266159072518349,0.08627587556838989,1.6323902606964111
194,19238,19236,-0.061139050871133804,-0.06766600906848907,1.045038104057312,3.8106443881988525,0.4175237715244293,-1.95598304271698,1.6258001327514648,4.019010543823242,0.3043273389339447,0.029590819031000137,0.1740105003118515,1.6136614084243774
195,19248,19246,0.04033635929226875,-0.10805225372314453,1.0012485980987549,2.647583246231079,1.382262945175171,-1.5272678136825562,1.6267805099487305,4.020102024078369,0.30553728342056274,0.005968884564936161,0.16125671565532684,1.6126384735107422
196,19258,19256,0.1281663179397583,-0.12962287664413452,0.9686350226402283,2.5644724369049072,2.2763283252716064,-2.065932035446167,1.6280697584152222,4.020860195159912,0.3068317472934723,-0.1120767667889595,0.21047638356685638,1.5924612283706665
197,19268,19266,0.17292457818984985,-0.005871665198355913,1.038752794265747,-1.002458930015564,0.5608311295509338,-1.787127137184143,1.6306805610656738,4.021461009979248,0.3080921471118927,-0.23905302584171295,0.22745750844478607,1.579490065574646
198,19278,19276,0.11998386681079865,-0.03974128141999245,1.0235093832015991,-0.32194438576698303,1.2656629085540771,-1.7443058490753174,1.630760908126831,4.022116184234619,0.3114855885505676,-0.1606493592262268,0.1467267870903015,1.5642470121383667
199,19288,19286,-0.023887529969215393,-0.14541248977184296,0.8748142123222351,0.6042032837867737,2.7151989936828613,-1.6227505207061768,1.6316767930984497,4.022275447845459,0.3129875957965851,-0.11551497876644135,0.11286409199237823,1.551437497138977
200,19298,19296,-0.019108302891254425,-0.18210521340370178,0.9267110824584961,2.347965955734253,4.369351387023926,-2.581163167953491,1.6326814889907837,4.022207260131836,0.31433162093162537,-0.16666412353515625,0.16091473400592804,1.5305713415145874
201,19308,19306,0.01605105772614479,0.31211256980895996,0.9438152313232422,1.9173318147659302,6.248492240905762,-2.585082530975342,1.6332076787948608,4.022181987762451,0.31562331318855286,-0.19371385872364044,0.20028246939182281,1.503266453742981
202,19318,19316,-0.04501524940133095,0.07951781898736954,0.9227069020271301,2.543674945831299,7.865729331970215,-1.9065804481506348,1.6337697505950928,4.02203893661499,0.31844329833984375,-0.24070954322814941,0.2512102723121643,1.4773613214492798
203,19328,19326,-0.17658929526805878,0.1582985520362854,1.0078493356704712,2.3742728233337402,6.244867324829102,-2.2160966396331787,1.6338773965835571,4.021363735198975,0.31971973180770874,-0.293809711933136,0.30424943566322327,1.445332407951355
204,19338,19336,-0.13565050065517426,0.01368698664009571,0.9500929713249207,1.4039185047149658,6.003668785095215,-2.1311285495758057,1.6347988843917847,4.02103328704834,0.32098478078842163,-0.31367117166519165,0.3632567524909973,1.4243719577789307
205,19348,19346,-0.18414130806922913,0.12520836293697357,1.0373886823654175,0.158742755651474,6.792763710021973,-2.4297783374786377,1.6350382566452026,4.02094030380249,0.32185429334640503,-0.31369835138320923,0.39280667901039124,1.4012714624404907
206,19358,19356,-0.08210239559412003,0.14466407895088196,0.933242678642273,0.0050732893869280815,4.934128284454346,-2.6968860626220703,1.6354165077209473,4.020909786224365,0.3230137228965759,-0.34138035774230957,0.4045351445674896,1.3773664236068726
207,19368,19366,-0.0021862967405468225,-0.13582779467105865,0.7386674880981445,-2.1698813438415527,4.554636001586914,-3.4785537719726562,1.635963797569275,4.02095365524292,0.3240913152694702,-0.39446645975112915,0.40743139386177063,1.3632766008377075
208,19378,19376,0.21670788526535034,-0.08054403215646744,0.7899112701416016,-5.1089324951171875,4.671926021575928,-3.3682451248168945,1.6370477676391602,4.021849632263184,0.324291855096817,-0.4332002103328705,0.3553301990032196,1.3337239027023315
209,19388,19386,-0.027509991079568863,0.032914791256189346,0.8623586893081665,-4.2590484619140625,3.1199522018432617,-2.4601147174835205,1.637246012687683,4.02332067489624,0.3249438405036926,-0.4782863259315491,0.22032295167446136,1.3133059740066528
210,19398,19396,-0.013880706392228603,0.669108510017395,0.9507457613945007,-2.8660049438476562,4.96112585067749,-2.6813814640045166,1.6387518644332886,4.0235137939453125,0.32550248503685,-0.5144811272621155,0.15316583216190338,1.2868053913116455
211,19408,19406,-0.046305738389492035,0.8556451797485352,0.9711863398551941,-1.0644891262054443,4.730586051940918,-3.815359354019165,1.638810396194458,4.024911403656006,0.32599398493766785,-0.5609410405158997,0.09856864809989929,1.2729766368865967
212,19418,19416,0.13545066118240356,0.2540978193283081,0.9638128876686096,3.0371997356414795,2.3898961544036865,-2.596651315689087,1.6403393745422363,4.0250067710876465,0.32493019104003906,-0.7378724217414856,0.09859000891447067,1.236941933631897
213,19428,19426,0.038800135254859924,0.06655710935592651,0.9632923007011414,4.457552433013916,0.8010650873184204,-3.186114549636841,1.6419950723648071,4.024899482727051,0.3251416087150574,-0.8696902394294739,0.17377249896526337,1.201898217201233
214,19438,19436,0.011869809590280056,0.0082025658339262,0.8954128623008728,2.824246883392334,0.5239565372467041,-2.596743583679199,1.6421607732772827,4.0246710777282715,0.3254317045211792,-0.819364607334137,0.2466990053653717,1.1727427244186401
215,19448,19446,-0.19002464413642883,0.33599185943603516,0.9944345355033875,2.2968192100524902,-2.58404803276062,-2.807697296142578,1.642930507659912,4.025337219238281,0.32509103417396545,-0.7921884655952454,0.23655465245246887,1.145727276802063
216,19458,19456,-0.24453076720237732,0.6458620429039001,1.0428887605667114,2.552520513534546,-1.0703999996185303,-2.9797844886779785,1.6431235074996948,4.025227069854736,0.32522279024124146,-0.7503184080123901,0.26572906970977783,1.1185110807418823
217,19468,19466,-0.22944636642932892,0.19606265425682068,0.8451672196388245,1.2915329933166504,-3.015345573425293,-2.3004493713378906,1.6431947946548462,4.0253119468688965,0.3254384398460388,-0.6588791608810425,0.2878040671348572,1.1027593612670898
218,19478,19476,-0.0010271251667290926,-0.02688564360141754,0.8768367767333984,-0.27170413732528687,-1.710317850112915,-3.4008259773254395,1.6475495100021362,4.026096820831299,0.32624152302742004,-0.9176352024078369,0.2880372405052185,1.0631260871887207
219,19488,19486,0.11113773286342621,-0.225986048579216,0.8173170685768127,0.18547271192073822,-1.393473744392395,-2.946107864379883,1.647718071937561,4.025286674499512,0.3263026177883148,-0.8382874727249146,0.37513312697410583,1.0385347604751587
220,19498,19496,0.0439620316028595,-0.04465915262699127,0.8185463547706604,-1.1148991584777832,-1.4937597513198853,-3.0129175186157227,1.6484440565109253,4.025087833404541,0.32616642117500305,-0.7930430173873901,0.39717286825180054,1.0125659704208374
221,19508,19506,0.04690573364496231,0.0532817468047142,0.9345675706863403,-1.7576957941055298,-0.902874231338501,-2.7825605869293213,1.648686170578003,4.025610446929932,0.3238508701324463,-0.7653772234916687,0.37908506393432617,0.9939510822296143
222,19518,19516,-0.05371081084012985,0.029729465022683144,0.9258130788803101,-4.375198841094971,-0.8653059601783752,-2.9623169898986816,1.6487667560577393,4.025834083557129,0.32339441776275635,-0.6736879944801331,0.3674999177455902,0.9777707457542419
223,19528,19526,-0.029545385390520096,0.07853338867425919,0.9121694564819336,-5.520073413848877,2.3347408771514893,-3.009777069091797,1.6503053903579712,4.026175022125244,0.3228110373020172,-0.7443927526473999,0.2900824546813965,0.9430393576622009
224,19538,19536,-0.16826967895030975,0.3417055904865265,1.0573360919952393,-4.884342193603516,-3.9608633518218994,-2.290914297103882,1.6511008739471436,4.02736759185791,0.32217445969581604,-0.7912747263908386,0.1967916488647461,0.9255732893943787
225,19548,19546,-0.27256473898887634,0.38263028860092163,1.1365809440612793,-2.5501396656036377,0.6836411952972412,-1.3629286289215088,1.6511327028274536,4.028028964996338,0.31881824135780334,-0.6418018341064453,0.11061637103557587,0.9070702195167542
226,19558,19556,-0.0920158326625824,0.2979922294616699,1.1420881748199463,1.4993222951889038,2.227994680404663,-1.7865917682647705,1.6529372930526733,4.028961658477783,0.31809329986572266,-0.7875367999076843,0.06920891255140305,0.8909215927124023
227,19568,19566,0.14516118168830872,0.12972593307495117,1.1326370239257812,3.824855327606201,5.374067306518555,-0.6661953926086426,1.6535276174545288,4.029646873474121,0.3176698386669159,-0.7518443465232849,0.1028183102607727,0.8961672782897949
228,19578,19576,0.17614805698394775,0.1864149272441864,1.078904390335083,8.607176780700684,-6.975399494171143,0.016813695430755615,1.6536645889282227,4.0295796394348145,0.3153805732727051,-0.6848137974739075,0.1930341273546219,0.9021975994110107
229,19588,19586,-0.09442821145057678,0.09077513962984085,1.076553463935852,9.428945541381836,-9.504351615905762,-0.8150385618209839,1.6539692878723145,4.030854225158691,0.315120130777359,-0.42003512382507324,0.26427775621414185,0.926525890827179
230,19598,19596,-0.048003993928432465,-0.026578176766633987,1.0251713991165161,6.484461307525635,-6.691564559936523,-0.4018387198448181,1.6578601598739624,4.030354976654053,0.31464576721191406,-0.6640498638153076,0.4046318233013153,0.9126627445220947
231,19608,19606,0.029101809486746788,0.11553643643856049,1.0646597146987915,2.2915353775024414,-3.3978660106658936,0.041149694472551346,1.6581653356552124,4.029838562011719,0.3128274381160736,-0.5631604194641113,0.47240445017814636,0.9026016592979431
232,19618,19616,-0.07859794795513153,0.03906039521098137,1.0704452991485596,-2.9764931201934814,-0.9494132995605469,-0.4095197916030884,1.659664273262024,4.030585289001465,0.31242045760154724,-0.564714252948761,0.3943515717983246,0.8935274481773376
233,19628,19626,0.0533083938062191,0.07847600430250168,1.1106232404708862,-5.333849906921387,0.8950713872909546,-0.13892462849617004,1.661220669746399,4.030538558959961,0.3121556043624878,-0.5482199192047119,0.31341955065727234,0.8728787302970886
234,19638,19636,0.07105725258588791,0.0118470573797822,1.153032898902893,-7.842752933502197,3.0050830841064453,-0.5896092057228088,1.6623116731643677,4.031140327453613,0.3119102418422699,-0.5902693867683411,0.20650477707386017,0.8643463850021362
235,19648,19646,0.07320205867290497,0.27227962017059326,1.2463756799697876,-2.681565523147583,-4.230874538421631,-0.19722634553909302,1.662598967552185,4.031423091888428,0.3104937672615051,-0.5183241367340088,0.090374656021595,0.8543458580970764
236,19658,19656,-0.1148272156715393,0.2613470256328583,1.1066125631332397,-0.4261808693408966,-7.157207012176514,-1.4928457736968994,1.664158821105957,4.032005310058594,0.31046485900878906,-0.5363509058952332,0.08357363194227219,0.8602180480957031
237,19668,19666,-0.19103069603443146,0.21724706888198853,1.2527598142623901,5.986041069030762,-7.258181095123291,0.7831250429153442,1.6660575866699219,4.031953811645508,0.3105933368206024,-0.5496037602424622,0.10821612179279327,0.8609580993652344
238,19678,19676,-0.020811745896935463,-0.04180186241865158,1.0380014181137085,10.444833755493164,-8.528042793273926,1.8933241367340088,1.666154384613037,4.031856060028076,0.3112056851387024,-0.3882068395614624,0.23618768155574799,0.8801971077919006
239,19688,19686,-0.06043882295489311,-0.029491901397705078,1.0071061849594116,8.048604965209961,-5.821741580963135,1.0780333280563354,1.6669628620147705,4.030477523803711,0.31181228160858154,-0.2472180426120758,0.395493745803833,0.8791132569313049
240,19698,19696,-0.13143125176429749,0.13955701887607574,1.0969520807266235,5.2923054695129395,-7.339004993438721,0.8860028982162476,1.6671791076660156,4.030578136444092,0.3124925196170807,-0.03499951958656311,0.5188371539115906,0.9029918313026428
241,19708,19706,-0.26253774762153625,0.20285585522651672,1.1034741401672363,-1.0557221174240112,-2.347125291824341,0.5602365136146545,1.6686285734176636,4.032038688659668,0.3134206235408783,-0.09722783416509628,0.4863335192203522,0.9244594573974609
242,19718,19716,-0.04929639399051666,0.16801536083221436,1.1241190433502197,-5.276094913482666,3.6285457611083984,0.7130208611488342,1.6692031621932983,4.031977653503418,0.314215749502182,-0.1119905635714531,0.48890966176986694,0.935828685760498
243,19728,19726,-0.11849705129861832,0.3444399833679199,1.1071972846984863,-7.0313897132873535,1.5650203227996826,0.9502403140068054,1.6716910600662231,4.033322811126709,0.3150133788585663,-0.3110726773738861,0.28568437695503235,0.9442391395568848
244,19738,19736,-0.08221783488988876,0.16539837419986725,1.0233712196350098,-6.366036415100098,1.882900357246399,1.5947742462158203,1.6725151538848877,4.034407615661621,0.3160732090473175,-0.30289310216903687,0.2168394774198532,0.9725516438484192
245,19748,19746,-0.030097460374236107,-0.03197865933179855,0.9176226258277893,-5.557123184204102,-0.5739457011222839,0.9374168515205383,1.673722505569458,4.0340471267700195,0.3126436173915863,-0.33704888820648193,0.1962166279554367,0.9940206408500671
246,19758,19756,0.09274798631668091,0.25303342938423157,0.9816784858703613,-2.241704225540161,-1.8184820413589478,0.3440484404563904,1.6745225191116333,4.033924579620361,0.31347256898880005,-0.27004486322402954,0.1784050166606903,0.9928448796272278
247,19768,19766,0.036048367619514465,0.3471747040748596,1.0410125255584717,-0.9791985750198364,-3.137341260910034,-0.22678053379058838,1.6748086214065552,4.032411098480225,0.3143225312232971,-0.1267322450876236,0.29151302576065063,1.0025438070297241
248,19778,19776,0.09474584460258484,-0.009453820995986462,1.0311715602874756,1.9497500658035278,-5.807333469390869,0.2900499105453491,1.6755492687225342,4.032360553741455,0.31568002700805664,-0.07796203345060349,0.2529877722263336,0.9971976280212402
249,19788,19786,0.010856125503778458,0.05039289966225624,0.9800342321395874,1.8267313241958618,-4.277859210968018,1.173167109489441,1.675189733505249,4.03325891494751,0.31653082370758057,0.08417794108390808,0.18472552299499512,1.0140148401260376
250,19798,19796,-0.05715388059616089,-0.05032357573509216,0.9158652424812317,1.0498569011688232,-1.399279236793518,0.6106167435646057,1.6750129461288452,4.033049583435059,0.31733566522598267,0.14058427512645721,0.20611357688903809,1.024580955505371
251,19808,19806,-0.009419449605047703,-0.04513330012559891,1.0342965126037598,-1.1570883989334106,3.9269654750823975,0.2934974133968353,1.677651286125183,4.033572196960449,0.3159014880657196,0.04165565222501755,0.22854943573474884,1.0424436330795288
252,19818,19816,-0.1950341910123825,0.07662210613489151,0.9674838185310364,-3.3227975368499756,8.55180549621582,0.62257981300354,1.6787182092666626,4.032763481140137,0.3164563775062561,-0.05086757615208626,0.2948002815246582,1.0454610586166382
253,19828,19826,-0.14591951668262482,0.5192113518714905,1.07914137840271,-5.730244159698486,12.475028991699219,0.6294544339179993,1.6793965101242065,4.033864974975586,0.3170805275440216,-0.13750633597373962,0.1917395293712616,1.0720518827438354
254,19838,19836,-0.01923900470137596,0.1957976520061493,0.9136068820953369,-7.2509894371032715,10.752820014953613,0.1836274117231369,1.681868314743042,4.032535552978516,0.3176470696926117,-0.3987734913825989,0.21921312808990479,1.062422275543213
255,19848,19846,0.01949245110154152,-0.0422409288585186,0.9218801259994507,-8.15700912475586,6.61769437789917,-0.20821744203567505,1.6827244758605957,4.032442092895508,0.31503769755363464,-0.4455075263977051,0.1396593600511551,1.0643702745437622
256,19858,19856,0.11057684570550919,0.009596044197678566,0.8463573455810547,-8.191293716430664,2.663599729537964,0.12251244485378265,1.6837044954299927,4.0317063331604,0.31552278995513916,-0.4426020383834839,0.07807517796754837,1.0559624433517456
257,19868,19866,0.030205348506569862,-0.3032901883125305,0.7513003945350647,-7.004261016845703,-0.7959475517272949,-0.212642639875412,1.6837927103042603,4.030460357666016,0.31581613421440125,-0.4220426380634308,0.1034059002995491,1.0552518367767334
258,19878,19876,0.05729968100786209,-0.13183940947055817,0.9357393980026245,-6.703208923339844,-3.9834420680999756,-0.6906245946884155,1.6820933818817139,4.030660629272461,0.31293612718582153,-0.20045098662376404,-0.01753132790327072,1.0568612813949585
259,19888,19886,-0.1114148274064064,0.24513140320777893,0.9280804991722107,-5.638152599334717,-4.084099769592285,-0.19548624753952026,1.683789610862732,4.029984474182129,0.3127603828907013,-0.1944892555475235,0.04181840643286705,1.0744675397872925
260,19898,19896,-0.046170178800821304,0.09333978593349457,0.950416088104248,-4.651196479797363,-0.42011070251464844,-0.058231860399246216,1.6825807094573975,4.031180381774902,0.3127874732017517,-0.0449034608900547,-0.09197322279214859,1.116489291191101
261,19908,19906,0.013016917742788792,0.14903481304645538,1.033919095993042,-3.0920848846435547,0.7291009426116943,-0.5145369172096252,1.684090256690979,4.032831192016602,0.30848997831344604,-0.11186189204454422,-0.24305559694766998,1.1250410079956055
262,19918,19916,-0.09605947136878967,0.06859796494245529,0.8870123624801636,-2.150195598602295,2.884138822555542,-0.539821207523346,1.6844652891159058,4.031698226928711,0.30806466937065125,-0.12473347783088684,-0.19874081015586853,1.1148889064788818
263,19928,19926,0.1721639186143875,0.30651572346687317,0.9515056014060974,-2.625225782394409,5.492819786071777,-0.7039175629615784,1.6859288215637207,4.032022476196289,0.3075014054775238,-0.26219528913497925,-0.276906281709671,1.1104977130889893
264,19938,19936,0.17687344551086426,0.15241879224777222,0.939902663230896,-2.734973669052124,7.777124404907227,-0.6207284331321716,1.6869182586669922,4.0326738357543945,0.30571162700653076,-0.31432440876960754,-0.3333202302455902,1.1134178638458252
265,19948,19946,0.08057671040296555,-0.025031855329871178,0.8524907827377319,-1.8827323913574219,5.876119136810303,-0.45852530002593994,1.6873043775558472,4.032115936279297,0.30499812960624695,-0.26233354210853577,-0.28107330203056335,1.1180692911148071
266,19958,19956,0.05281359329819679,-0.28039830923080444,0.8973827958106995,-1.0791754722595215,4.548604965209961,-0.024371594190597534,1.687825322151184,4.0309343338012695,0.3041519224643707,-0.2468583583831787,-0.21414144337177277,1.1134750843048096
267,19968,19966,0.03235665336251259,-0.16289851069450378,0.9765557050704956,-0.9631162285804749,5.249377727508545,0.4793434143066406,1.689997911453247,4.029797554016113,0.30306699872016907,-0.42164647579193115,-0.15608662366867065,1.1141695976257324
268,19978,19976,-0.053810425102710724,0.07911638170480728,1.007407307624817,-3.1064906120300293,5.780653476715088,0.3483344316482544,1.689784049987793,4.030289649963379,0.3003573417663574,-0.32465851306915283,-0.20566780865192413,1.1328531503677368
269,19988,19986,-0.21319502592086792,0.18518708646297455,1.0478562116622925,-4.347407817840576,5.0728373527526855,0.6335392594337463,1.6905056238174438,4.029797554016113,0.29926207661628723,-0.3567620813846588,-0.2290814369916916,1.131758451461792
270,19998,19996,-0.0923209935426712,0.12141614407300949,1.0363754034042358,-5.256977081298828,5.130746841430664,0.9360113739967346,1.6921708583831787,4.028777599334717,0.29807400703430176,-0.48296114802360535,-0.21700401604175568,1.143504023551941
271,20008,20006,-0.14540517330169678,0.16470849514007568,1.0689502954483032,-4.223423004150391,3.901674747467041,1.4476231336593628,1.6946656703948975,4.03025484085083,0.29520002007484436,-0.5897485613822937,-0.33296605944633484,1.194836139678955
272,20018,20016,-0.06177227571606636,0.09278637915849686,1.0545299053192139,-4.096746444702148,2.060955047607422,1.0055286884307861,1.6961623430252075,4.031132221221924,0.29405447840690613,-0.6484512090682983,-0.44566619396209717,1.224130392074585
273,20028,20026,-0.14365731179714203,0.04873399809002876,1.0717499256134033,-1.7506662607192993,-2.008525848388672,1.239272117614746,1.694776177406311,4.0314531326293945,0.29325002431869507,-0.4491245746612549,-0.5229145884513855,1.2345787286758423
274,20038,20036,-0.051743775606155396,-0.16038648784160614,0.983482301235199,0.9897199273109436,-2.4592058658599854,1.6432430744171143,1.6968531608581543,4.0311784744262695,0.2917689085006714,-0.47661522030830383,-0.5606781244277954,1.2665406465530396
275,20048,20046,0.025931602343916893,-0.047613270580768585,0.9583119750022888,4.183352947235107,-4.04833459854126,1.4939110279083252,1.6964826583862305,4.030417442321777,0.29082658886909485,-0.3378462791442871,-0.42508137226104736,1.2849278450012207
276,20058,20056,0.00439588213339448,-0.16744183003902435,1.056441068649292,4.336062908172607,-2.877312660217285,1.7596403360366821,1.6970188617706299,4.030791759490967,0.28989019989967346,-0.25229161977767944,-0.39110463857650757,1.3138060569763184
277,20068,20066,-0.015448092482984066,-0.14707185328006744,1.0594606399536133,3.869326114654541,-5.668105602264404,3.9376652240753174,1.6961843967437744,4.0303263664245605,0.28901898860931396,-0.10923517495393753,-0.33845633268356323,1.3323731422424316
278,20078,20076,0.06230810657143593,-0.18799050152301788,1.0203276872634888,0.5830670595169067,2.1172749996185303,2.773615598678589,1.698330044746399,4.030905246734619,0.2894829511642456,-0.2666918635368347,-0.3154333531856537,1.4112882614135742
279,20088,20086,0.0655556246638298,-0.19011878967285156,1.0612913370132446,-3.5168728828430176,6.502615928649902,1.5502099990844727,1.7004400491714478,4.030345916748047,0.28853970766067505,-0.3595222532749176,-0.27241215109825134,1.4496222734451294
280,20098,20096,0.022551478818058968,-0.05550941824913025,1.1056501865386963,-5.933856964111328,6.247740745544434,2.072699546813965,1.7002183198928833,4.031222820281982,0.2884807586669922,-0.5300158858299255,-0.3708270192146301,1.4762223958969116
281,20108,20106,0.05171291530132294,0.018579209223389626,1.1262247562408447,-4.30051851272583,4.131266117095947,2.171875,1.700724720954895,4.031623363494873,0.29093438386917114,-0.5301826596260071,-0.4993136525154114,1.4945400953292847
282,20118,20116,0.033972520381212234,0.07752122730016708,1.2060022354125977,-2.541322946548462,0.16261805593967438,2.5291123390197754,1.7018499374389648,4.031258583068848,0.29041463136672974,-0.5408378839492798,-0.4715813100337982,1.520322322845459
283,20128,20126,-0.13515399396419525,0.19711893796920776,1.122802495956421,2.186527729034424,-5.677753448486328,2.257129192352295,1.7037159204483032,4.032925605773926,0.29018092155456543,-0.517398476600647,-0.5222131013870239,1.5740097761154175
284,20138,20136,-0.08074258267879486,0.019429046660661697,1.1051136255264282,5.717710494995117,-9.091955184936523,2.6724889278411865,1.7062807083129883,4.033254623413086,0.29167571663856506,-0.557122528553009,-0.4991717040538788,1.621260404586792
285,20148,20146,-0.002268219366669655,-0.127067431807518,1.0089644193649292,6.025679588317871,-6.904417991638184,1.9208769798278809,1.706725835800171,4.033951282501221,0.29195696115493774,-0.31199052929878235,-0.43174925446510315,1.6664320230484009
286,20158,20156,0.006470821797847748,-0.003681792179122567,0.9702714681625366,4.246309757232666,-4.33910608291626,1.2605756521224976,1.709718942642212,4.033846378326416,0.2920612692832947,-0.35953497886657715,-0.33997830748558044,1.7107443809509277
287,20168,20166,-0.04835822060704231,-0.06531263142824173,1.0381718873977661,1.73380708694458,-0.21147117018699646,0.9238713383674622,1.7120935916900635,4.0334696769714355,0.29212984442710876,-0.3712244927883148,-0.280582994222641,1.7375770807266235
288,20178,20176,-0.00455637788400054,-0.17644135653972626,0.9231922626495361,-0.8639906048774719,2.607011318206787,0.7737723588943481,1.7130115032196045,4.03315544128418,0.2909364104270935,-0.2745438814163208,-0.2486063539981842,1.7433421611785889
289,20188,20186,-0.02855348400771618,-0.2829362750053406,0.905855119228363,-1.8633726835250854,2.489793062210083,1.4311163425445557,1.7133171558380127,4.033408164978027,0.2911519408226013,-0.15334418416023254,-0.266347199678421,1.7552324533462524
290,20198,20196,-0.004099125508219004,0.014239348471164703,1.1112128496170044,-3.1246747970581055,1.442151427268982,0.9490178227424622,1.7140564918518066,4.034358978271484,0.2912944555282593,-0.07428289204835892,-0.31327545642852783,1.7925728559494019
291,20208,20206,0.09026236832141876,-0.22070592641830444,1.0471937656402588,-4.387578010559082,2.8109569549560547,0.34890633821487427,1.7159199714660645,4.034581184387207,0.2907858192920685,-0.25157299637794495,-0.3727530241012573,1.8124947547912598
292,20218,20216,0.0008972923387773335,-0.20769670605659485,0.8746388554573059,-1.1175329685211182,1.186037302017212,0.8141199946403503,1.7181750535964966,4.033156394958496,0.29073190689086914,-0.3807688355445862,-0.25279033184051514,1.8525736331939697
293,20228,20226,0.023500176146626472,0.0004275249666534364,1.0591034889221191,-0.051134854555130005,1.4109899997711182,0.21769964694976807,1.7211377620697021,4.033747673034668,0.2907412350177765,-0.4133431613445282,-0.27946755290031433,1.862987995147705
294,20238,20236,-0.013250683434307575,-0.03716561198234558,1.0554394721984863,1.9311825037002563,-0.47267946600914,0.5008993744850159,1.7232264280319214,4.0348615646362305,0.29385054111480713,-0.45418593287467957,-0.37068846821784973,1.883850336074829
295,20248,20246,0.08738052099943161,-0.03131973743438721,1.1304816007614136,0.5728328227996826,-4.924849987030029,0.11306288838386536,1.7233160734176636,4.0347747802734375,0.2941952645778656,-0.3168088495731354,-0.36261340975761414,1.8789994716644287
296,20258,20256,0.03500445559620857,-0.05423356592655182,1.1491968631744385,-0.6122545003890991,-6.406566619873047,0.18637925386428833,1.7254775762557983,4.034038543701172,0.2944444417953491,-0.3282046616077423,-0.20618869364261627,1.9309558868408203
297,20268,20266,0.07575110346078873,-0.06108330562710762,1.1684802770614624,3.026384115219116,-8.290115356445312,-0.29375937581062317,1.7264889478683472,4.034592628479004,0.2967815697193146,-0.369250625371933,-0.21775473654270172,1.9348182678222656
298,20278,20276,-0.02925153076648712,-0.05375860631465912,1.0350635051727295,1.9214340448379517,-7.499799728393555,-0.5748763084411621,1.7269337177276611,4.03636360168457,0.29743775725364685,-0.3023073971271515,-0.2821716368198395,1.9836368560791016
299,20288,20286,-0.03146050125360489,-0.07354959100484848,0.9815859198570251,0.29928475618362427,-6.977396011352539,-1.4071292877197266,1.7294615507125854,4.036240577697754,0.2979928255081177,-0.368912011384964,-0.2489335685968399,1.9870229959487915
300,20298,20296,0.001340690883807838,-0.20333506166934967,0.8621100187301636,-2.3452072143554688,-4.954722881317139,-2.0856494903564453,1.7301180362701416,4.037596225738525,0.2987779378890991,-0.2431916445493698,-0.23802952468395233,2.017958879470825
301,20308,20306,0.13672856986522675,-0.03305301070213318,1.0355314016342163,-5.462767124176025,-2.5469207763671875,-2.8583881855010986,1.7302885055541992,4.038119792938232,0.3013658821582794,-0.02785596437752247,-0.28303641080856323,2.004842519760132
302,20318,20316,0.14369739592075348,0.029208719730377197,1.0002717971801758,-2.7289838790893555,-3.2547290325164795,-2.2358486652374268,1.7312544584274292,4.038097858428955,0.30213746428489685,0.024095535278320312,-0.3445255160331726,1.9805240631103516
303,20328,20326,-0.06814558804035187,0.07339610904455185,1.0207254886627197,0.013496733270585537,-0.9994618892669678,-1.5218960046768188,1.7322797775268555,4.038027763366699,0.30291709303855896,0.10420672595500946,-0.3610650599002838,1.9755042791366577
304,20338,20336,-0.23417511582374573,0.17072825133800507,1.0456972122192383,2.406999111175537,1.7102152109146118,-2.3818187713623047,1.7333391904830933,4.038155555725098,0.3069370985031128,0.20180533826351166,-0.35058340430259705,1.9476101398468018
305,20348,20346,-0.33208149671554565,0.20309828221797943,0.9697397947311401,0.6300644278526306,6.016383171081543,-4.28303337097168,1.7348384857177734,4.037408828735352,0.3080118000507355,0.18332141637802124,-0.24881300330162048,1.929169774055481
306,20358,20356,-0.19897261261940002,0.3307240605354309,1.0827170610427856,5.521585464477539,5.063684463500977,-1.3131392002105713,1.7342466115951538,4.03668737411499,0.30916497111320496,0.3649657368659973,-0.16829469799995422,1.8761662244796753
307,20368,20366,-0.0075622727163136005,0.31392085552215576,1.089064121246338,5.897987365722656,3.3182485103607178,-1.144384503364563,1.7368260622024536,4.037474155426025,0.3144722282886505,0.09470653533935547,-0.2140430212020874,1.8768562078475952
308,20378,20376,-0.05012233182787895,0.34025248885154724,1.0360474586486816,4.312929153442383,2.9776852130889893,-1.5685099363327026,1.7379727363586426,4.0369873046875,0.31584784388542175,0.04619981348514557,-0.06957504153251648,1.874626874923706
309,20388,20386,0.038309235125780106,-0.03718411922454834,0.8779116272926331,1.2981276512145996,1.6600613594055176,-2.603053569793701,1.7396621704101562,4.036945819854736,0.31722888350486755,-0.002644951455295086,-0.04518707096576691,1.8506978750228882
310,20398,20396,0.15307274460792542,0.06570667773485184,0.9024832248687744,-0.7602638006210327,-0.4728131890296936,-1.588922142982483,1.7417789697647095,4.037676811218262,0.31850919127464294,-0.15774968266487122,-0.12293446063995361,1.8353267908096313
311,20408,20406,0.12563402950763702,-0.22539769113063812,0.8754366636276245,-4.44885778427124,-0.1518777310848236,-2.9485480785369873,1.7431373596191406,4.0382609367370605,0.3199654221534729,-0.1434139460325241,-0.22953040897846222,1.8109498023986816
312,20418,20416,0.14968091249465942,-0.10815674066543579,0.9986775517463684,-2.33203125,-9.853530883789062,-2.2336885929107666,1.744382619857788,4.037986755371094,0.32121720910072327,-0.14042457938194275,-0.20492732524871826,1.7856618165969849
313,20428,20426,-0.064820297062397,-0.05394788831472397,1.0169228315353394,-3.3504040241241455,-6.465200424194336,-2.1501846313476562,1.7442835569381714,4.039041996002197,0.32251039147377014,0.0698627382516861,-0.31215670704841614,1.7792342901229858
314,20438,20436,-0.09455575793981552,0.4754068851470947,1.0325928926467896,-1.2904139757156372,-1.7266230583190918,-1.9834648370742798,1.7466315031051636,4.0382466316223145,0.3226626515388489,0.04188895225524902,-0.27362141013145447,1.7744885683059692
315,20448,20446,-0.11980544030666351,0.7009003162384033,1.0432955026626587,1.8964736461639404,-1.285327434539795,-3.244001865386963,1.7466522455215454,4.040183067321777,0.32390403747558594,0.18117788434028625,-0.3070293664932251,1.796255111694336
316,20458,20456,0.06702423095703125,0.44326385855674744,0.9044432044029236,4.519224166870117,3.144801139831543,-3.132728099822998,1.7477704286575317,4.04022741317749,0.3251420855522156,0.2846018671989441,-0.26175394654273987,1.7707992792129517
317,20468,20466,0.007669753860682249,0.30588027834892273,0.8875628709793091,7.3993449211120605,3.590003252029419,-2.3545377254486084,1.7493374347686768,4.040441036224365,0.32854002714157104,0.30591562390327454,-0.22997258603572845,1.7465530633926392
318,20478,20476,-0.060681138187646866,0.017192091792821884,0.8863043785095215,5.444488525390625,12.376107215881348,-2.4642412662506104,1.7508000135421753,4.039938926696777,0.3296792507171631,0.28759896755218506,-0.17874792218208313,1.7135913372039795
319,20488,20486,-0.055063456296920776,-0.1274040937423706,0.8655545115470886,6.058413028717041,4.643664836883545,-1.98433256149292,1.7530879974365234,4.040329456329346,0.33063793182373047,0.10643462836742401,-0.07091227173805237,1.6966919898986816
320,20498,20496,0.060439929366111755,-0.006528099067509174,0.9161701202392578,2.9095520973205566,4.082266807556152,-1.9123756885528564,1.7536393404006958,4.041692733764648,0.3317531943321228,0.1679660975933075,-0.07338874787092209,1.6996058225631714
321,20508,20506,-0.0029013899620622396,0.11225080490112305,0.9128946661949158,2.1837470531463623,4.227526664733887,-2.7154760360717773,1.7538213729858398,4.041213512420654,0.33415472507476807,0.22245682775974274,0.0028935852460563183,1.7042865753173828
322,20518,20516,-0.2169504165649414,0.11687163263559341,0.8840808868408203,1.4763752222061157,3.254147529602051,-2.7962892055511475,1.7550389766693115,4.04219388961792,0.33505284786224365,0.2276947796344757,0.06381727010011673,1.7003555297851562
323,20528,20526,-0.1485837697982788,0.15871354937553406,0.9305658936500549,1.0193105936050415,4.7776994705200195,-2.225877046585083,1.7565042972564697,4.042778015136719,0.33574455976486206,0.08816756308078766,0.0661090612411499,1.7121001482009888
324,20538,20536,-0.027913706377148628,0.03559053689241409,0.8876463770866394,0.5217838287353516,5.860333442687988,-2.2343125343322754,1.7588698863983154,4.043422698974609,0.3351265490055084,-0.08090465515851974,0.06412633508443832,1.6824909448623657
325,20548,20546,0.0086440434679389,0.0008256612345576286,0.861051082611084,0.9544181823730469,4.833346366882324,-2.4819576740264893,1.759536862373352,4.0446248054504395,0.33573997020721436,-0.03937715291976929,0.10311079025268555,1.71060311794281
326,20558,20556,0.10036054253578186,-0.07522667944431305,0.8197450041770935,1.7553799152374268,3.1341617107391357,-2.596879243850708,1.7600791454315186,4.044832706451416,0.3361471891403198,-0.007823380641639233,0.0825444757938385,1.6929765939712524
327,20568,20566,0.028278090059757233,0.3291453421115875,0.9213770031929016,0.2669374644756317,0.23634882271289825,-2.031327724456787,1.7628202438354492,4.045348644256592,0.33719173073768616,-0.23402222990989685,0.10349682718515396,1.6803171634674072
328,20578,20576,0.0646885335445404,0.014048779383301735,0.9253541231155396,0.8783050775527954,-0.10017010569572449,-2.0562093257904053,1.7655342817306519,4.045644283294678,0.3372907042503357,-0.3570783734321594,0.09869363903999329,1.6605420112609863
329,20588,20586,0.06471511721611023,-0.24253994226455688,0.8382461667060852,1.7593104839324951,-2.1448886394500732,-2.2734413146972656,1.7645561695098877,4.046968460083008,0.33762815594673157,-0.2532466650009155,0.05864666402339935,1.682822823524475
330,20598,20596,0.1253487765789032,-0.15402503311634064,0.9178060293197632,3.175968885421753,-6.115313529968262,-2.3296732902526855,1.7656382322311401,4.046496868133545,0.3368384838104248,-0.15165427327156067,0.13174578547477722,1.6585614681243896
331,20608,20606,-0.02977060154080391,-0.04256647825241089,1.0574246644973755,1.5226494073867798,-4.481131076812744,-2.789353370666504,1.767162799835205,4.046765327453613,0.33665797114372253,-0.131769597530365,0.18249401450157166,1.6552432775497437
332,20618,20616,-0.06158330664038658,-0.08125033974647522,1.0074090957641602,1.5166714191436768,-1.24940824508667,-2.683650016784668,1.7682160139083862,4.046372413635254,0.3364715576171875,-0.09555541723966599,0.27473947405815125,1.6361379623413086
333,20628,20626,0.094810351729393,-0.04745979979634285,0.9711688160896301,2.8158655166625977,-2.564000368118286,-2.1580984592437744,1.768931269645691,4.0462117195129395,0.3363268971443176,-0.0631125196814537,0.29837289452552795,1.6079879999160767
334,20638,20636,0.03329697996377945,0.3116040527820587,0.9288541674613953,0.765442967414856,-1.72596275806427,-1.3432797193527222,1.772315263748169,4.046801567077637,0.33447182178497314,-0.2844126224517822,0.26655372977256775,1.582738995552063
335,20648,20646,0.05082922801375389,0.314885675907135,0.9138474464416504,0.10741917043924332,0.09680445492267609,-1.1778086423873901,1.771743893623352,4.047491073608398,0.3342420756816864,-0.10997797548770905,0.2941153645515442,1.6035419702529907
336,20658,20656,-0.2941998839378357,0.5154497027397156,1.1063963174819946,-1.5753238201141357,-1.3889291286468506,-2.388829231262207,1.7739007472991943,4.047986030578613,0.33380889892578125,-0.10655263066291809,0.28766757249832153,1.617992639541626
337,20668,20666,-0.26745206117630005,0.31278231739997864,0.981419563293457,-3.438384532928467,2.879370927810669,-1.8252567052841187,1.7735645771026611,4.048949241638184,0.33258360624313354,0.020940430462360382,0.24957725405693054,1.6196411848068237
338,20678,20676,0.1343896985054016,0.17259563505649567,0.9341802597045898,-2.1292197704315186,4.751965522766113,-2.277681350708008,1.7777073383331299,4.048604965209961,0.331980437040329,-0.18739338219165802,0.2040528953075409,1.5647703409194946
339,20688,20686,0.12565934658050537,-0.2312963753938675,0.8420434594154358,-0.5530236959457397,1.5341421365737915,-1.7329061031341553,1.7789477109909058,4.048409938812256,0.3314555287361145,-0.2074994444847107,0.18807196617126465,1.533581256866455
340,20698,20696,0.15413019061088562,-0.25433602929115295,0.885689914226532,0.731285572052002,-2.2664060592651367,-1.557928442955017,1.7788372039794922,4.047462463378906,0.3333666920661926,-0.07777630537748337,0.28213509917259216,1.5228101015090942
341,20708,20706,-0.09542056173086166,0.14730414748191833,1.0943636894226074,0.4224649965763092,-3.5691728591918945,-1.6539816856384277,1.7799551486968994,4.047402858734131,0.33275577425956726,-0.04752424731850624,0.2965746819972992,1.5077459812164307
342,20718,20716,-0.32272952795028687,0.21044102311134338,1.0558538436889648,-2.993513822555542,-1.4615503549575806,-2.9378061294555664,1.7811657190322876,4.0491743087768555,0.33218204975128174,0.04481246694922447,0.20209430158138275,1.5341719388961792
343,20728,20726,-0.28247037529945374,0.2481701821088791,1.020952582359314,0.05529901012778282,-3.9499504566192627,-1.2768213748931885,1.7828763723373413,4.049472332000732,0.3316846787929535,0.08891036361455917,0.22802703082561493,1.5630759000778198
344,20738,20736,0.0017510445322841406,-0.023994382470846176,0.9915515184402466,-6.213728904724121,5.556403160095215,-2.369361639022827,1.785268783569336,4.05189323425293,0.32910528779029846,-0.03873166814446449,0.18333518505096436,1.6107877492904663
345,20748,20746,0.09148479253053665,-0.06652259081602097,1.031717300415039,-0.13305391371250153,4.9119873046875,-1.8790149688720703,1.7864166498184204,4.053569316864014,0.3285711407661438,-0.017297929152846336,0.11003448814153671,1.6549817323684692
346,20758,20756,0.2194773256778717,0.06776044517755508,1.001721978187561,0.3956166207790375,2.4174587726593018,-2.6304850578308105,1.7883875370025635,4.052616596221924,0.3278615176677704,-0.176526740193367,0.09758218377828598,1.5858532190322876
347,20768,20766,0.15264709293842316,-0.09745416790246964,0.9385761022567749,1.3947139978408813,-1.155346393585205,-2.2117860317230225,1.7883142232894897,4.053746223449707,0.3297742009162903,-0.09042025357484818,0.11886899173259735,1.6329554319381714
348,20778,20776,0.08414326608181,0.049511343240737915,0.9745272994041443,1.8275538682937622,-5.0862717628479,-2.5304853916168213,1.790757179260254,4.053220272064209,0.3293446898460388,-0.1147644892334938,0.2184281200170517,1.6313420534133911
349,20788,20786,-0.08097664266824722,0.15256141126155853,1.0629085302352905,6.4078474044799805,-11.363277435302734,-3.550534725189209,1.7908445596694946,4.053936004638672,0.32894760370254517,0.00925309956073761,0.2522154450416565,1.635924220085144
350,20798,20796,-0.14645105600357056,-0.04739901423454285,0.9669367671012878,1.3534448146820068,-5.862050533294678,-3.3271982669830322,1.792128562927246,4.054378986358643,0.32827645540237427,0.08673972636461258,0.3826126754283905,1.6658473014831543
351,20808,20806,-0.08685559779405594,0.03971770778298378,0.9840748906135559,0.9206030964851379,-5.386836051940918,-2.690023183822632,1.791527509689331,4.053638935089111,0.3279237151145935,0.2879171371459961,0.3886466920375824,1.6084084510803223
352,20818,20816,-0.28027960658073425,0.23951181769371033,0.9823485612869263,-3.250080108642578,0.25309640169143677,-3.2525718212127686,1.7923308610916138,4.054497241973877,0.32753849029541016,0.36427924036979675,0.29022935032844543,1.5847985744476318
353,20828,20826,-0.20689453184604645,0.3584666848182678,1.098542332649231,-9.478463172912598,5.5723700523376465,-2.990772247314453,1.79244065284729,4.054724216461182,0.3271150290966034,0.1790408492088318,0.19285337626934052,1.5585516691207886
354,20838,20836,0.07377061247825623,0.09675353765487671,1.0206537246704102,-10.165387153625488,13.83409309387207,-3.240433931350708,1.7952324151992798,4.055424690246582,0.3248312771320343,0.15500476956367493,0.038043517619371414,1.4840803146362305
355,20848,20846,0.14978544414043427,-0.05068448930978775,1.0399447679519653,-8.109776496887207,9.889006614685059,-2.535409688949585,1.7996474504470825,4.057056903839111,0.3240310847759247,-0.32529401779174805,-0.11354337632656097,1.5112968683242798
356,20858,20856,0.07910454273223877,0.005397740751504898,1.0244160890579224,-1.955112099647522,4.174293518066406,-2.666029930114746,1.7998055219650269,4.056814670562744,0.3238345980644226,-0.3523852527141571,-0.1331113576889038,1.479552984237671
357,20868,20866,0.1471927911043167,0.02769361436367035,1.00558340549469,4.073929309844971,-3.4288768768310547,-2.372866153717041,1.8006588220596313,4.0564985275268555,0.32118549942970276,-0.3333784341812134,-0.05431433022022247,1.4996581077575684
358,20878,20876,-0.005449497606605291,0.08218763023614883,1.08054518699646,8.745734214782715,-9.4392671585083,-2.2008628845214844,1.8009765148162842,4.056064128875732,0.32082512974739075,-0.1913953721523285,0.03244264796376228,1.4699586629867554
359,20888,20886,0.09866722673177719,-0.17800605297088623,1.0474395751953125,11.058348655700684,-12.874414443969727,-2.114253282546997,1.8024722337722778,4.055450439453125,0.32040998339653015,-0.05244634672999382,0.17951424419879913,1.4572417736053467
360,20898,20896,0.24964480102062225,-0.2494734525680542,0.94339519739151,7.651515483856201,-12.814006805419922,-2.3157219886779785,1.8036874532699585,4.053020000457764,0.3202972412109375,0.037284333258867264,0.33248406648635864,1.3380424976348877
361,20908,20906,0.021908065304160118,-0.25834575295448303,0.8948075175285339,0.23966164886951447,-10.662735939025879,-1.3511110544204712,1.8045876026153564,4.053042411804199,0.3199964463710785,0.21195970475673676,0.33919215202331543,1.2941142320632935
362,20918,20916,-0.015570268966257572,-0.17295151948928833,0.9298528432846069,-4.604093074798584,-6.562187671661377,-1.3963335752487183,1.8061957359313965,4.053255081176758,0.31952375173568726,0.2889631688594818,0.33201470971107483,1.2786563634872437
363,20928,20926,-0.06428512930870056,-0.08332811295986176,1.0191701650619507,-12.497903823852539,2.8410799503326416,-1.810636281967163,1.8071794509887695,4.052469253540039,0.3193197548389435,0.4142361879348755,0.20974208414554596,1.2391701936721802
364,20938,20936,-0.20652559399604797,0.17564965784549713,1.0732989311218262,-15.48674201965332,6.9383649826049805,-2.1294047832489014,1.8073756694793701,4.053915500640869,0.31881076097488403,0.413560688495636,0.07302665710449219,1.2376446723937988
365,20948,20946,-0.11316940188407898,0.09086519479751587,1.0132324695587158,-12.67498779296875,10.915194511413574,-2.296354055404663,1.8087966442108154,4.054170608520508,0.31833726167678833,0.25714629888534546,0.003657888388261199,1.2815544605255127
366,20958,20956,0.014048672281205654,-0.07806806266307831,0.9593614935874939,-3.537740707397461,7.100748538970947,-2.513274908065796,1.810620665550232,4.054250717163086,0.31783637404441833,0.21005761623382568,-0.18398737907409668,1.2219830751419067
367,20968,20966,0.018193596974015236,0.027459047734737396,0.9776782393455505,-0.49347278475761414,8.047500610351562,-2.2370448112487793,1.8111474514007568,4.0529069900512695,0.31299054622650146,0.17825879156589508,-0.09871073812246323,1.1902045011520386
368,20978,20976,-0.060632266104221344,0.23167702555656433,1.1012171506881714,5.314185619354248,3.3133609294891357,-2.4051523208618164,1.8124887943267822,4.053476333618164,0.3122682273387909,0.08975234627723694,-0.174298956990242,1.1738394498825073
369,20988,20986,-0.019658541306853294,0.2479555904865265,1.1300959587097168,9.751873970031738,-5.048770904541016,-1.7748831510543823,1.8126640319824219,4.0527849197387695,0.31175705790519714,0.15708211064338684,-0.0073142992332577705,1.1765263080596924
370,20998,20996,-0.0755520761013031,0.49199047684669495,1.1028003692626953,9.103954315185547,-7.337827205657959,-2.315046787261963,1.814558982849121,4.052545070648193,0.3128470480442047,0.09469682723283768,0.11794524639844894,1.1711387634277344
371,21008,21006,-0.020569680258631706,0.08559656888246536,1.0545470714569092,7.041861057281494,-7.585373878479004,-1.7572075128555298,1.814388394355774,4.053404331207275,0.31266531348228455,0.3322393298149109,0.16810722649097443,1.1903009414672852
372,21018,21016,-0.025242486968636513,0.07162757217884064,1.0705541372299194,0.5780046582221985,-3.6936750411987305,-2.552870035171509,1.8159949779510498,4.0537943840026855,0.3124246597290039,0.22117142379283905,0.15895028412342072,1.212296724319458
373,21028,21026,0.07031751424074173,0.016647007316350937,0.9533546566963196,-3.8821465969085693,-0.14164310693740845,-3.2115044593811035,1.819336175918579,4.054839611053467,0.312447726726532,0.13553600013256073,0.21173366904258728,1.194525122642517
374,21038,21036,0.11326868087053299,-0.09713192284107208,0.9727306365966797,-10.247045516967773,2.428025245666504,-3.5423121452331543,1.8222423791885376,4.054792404174805,0.31215450167655945,0.08092430979013443,0.08957213908433914,1.1881523132324219
375,21048,21046,-0.05387406051158905,0.308918297290802,1.085923194885254,-11.684979438781738,3.463054656982422,-4.177463054656982,1.8236585855484009,4.055561065673828,0.31193292140960693,0.06375103443861008,-0.022997282445430756,1.1495941877365112
376,21058,21056,0.02024352177977562,0.27426275610923767,0.9859610795974731,-7.992254257202148,-1.001569151878357,-3.3141114711761475,1.8241180181503296,4.056297302246094,0.3118293881416321,0.1511194109916687,-0.2016589492559433,1.1565614938735962
377,21068,21066,0.06554867327213287,-0.1385168731212616,0.8958939909934998,-5.694828987121582,-4.310850143432617,-3.0648419857025146,1.8225562572479248,4.056644439697266,0.30902382731437683,0.13667333126068115,-0.24896903336048126,1.1080410480499268
378,21078,21076,0.11153197288513184,-0.2603185772895813,0.8985705375671387,1.7175543308258057,-3.7442643642425537,-4.362079620361328,1.8231970071792603,4.055922985076904,0.3086682856082916,0.3147597908973694,-0.2247306853532791,1.057815432548523
379,21088,21086,0.01919674687087536,-0.23683013021945953,0.9541113376617432,4.910947799682617,-3.0866124629974365,-2.6079094409942627,1.8231199979782104,4.055580139160156,0.3083762228488922,0.23351825773715973,-0.11833895742893219,1.0578436851501465
380,21098,21096,-0.04378022626042366,0.05613923817873001,0.9026510715484619,9.778303146362305,-4.268136978149414,-2.621187448501587,1.8247361183166504,4.054072856903076,0.30701902508735657,0.3411242663860321,-0.024270642548799515,1.037131667137146
381,21108,21106,-0.04696179926395416,-0.1695864051580429,0.8820638656616211,7.943173885345459,0.6802851557731628,-2.046931505203247,1.8243290185928345,4.055206298828125,0.3064345121383667,0.24695158004760742,0.0184917189180851,1.0454249382019043
382,21118,21116,0.008215164765715599,0.054916609078645706,1.0214643478393555,1.5722686052322388,2.0633938312530518,-2.463561773300171,1.8248568773269653,4.056329250335693,0.30576813220977783,0.36510005593299866,0.03153594583272934,1.0606975555419922
383,21128,21126,0.016335759311914444,0.19205354154109955,0.9138559699058533,-3.4246914386749268,5.613671779632568,-2.886496067047119,1.825991153717041,4.055862903594971,0.3053445518016815,0.3579457104206085,0.05310007184743881,1.0203107595443726
384,21138,21136,0.049438897520303726,-0.01647169142961502,0.9639950394630432,-7.477766990661621,10.305455207824707,-2.64034104347229,1.8283600807189941,4.055866241455078,0.3045736849308014,0.2929149270057678,0.06684622168540955,0.9959153532981873
385,21148,21146,0.028960440307855606,0.07288171350955963,1.0878291130065918,-8.725956916809082,3.8730177879333496,-3.2001967430114746,1.8303362131118774,4.056249141693115,0.3037913739681244,0.27413269877433777,-0.000981707125902176,0.9899803996086121
386,21158,21156,-0.10672116279602051,0.1285088211297989,1.0130338668823242,-6.53217887878418,3.198302984237671,-3.154273509979248,1.8305490016937256,4.056064128875732,0.30308687686920166,0.22165605425834656,-0.06700718402862549,0.956544041633606
387,21168,21166,-0.18450723588466644,0.23734398186206818,1.0543023347854614,-4.59894323348999,-1.437535047531128,-2.1786041259765625,1.831918716430664,4.056323528289795,0.3051660358905792,0.2181435376405716,-0.18443919718265533,0.96319580078125
388,21178,21176,-0.1974693238735199,0.08809702098369598,0.998430073261261,-0.7723242044448853,-3.7854878902435303,-3.418485403060913,1.8326330184936523,4.0565643310546875,0.3046439290046692,0.2213902622461319,-0.17328934371471405,0.9582004547119141
389,21188,21186,-0.2304449826478958,0.10293973237276077,1.0690048933029175,1.9155827760696411,-1.3053101301193237,-2.7971696853637695,1.8335609436035156,4.05642557144165,0.3041066527366638,0.21127811074256897,-0.19013915956020355,0.9405220150947571
390,21198,21196,-0.004055201541632414,-0.08978521078824997,1.068031907081604,2.6523807048797607,5.683640003204346,-3.45809006690979,1.8347643613815308,4.057063102722168,0.30501222610473633,0.29372715950012207,-0.1699034571647644,0.9385657906532288
391,21208,21206,-0.12239212542772293,0.2117350697517395,1.0887479782104492,4.999395847320557,-0.10953783988952637,-2.675624370574951,1.8349899053573608,4.056461811065674,0.3047322630882263,0.370860755443573,-0.11227711290121078,0.8890413045883179
392,21218,21216,-0.07192685455083847,0.08728001266717911,1.0446921586990356,2.1921234130859375,0.22319895029067993,-2.0455000400543213,1.8369404077529907,4.055751323699951,0.3044622242450714,0.3135817050933838,-0.06727185100317001,0.8358052372932434
393,21228,21226,-0.18379579484462738,0.15265806019306183,1.0779473781585693,-1.0671002864837646,4.742666721343994,-1.8497755527496338,1.8391798734664917,4.05515718460083,0.3034001588821411,0.23485924303531647,0.019290953874588013,0.8176291584968567
394,21238,21236,-0.08816935867071152,0.001293279929086566,1.0192136764526367,-4.143171310424805,6.388914108276367,-1.78389310836792,1.8402326107025146,4.055481910705566,0.3031986951828003,0.166599303483963,-0.11003760993480682,0.8371235728263855
395,21248,21246,-0.11092529445886612,0.13680683076381683,1.07443368434906,-6.598049163818359,5.108513832092285,-1.9010474681854248,1.8413652181625366,4.056684494018555,0.30306726694107056,0.1657765805721283,-0.20094923675060272,0.8695610761642456
396,21258,21256,-0.04439281299710274,-0.10996605455875397,0.9278882145881653,-4.3861799240112305,1.546302080154419,-2.3566930294036865,1.8412573337554932,4.05825138092041,0.30436691641807556,0.04309891164302826,-0.21782997250556946,0.8667216897010803
397,21268,21266,-0.23859162628650665,0.1954844444990158,0.9356149435043335,-1.425832986831665,-3.569272994995117,-2.408313274383545,1.842250943183899,4.0581746101379395,0.30427008867263794,0.16388122737407684,-0.20467476546764374,0.8933065533638
398,21278,21276,-0.10303095728158951,0.1259578913450241,1.0156043767929077,-0.4928833842277527,4.778459548950195,-3.168966770172119,1.8422256708145142,4.058486461639404,0.30429375171661377,0.1872115433216095,-0.16031230986118317,0.8936235308647156
399,21288,21286,-0.10396604984998703,0.07784682512283325,1.0510607957839966,0.6926732659339905,3.8550121784210205,-3.133727788925171,1.8433561325073242,4.057708263397217,0.30414506793022156,0.05761523172259331,-0.17978818714618683,0.8759157657623291
400,21298,21296,-0.12594236433506012,0.04426267370581627,1.0131248235702515,2.4514336585998535,3.7193970680236816,-2.955383539199829,1.8452928066253662,4.057859897613525,0.30495381355285645,0.09496578574180603,-0.17366088926792145,0.8579499125480652
401,21308,21306,-0.1653008908033371,0.013868296518921852,1.0446363687515259,-0.8661218285560608,2.3788914680480957,-2.621743679046631,1.845518946647644,4.057796955108643,0.30496683716773987,-0.0890677273273468,-0.1675518900156021,0.8257583379745483
402,21318,21316,-0.08458998054265976,0.07149997353553772,1.0509434938430786,-2.116887092590332,4.45404577255249,-3.359370470046997,1.8478251695632935,4.057873725891113,0.3048018515110016,-0.030215203762054443,-0.19678755104541779,0.7984044551849365
403,21328,21326,-0.08613355457782745,0.19280710816383362,1.0666017532348633,-3.801095962524414,4.824403285980225,-3.566005229949951,1.8483046293258667,4.058079242706299,0.3098766803741455,-0.0857354924082756,-0.24822178483009338,0.776638388633728
404,21338,21336,-0.08124451339244843,0.47762924432754517,1.1881587505340576,-3.7355968952178955,0.03302805870771408,-3.1550750732421875,1.8497512340545654,4.058659553527832,0.3102651834487915,-0.11596286296844482,-0.3194928765296936,0.7528526782989502
405,21348,21346,-0.05905184522271156,0.27368664741516113,1.0159109830856323,0.892160952091217,-6.6982574462890625,-1.9293816089630127,1.850431203842163,4.059037208557129,0.3108257055282593,-0.13231679797172546,-0.35064128041267395,0.7357728481292725
406,21358,21356,0.06266944855451584,0.07348621636629105,1.1373405456542969,-2.0520243644714355,1.5978596210479736,-2.901581287384033,1.851576566696167,4.058643341064453,0.31230825185775757,-0.16897232830524445,-0.37488606572151184,0.6941644549369812
407,21368,21366,-0.07780397683382034,0.13078807294368744,1.0943728685379028,3.483795642852783,-4.416197299957275,-2.626856803894043,1.8530604839324951,4.059061527252197,0.3130035698413849,-0.21167804300785065,-0.3794352114200592,0.6746534705162048
408,21378,21376,-0.1601010411977768,0.28929007053375244,0.9971804022789001,5.981013774871826,-2.710463047027588,-2.6741554737091064,1.8542591333389282,4.058806419372559,0.3138134479522705,-0.2812592089176178,-0.3916563391685486,0.6502086520195007
409,21388,21386,0.1346273124217987,-0.06391214579343796,0.9346786737442017,8.242409706115723,-2.581228733062744,-1.9728120565414429,1.8563343286514282,4.0592122077941895,0.3145154118537903,-0.3459492027759552,-0.2773013710975647,0.6267932057380676
410,21398,21396,0.2784506380558014,-0.040871571749448776,0.992502748966217,6.4777655601501465,-3.9557526111602783,-1.9310566186904907,1.8583178520202637,4.058398246765137,0.3136347830295563,-0.16992780566215515,-0.23460572957992554,0.5815838575363159
411,21408,21406,0.16871356964111328,-0.007960336282849312,0.8953319787979126,4.912525653839111,-5.009705543518066,-2.702448606491089,1.8581078052520752,4.058547496795654,0.31455159187316895,-0.28322622179985046,-0.20392964780330658,0.5644084215164185
412,21418,21416,-0.04355348274111748,0.016904806718230247,0.9086614847183228,-0.03915722295641899,-6.1664910316467285,-3.479456663131714,1.860708475112915,4.0593743324279785,0.31504207849502563,-0.1327502280473709,-0.14658765494823456,0.5556918382644653
413,21428,21426,-0.14232617616653442,0.13114377856254578,0.9497262835502625,-0.8046302199363708,-8.127220153808594,-3.921190023422241,1.8606669902801514,4.0593366622924805,0.31294000148773193,0.03258364647626877,-0.13886837661266327,0.5170629024505615
414,21438,21436,-0.21365098655223846,0.21656262874603271,0.9901745915412903,-3.5087385177612305,-2.224148750305176,-3.0585882663726807,1.8603672981262207,4.059793949127197,0.3133537471294403,0.07921525090932846,-0.16521787643432617,0.5015922784805298
415,21448,21446,-0.2270827740430832,0.5741270184516907,1.1537604331970215,-5.34966516494751,5.458957672119141,-4.476553916931152,1.8617991209030151,4.06019926071167,0.3136231005191803,0.007860030978918076,-0.23434750735759735,0.4801899790763855
416,21458,21456,-0.05392789468169212,0.1646064668893814,0.9106592535972595,-2.1695568561553955,5.317194938659668,-3.7322680950164795,1.863076090812683,4.061070442199707,0.31709524989128113,-0.05176045000553131,-0.21442635357379913,0.46283793449401855
417,21468,21466,0.21259832382202148,0.05533142015337944,0.9036257266998291,0.865932047367096,0.54154372215271,-3.9340872764587402,1.8644753694534302,4.060610771179199,0.31771120429039,0.009176255203783512,-0.22258344292640686,0.46424606442451477
418,21478,21476,0.14372672140598297,-0.06625862419605255,0.8095737099647522,4.837387561798096,-1.1021276712417603,-4.080740928649902,1.8632538318634033,4.061880111694336,0.31838181614875793,-0.18515852093696594,-0.2481793314218521,0.4829002618789673
419,21488,21486,0.00352883362211287,0.04644513502717018,0.9064998030662537,4.1429524421691895,-2.8558754920959473,-4.154874801635742,1.8656672239303589,4.0628485679626465,0.3200572729110718,-0.0909544974565506,-0.1573864072561264,0.46721282601356506
420,21498,21496,-0.1412789523601532,0.12855276465415955,0.9678094983100891,5.147528171539307,-6.237428665161133,-4.329031944274902,1.8655403852462769,4.063237190246582,0.3205108642578125,-0.20301415026187897,-0.07108507305383682,0.47393202781677246
421,21508,21506,-0.16526204347610474,0.23053337633609772,1.0278122425079346,5.237308025360107,-5.502202987670898,-4.3293304443359375,1.8681446313858032,4.06313419342041,0.3206178545951843,0.02884325012564659,-0.13728879392147064,0.42016690969467163
422,21518,21516,-0.2449495941400528,0.4902912378311157,1.1856023073196411,1.566565990447998,-1.1173243522644043,-5.025503158569336,1.8678053617477417,4.064024925231934,0.32113340497016907,0.11783072352409363,-0.07138877362012863,0.3745861351490021
423,21528,21526,-0.04148130118846893,0.17492930591106415,0.9432443976402283,2.028585910797119,-1.3651394844055176,-4.664328098297119,1.8687397241592407,4.064499855041504,0.3197244107723236,0.009252751246094704,-0.030743267387151718,0.3648189902305603
424,21538,21536,0.14231717586517334,0.2005959302186966,0.8527584671974182,1.169408917427063,-5.007901668548584,-3.9964640140533447,1.8709698915481567,4.064391613006592,0.3199463486671448,0.02940947189927101,0.009486939758062363,0.3215073347091675
425,21548,21546,0.02434968762099743,0.04490043967962265,0.8979173898696899,2.073812246322632,-7.927433013916016,-4.059410572052002,1.8720901012420654,4.063994884490967,0.320165753364563,0.11045055836439133,0.04893379658460617,0.26291558146476746
426,21558,21556,0.10048071295022964,-0.1364731788635254,0.8461286425590515,0.8511112332344055,1.0847761631011963,-3.232074737548828,1.8731591701507568,4.0641889572143555,0.3195068836212158,0.1532929241657257,0.08397768437862396,0.24299892783164978
427,21568,21566,0.08914435654878616,-0.19235852360725403,0.807414174079895,-1.0581272840499878,-0.4950190782546997,-4.081081390380859,1.8742024898529053,4.0641303062438965,0.31944015622138977,0.21304437518119812,0.08649594336748123,0.2090856432914734
428,21578,21576,-0.10525146126747131,0.1112920418381691,0.9938456416130066,-2.1426022052764893,1.96904456615448,-3.9639885425567627,1.8758516311645508,4.064907073974609,0.3192674219608307,0.2476811408996582,0.06178095191717148,0.20865614712238312
429,21588,21586,-0.0029714363627135754,0.10849083960056305,0.8899906873703003,-1.4399123191833496,2.3317816257476807,-4.4002909660339355,1.877734661102295,4.065321445465088,0.3228113651275635,0.08241183310747147,0.03152363747358322,0.1782788783311844
430,21598,21596,0.15479199588298798,-0.04844982177019119,0.9137601256370544,-0.2080037146806717,2.437920570373535,-4.05490255355835,1.880260705947876,4.065427303314209,0.3225782811641693,0.17201995849609375,-0.05693873390555382,0.11138425022363663
431,21608,21606,0.15328918397426605,-0.2152220457792282,0.8913998603820801,2.7502923011779785,-1.517450213432312,-3.8286385536193848,1.8801732063293457,4.065005779266357,0.32248419523239136,0.1270434558391571,-0.017437594011425972,0.019925646483898163
432,21618,21616,0.08787460625171661,-0.13628025352954865,0.8618643879890442,2.201165199279785,-2.7117278575897217,-3.175931215286255,1.8808495998382568,4.0648298263549805,0.3221465051174164,0.13151806592941284,0.03815077617764473,-0.019061779603362083
433,21628,21626,-0.10172802954912186,0.14410237967967987,1.0350124835968018,4.765585899353027,-5.831541538238525,-2.705958604812622,1.8817176818847656,4.065124034881592,0.31991276144981384,0.08380305767059326,0.08645723760128021,-0.026891252025961876
434,21638,21636,-0.27807384729385376,0.2853892743587494,0.9944918155670166,3.817711353302002,-5.587864875793457,-2.5720577239990234,1.8828924894332886,4.065699577331543,0.31934335827827454,0.2524445652961731,0.09118781238794327,0.010748501867055893
435,21648,21646,-0.23320013284683228,0.48832473158836365,1.0433169603347778,2.502532958984375,-3.336915969848633,-2.9837000370025635,1.883073091506958,4.06613302230835,0.3189603090286255,0.2174317091703415,0.1546710580587387,-0.017091935500502586
436,21658,21656,-0.05496424064040184,0.4282855689525604,1.0237497091293335,0.0005815361510030925,-1.4492003917694092,-2.78182053565979,1.8850079774856567,4.0660881996154785,0.3177434504032135,0.30211129784584045,0.1741849184036255,-0.03960592672228813
437,21668,21666,-0.06886624544858932,0.2469191998243332,1.046236276626587,-1.6155126094818115,2.2029638290405273,-2.904493570327759,1.885662317276001,4.06608772277832,0.317251980304718,0.14276555180549622,0.1482272893190384,-0.04713355377316475
438,21678,21676,-0.046453725546598434,0.04558396339416504,0.9673656821250916,-0.8584400415420532,-2.484093189239502,-3.332083225250244,1.8878815174102783,4.066934108734131,0.31656813621520996,0.27880579233169556,0.12440796941518784,-0.05565355345606804
439,21688,21686,0.09319131076335907,-0.03145907074213028,1.0329453945159912,-1.3267182111740112,-1.6710091829299927,-2.5923664569854736,1.887670874595642,4.067193508148193,0.31604018807411194,0.33466219902038574,0.10526381433010101,-0.08075620234012604
440,21698,21696,0.2157393991947174,-0.18166698515415192,1.0028892755508423,0.03422112017869949,-0.42939841747283936,-3.545637607574463,1.8885663747787476,4.067694664001465,0.315591037273407,0.3034743666648865,0.02400941774249077,-0.086371511220932
441,21708,21706,0.16769462823867798,-0.16108545660972595,1.0173877477645874,0.8183906674385071,-2.113499879837036,-2.3754212856292725,1.8898228406906128,4.068767547607422,0.31507498025894165,0.44287699460983276,0.04864643141627312,-0.09935817122459412
442,21718,21716,0.06563062965869904,-0.3436269164085388,0.857337236404419,3.5280754566192627,-8.24763011932373,-1.8056010007858276,1.8897961378097534,4.068685054779053,0.3147408366203308,0.41980448365211487,0.09890647977590561,-0.12523053586483002
443,21728,21726,0.014507915824651718,-0.2306980937719345,0.8693141341209412,2.659797430038452,-1.7764869928359985,-2.782985210418701,1.8913114070892334,4.068277359008789,0.3090979754924774,0.6173882484436035,0.16321374475955963,-0.15509161353111267
444,21738,21736,-0.0822245329618454,-0.178126722574234,1.0034016370773315,1.4357889890670776,3.369486093521118,-1.3159167766571045,1.8909968137741089,4.068300724029541,0.30826887488365173,0.39880427718162537,0.20850470662117004,-0.1612435281276703
445,21748,21746,-0.04669968783855438,-0.015234362334012985,1.0047247409820557,0.19396978616714478,4.81362247467041,-1.4887617826461792,1.8942365646362305,4.06810998916626,0.307182252407074,0.48630714416503906,0.23708292841911316,-0.17238394916057587
446,21758,21756,-0.19797588884830475,0.06544175744056702,1.0134425163269043,0.19357463717460632,4.069386005401611,-1.543642282485962,1.8939368724822998,4.066688537597656,0.3044431805610657,0.3564993143081665,0.315950483083725,-0.2721813917160034
447,21768,21766,-0.20132504403591156,0.02921232022345066,1.0315344333648682,-0.9259041547775269,7.038414478302002,-0.5341337323188782,1.89573073387146,4.0656890869140625,0.30330854654312134,0.3495403230190277,0.20479729771614075,-0.28894972801208496
448,21778,21776,-0.19521193206310272,0.14709773659706116,1.0329350233078003,-1.413112998008728,0.8853290677070618,0.4883967638015747,1.896371603012085,4.0656538009643555,0.3024245798587799,0.3780078589916229,0.2592182457447052,-0.3555073142051697
449,21788,21786,-0.10016516596078873,0.005775798577815294,1.0584375858306885,-2.9370744228363037,-0.9727547764778137,-0.5719189047813416,1.8963901996612549,4.065943241119385,0.3038365840911865,0.43534407019615173,0.20173007249832153,-0.2886216342449188
450,21798,21796,-0.11661408096551895,0.04910360649228096,1.0839253664016724,-3.4213039875030518,-2.4162726402282715,-0.27776196599006653,1.8963029384613037,4.066402912139893,0.30313464999198914,0.38810113072395325,0.21782054007053375,-0.28909245133399963
451,21808,21806,-0.03185930848121643,-0.005815934855490923,1.0364023447036743,-2.022637367248535,-1.7107998132705688,-1.4475940465927124,1.8972662687301636,4.066999435424805,0.30240398645401,0.4323995113372803,0.16280433535575867,-0.21992400288581848
452,21818,21816,-0.03938575088977814,-0.10426738113164902,0.9952697157859802,-0.3241611421108246,-3.1935198307037354,-0.7744753360748291,1.8981517553329468,4.067666530609131,0.3011479079723358,0.3207716941833496,0.1385369449853897,-0.195022314786911
453,21828,21826,-0.040334396064281464,-0.14908507466316223,0.9780941009521484,-1.784014105796814,-1.9721810817718506,-1.4166734218597412,1.900216817855835,4.067774772644043,0.30041998624801636,0.47988462448120117,0.19549261033535004,-0.20397017896175385
454,21838,21836,-0.05576060339808464,0.15308140218257904,1.0103607177734375,0.025784598663449287,-0.751944363117218,-1.1835283041000366,1.8998053073883057,4.066555500030518,0.2998559772968292,0.4298969507217407,0.167959064245224,-0.21559031307697296
455,21848,21846,-0.1721421480178833,0.1352800726890564,1.0844122171401978,-1.8590991497039795,2.660684823989868,-2.248090982437134,1.9009093046188354,4.067946910858154,0.29918810725212097,0.4843125641345978,0.13632354140281677,-0.17622938752174377
456,21858,21856,-0.03737189620733261,-0.08728087693452835,1.0712041854858398,-3.134171962738037,6.841555118560791,-1.4538530111312866,1.9009491205215454,4.06926965713501,0.30221036076545715,0.46603941917419434,0.07882522791624069,-0.11805000901222229
457,21868,21866,-0.19723010063171387,0.09111598879098892,1.0077191591262817,-3.5130977630615234,5.292341709136963,-1.891247272491455,1.9013662338256836,4.069309711456299,0.3019586503505707,0.21543800830841064,0.017831021919846535,-0.13802258670330048
458,21878,21876,-0.043055348098278046,-0.025710713118314743,1.010518193244934,-4.329196929931641,5.557933330535889,-1.7997061014175415,1.9043949842453003,4.070227146148682,0.3016480803489685,0.12977218627929688,-0.05708214268088341,-0.11521109193563461
459,21888,21886,-0.06616916507482529,-0.009501161985099316,0.9898343682289124,-1.4074199199676514,6.478531360626221,-1.0559743642807007,1.9056094884872437,4.070581436157227,0.29803362488746643,0.11254972219467163,-0.02847473695874214,-0.13278448581695557
460,21898,21896,-0.04840203747153282,-0.10035979002714157,0.9688064455986023,-0.7329952120780945,1.137679934501648,-1.022403597831726,1.905971884727478,4.0695905685424805,0.297706663608551,0.061947550624608994,-0.062123093754053116,-0.1635952740907669
461,21908,21906,-0.07273303717374802,-0.05133771151304245,1.055729866027832,2.6563446521759033,0.11296382546424866,-0.643907368183136,1.9066684246063232,4.069268703460693,0.2972832918167114,0.13363103568553925,-0.05689390376210213,-0.14434386789798737
462,21918,21916,0.053519994020462036,0.2515007555484772,1.0650733709335327,1.0438721179962158,0.5739503502845764,-0.8403111696243286,1.9072118997573853,4.069611072540283,0.29769065976142883,-0.021275034174323082,-0.03819726034998894,-0.18002308905124664
463,21928,21926,0.06005371734499931,0.015177524648606777,1.067420482635498,1.5567004680633545,1.2668416500091553,-0.43541669845581055,1.9095640182495117,4.069626808166504,0.29727309942245483,-0.07673127204179764,0.057117000222206116,-0.18321377038955688
464,21938,21936,0.17578861117362976,-0.42243582010269165,1.0126659870147705,0.5057090520858765,1.9907008409500122,-0.5817697048187256,1.9111762046813965,4.068257808685303,0.29691365361213684,-0.011704551987349987,0.056435007601976395,-0.2253776639699936
465,21948,21946,0.06463627517223358,-0.3261445462703705,0.9429083466529846,0.08944487571716309,-6.336177825927734,0.36924493312835693,1.911405324935913,4.068146228790283,0.29675641655921936,-0.03397832438349724,0.03530324250459671,-0.2394503504037857
466,21958,21956,-0.001507648965343833,-0.3267086148262024,0.8037871718406677,0.3920637369155884,-5.488211631774902,-0.524094820022583,1.9123324155807495,4.068259239196777,0.2975933849811554,0.1648937463760376,0.025487354025244713,-0.23017168045043945
467,21968,21966,-0.018086377531290054,-0.24670282006263733,0.9273619651794434,-3.443868637084961,0.7118343710899353,-0.17352724075317383,1.912179708480835,4.067977428436279,0.29735252261161804,-0.02287052571773529,-0.021578747779130936,-0.25250545144081116
468,21978,21976,0.010881639085710049,0.1202414408326149,1.0057573318481445,-3.7120821475982666,3.633741855621338,-0.9606484770774841,1.9150480031967163,4.068567752838135,0.296722948551178,-0.020046263933181763,-0.016062799841165543,-0.23227761685848236
469,21988,21986,0.06263002008199692,0.0923558846116066,1.055578589439392,-3.8757050037384033,4.704004287719727,-0.458983838558197,1.9163435697555542,4.068134307861328,0.2991243302822113,-0.13839145004749298,-0.0954807922244072,-0.24100224673748016
470,21998,21996,-0.07300619035959244,-0.08455540239810944,1.0538150072097778,-2.111180543899536,0.8885213732719421,0.2699238657951355,1.918387770652771,4.068614959716797,0.298702210187912,-0.06939121335744858,-0.004419347736984491,-0.23114430904388428
471,22008,22006,0.037624187767505646,-0.1816895604133606,0.9918065071105957,-1.9981940984725952,2.956510305404663,-0.29004427790641785,1.9184662103652954,4.067321300506592,0.2985402047634125,-0.082940012216568,-0.06380810588598251,-0.23375941812992096
472,22018,22016,-0.0024769885931164026,0.05134119838476181,1.1183079481124878,-0.9690359830856323,0.984337329864502,-0.11977197229862213,1.9196183681488037,4.0678558349609375,0.29876843094825745,-0.24124859273433685,-0.10960511863231659,-0.2105943262577057
473,22028,22026,-0.0013508006231859326,-0.10750044882297516,0.980050802230835,0.8425485491752625,-3.82639217376709,0.5462629795074463,1.9215229749679565,4.068233966827393,0.2984131872653961,-0.09442545473575592,-0.12580785155296326,-0.19119669497013092
474,22038,22036,0.11168118566274643,-0.299955278635025,0.8263418078422546,3.0331406593322754,-5.344595909118652,0.0962672159075737,1.9212183952331543,4.068860054016113,0.2983876168727875,-0.06507641077041626,-0.10306193679571152,-0.14561404287815094
475,22048,22046,0.03336269035935402,-0.231288343667984,0.8784003853797913,-1.183898687362671,-5.615874290466309,-0.3358263373374939,1.9218095541000366,4.069109916687012,0.2980506420135498,-0.1735408753156662,-0.10735675692558289,-0.10186605900526047
476,22058,22056,-0.0030421472620218992,-0.1756415069103241,0.9807628393173218,-2.2845284938812256,-3.377962350845337,-0.10942010581493378,1.9241677522659302,4.069157123565674,0.29926231503486633,0.033221520483493805,-0.07676999270915985,-0.07053563743829727
477,22068,22066,-0.010107629001140594,0.12556080520153046,0.9817580580711365,-2.5635921955108643,-2.0350914001464844,-0.11197102069854736,1.9233367443084717,4.06947660446167,0.29899439215660095,0.018154453486204147,-0.14429406821727753,-0.05830291658639908
478,22078,22076,-0.010301660746335983,-0.013237517327070236,0.9421970844268799,-2.59074068069458,-4.258554935455322,0.10101954638957977,1.9246890544891357,4.069645404815674,0.2984743118286133,0.020599495619535446,-0.21053801476955414,-0.057921335101127625
479,22088,22086,-0.06983156502246857,0.009112905710935593,1.0727694034576416,-2.9883596897125244,-1.2142170667648315,-0.07725322246551514,1.9258440732955933,4.069706439971924,0.30169355869293213,0.0031874803826212883,-0.20004487037658691,-0.06879571825265884
480,22098,22096,-0.04826652258634567,-0.02364703267812729,1.0634465217590332,-0.4233754873275757,-2.6987557411193848,0.1189943179488182,1.9272106885910034,4.069459438323975,0.3014277219772339,0.1350373774766922,-0.2574857771396637,-0.05141126736998558
481,22108,22106,-0.12898492813110352,0.0013731014914810658,0.9779327511787415,1.6661757230758667,-3.92287015914917,0.2983141541481018,1.926905870437622,4.069899082183838,0.3013524115085602,-0.02346242405474186,-0.26651233434677124,-0.026336146518588066
