,timestamp_start,timestamp_end,acc.x,acc.y,acc.z,gyro.x,gyro.y,gyro.z,stateEstimate.x,stateEstimate.y,stateEstimate.z,stabilizer.pitch,stabilizer.roll,stabilizer.yaw
0,29518,29517,-0.037349242717027664,0.0448131337761879,1.0806413888931274,1.7888765335083008,-3.1508498191833496,2.338536262512207,1.9216351509094238,3.9966237545013428,0.16533730924129486,-0.6527175307273865,-0.40937715768814087,2.854903221130371
1,29528,29527,0.04464133828878403,-0.0462615042924881,1.1242990493774414,2.1957051753997803,-6.82413911819458,3.5819618701934814,1.9213523864746094,3.995673418045044,0.16606004536151886,-0.6267396211624146,-0.24903807044029236,2.9036009311676025
2,29538,29537,0.0744699239730835,-0.1663040965795517,1.0985809564590454,5.148936748504639,-5.419583797454834,3.1492230892181396,1.9207106828689575,3.994563102722168,0.1669781506061554,-0.6292564868927002,-0.3037395477294922,2.9246203899383545
3,29548,29547,-0.002431779634207487,-0.07401299476623535,1.0186259746551514,5.730294227600098,-1.3051851987838745,3.597644090652466,1.9184081554412842,3.9927141666412354,0.16796621680259705,-0.5829393267631531,-0.30705487728118896,2.9458987712860107
4,29558,29557,0.005590307991951704,0.004347467329353094,1.06671142578125,3.620420455932617,-1.2126861810684204,4.19976282119751,1.918862223625183,3.9924709796905518,0.16894423961639404,-0.6433148980140686,-0.30881866812705994,2.9708080291748047
5,29568,29567,0.016451913863420486,-0.001371763413771987,1.1040427684783936,2.5915908813476562,-1.5482569932937622,4.161900043487549,1.9178780317306519,3.9909722805023193,0.1700558215379715,-0.6159906983375549,-0.17959687113761902,3.029176950454712
6,29578,29577,0.01353522390127182,0.15966545045375824,1.0667017698287964,2.9631354808807373,-0.1211206242442131,4.326242446899414,1.9177563190460205,3.9916138648986816,0.1712373048067093,-0.6013612747192383,-0.27896735072135925,3.046964406967163
7,29588,29587,-0.005083670374006033,0.005928285885602236,1.1120816469192505,-0.7829344272613525,-1.0778640508651733,4.503264427185059,1.9163918495178223,3.990633487701416,0.1727643609046936,-0.5997908115386963,-0.24492675065994263,3.091036796569824
8,29598,29597,0.027974369004368782,-0.10410770773887634,1.0929971933364868,2.95192551612854,-6.65162467956543,4.748619079589844,1.9156854152679443,3.9896583557128906,0.1741783618927002,-0.5465688109397888,-0.08749857544898987,3.1652615070343018
9,29608,29607,0.013182380236685276,0.009682361967861652,1.0729953050613403,4.549295425415039,-8.3262939453125,4.835375785827637,1.914829969406128,3.9891855716705322,0.1755385398864746,-0.44599294662475586,0.020134294405579567,3.2267704010009766
10,29618,29617,-0.026177333667874336,0.10372719913721085,1.055637240409851,4.987728595733643,-6.829031467437744,3.8181960582733154,1.9148448705673218,3.986654043197632,0.17650958895683289,-0.34158483147621155,0.4246107041835785,3.3376193046569824
11,29628,29627,0.011058464646339417,0.08023649454116821,0.9789385199546814,2.348093032836914,-5.423056602478027,3.1676270961761475,1.9139208793640137,3.9868292808532715,0.17847372591495514,-0.26352494955062866,0.3343677222728729,3.3524293899536133
12,29638,29637,0.016570700332522392,-0.04276835918426514,0.9974509477615356,-2.3878188133239746,-6.998595714569092,3.35579252243042,1.9125616550445557,3.9900803565979004,0.18152959644794464,-0.1752767413854599,-0.29311415553092957,3.2822961807250977
13,29648,29647,0.03642577677965164,-0.07239177823066711,1.117087721824646,-6.7073564529418945,-2.796576499938965,4.370635986328125,1.912976861000061,3.983191728591919,0.18291909992694855,-0.09372472763061523,0.7871454954147339,3.479513645172119
14,29658,29657,0.013223177753388882,-0.13918833434581757,1.097595453262329,-2.8936197757720947,-1.4684925079345703,3.8690662384033203,1.9166011810302734,3.9816770553588867,0.18405500054359436,-0.5637982487678528,0.9397415518760681,3.525545120239258
15,29668,29667,-0.012533867731690407,-0.09300504624843597,1.1412618160247803,-8.495537757873535,-4.217860221862793,4.089755058288574,1.9157512187957764,3.982318162918091,0.18697330355644226,-0.5481141805648804,0.6876524686813354,3.534196138381958
16,29678,29677,0.022594811394810677,-0.0905839130282402,1.0604499578475952,-14.712584495544434,-0.3343128561973572,4.412818431854248,1.9161877632141113,3.981954574584961,0.18641400337219238,-0.5237213373184204,0.5229191780090332,3.561636209487915
17,29688,29687,0.01195278950035572,-0.07980787754058838,1.0827471017837524,-19.31511688232422,-3.7044517993927,3.844041347503662,1.9164793491363525,3.9823594093322754,0.18841145932674408,-0.5803094506263733,0.2725341320037842,3.580442190170288
18,29698,29697,0.04041040316224098,-0.01839517243206501,1.0518509149551392,-21.62674331665039,-8.036865234375,3.4907736778259277,1.916693925857544,3.9827938079833984,0.19086840748786926,-0.41502904891967773,-0.10809335857629776,3.601773262023926
19,29708,29707,0.022130055353045464,-0.04356800392270088,1.0146818161010742,-18.808237075805664,-12.142898559570312,3.1946310997009277,1.9170163869857788,3.9826016426086426,0.19307373464107513,-0.2736060917377472,-0.01961006037890911,3.6830406188964844
20,29718,29717,0.03426184505224228,-0.12321310490369797,1.1040114164352417,-14.396263122558594,-14.412525177001953,2.595083713531494,1.9169036149978638,3.9818782806396484,0.19351813197135925,-0.1679520606994629,-0.30946940183639526,3.6985373497009277
21,29728,29727,0.028962714597582817,-0.09696174412965775,1.1095356941223145,-7.2027997970581055,-16.936063766479492,1.895195722579956,1.9180642366409302,3.9829623699188232,0.19562339782714844,-0.07193835824728012,-0.4832998514175415,3.717811346054077
22,29738,29737,0.053056247532367706,-0.009247262962162495,0.9358320832252502,-0.8804031014442444,-13.734777450561523,1.4417824745178223,1.9179532527923584,3.9835317134857178,0.19783751666545868,0.108583003282547,-0.6040478348731995,3.7334017753601074
23,29748,29747,0.02872871607542038,0.03238268941640854,0.9334118366241455,0.9545235633850098,-13.38992977142334,2.1678667068481445,1.9184911251068115,3.9831509590148926,0.1993420422077179,0.32011306285858154,-0.64809250831604,3.7486727237701416
24,29758,29757,0.008262737654149532,-0.060369815677404404,1.0155223608016968,1.24601411819458,-7.6144795417785645,1.4806228876113892,1.9186687469482422,3.9823617935180664,0.20147180557250977,0.32808002829551697,-0.7315554618835449,3.760972499847412
25,29768,29767,0.015517501160502434,-0.050373345613479614,1.002734661102295,1.3967219591140747,-5.2058916091918945,1.4644858837127686,1.9189064502716064,3.9809958934783936,0.2035265415906906,0.3676115572452545,-0.7808001041412354,3.770285129547119
26,29778,29777,0.032295990735292435,-0.01310842577368021,0.9864112138748169,0.09215395152568817,-3.007075786590576,1.6852900981903076,1.919803261756897,3.9805479049682617,0.20570078492164612,0.36028414964675903,-0.748927891254425,3.7866408824920654
27,29788,29787,0.06121370568871498,-0.04767872020602226,1.016211748123169,-1.0678222179412842,-5.046115398406982,1.336055040359497,1.9196186065673828,3.979964017868042,0.2079935073852539,0.42424827814102173,-0.7414806485176086,3.8048808574676514
28,29798,29797,-0.002268042415380478,-0.0004162009572610259,0.9839997887611389,-1.0155748128890991,-2.5128653049468994,0.008644811809062958,1.920918345451355,3.9801506996154785,0.20999129116535187,0.35810351371765137,-0.8204624056816101,3.8199243545532227
29,29808,29807,0.008616134524345398,0.06964694708585739,0.8606302738189697,-1.4302915334701538,-7.113012790679932,0.23963597416877747,1.9209539890289307,3.980008125305176,0.21226602792739868,0.43799835443496704,-0.8939031958580017,3.8207321166992188
30,29818,29817,0.05330377072095871,-0.07833482325077057,0.9716054201126099,-1.6335866451263428,-9.983519554138184,0.1497926414012909,1.9198952913284302,3.97959566116333,0.21436619758605957,0.628919243812561,-0.9615618586540222,3.8199806213378906
31,29828,29827,0.07918471843004227,-0.21315090358257294,1.0341421365737915,1.6556313037872314,-14.215683937072754,-0.05573349446058273,1.9197920560836792,3.9798879623413086,0.2162434458732605,0.750133216381073,-0.9999301433563232,3.8229074478149414
32,29838,29837,0.017405472695827484,-0.12031709402799606,1.0385901927947998,4.462907791137695,-12.624191284179688,-0.6573164463043213,1.9198487997055054,3.978593349456787,0.21820780634880066,0.8362472057342529,-0.9084491729736328,3.8255233764648438
33,29848,29847,0.04789581149816513,-0.07628936320543289,0.9629143476486206,6.518086910247803,-5.946966648101807,-1.3962993621826172,1.9213026762008667,3.9778993129730225,0.21891987323760986,0.6985909938812256,-0.8513992428779602,3.8342905044555664
34,29858,29857,0.06454888731241226,-0.04730875790119171,0.9993085861206055,7.6483683586120605,-4.608844757080078,-1.3957831859588623,1.9210290908813477,3.976746082305908,0.2208280861377716,0.8077914118766785,-0.7621027827262878,3.8182497024536133
35,29868,29867,0.07386527955532074,-0.1567813754081726,0.9868699312210083,7.243887424468994,-5.129939079284668,-1.7531144618988037,1.921388030052185,3.975954294204712,0.22271741926670074,0.9101643562316895,-0.6657670140266418,3.7986960411071777
36,29878,29877,0.033040110021829605,-0.046090684831142426,1.0111851692199707,5.401443958282471,-4.519650936126709,-2.037287473678589,1.922505259513855,3.9754629135131836,0.2267756462097168,0.8282198905944824,-0.579606294631958,3.789968490600586
37,29888,29887,-0.06517402827739716,0.06775957345962524,0.9931706786155701,3.78739857673645,-7.142658233642578,-2.3146345615386963,1.922059416770935,3.9757659435272217,0.22885334491729736,1.0333267450332642,-0.5875712037086487,3.759035348892212
38,29898,29897,0.002400228986516595,-0.05767661705613136,0.9943616986274719,1.4519624710083008,-9.115052223205566,-2.054917812347412,1.9211459159851074,3.976229429244995,0.23082931339740753,1.2446752786636353,-0.6319562792778015,3.7336552143096924
39,29908,29907,-0.014340563677251339,-0.024020491167902946,1.048342227935791,0.4575707018375397,-10.204513549804688,-2.63729190826416,1.9197957515716553,3.9750447273254395,0.2330160140991211,1.4372625350952148,-0.5430564284324646,3.6963014602661133
40,29918,29917,-0.10769878327846527,0.06280410289764404,1.0676671266555786,1.853385090827942,-6.551698207855225,-3.297651529312134,1.9182931184768677,3.9749135971069336,0.23749598860740662,1.5705525875091553,-0.5375148057937622,3.6647472381591797
41,29928,29927,-0.02126259356737137,-3.512449256959371e-05,0.9746195077896118,2.3798279762268066,1.1950113773345947,-2.68988299369812,1.9179928302764893,3.9732770919799805,0.23969309031963348,1.6256839036941528,-0.358783096075058,3.615145444869995
42,29938,29937,-0.060330912470817566,0.21881335973739624,0.9274832010269165,4.031144618988037,7.304544448852539,-3.1858558654785156,1.9188506603240967,3.9733312129974365,0.24202948808670044,1.4725605249404907,-0.40916216373443604,3.598858118057251
43,29948,29947,0.03108740970492363,0.14131894707679749,0.9161000847816467,4.551087379455566,10.849586486816406,-3.3003571033477783,1.9162689447402954,3.9705779552459717,0.24544310569763184,1.3277249336242676,-0.12684030830860138,3.537480354309082
44,29958,29957,0.022731002420186996,-0.015999069437384605,1.0042473077774048,2.359110116958618,10.42883586883545,-3.481470823287964,1.9166717529296875,3.9719831943511963,0.24760158360004425,1.2401700019836426,-0.12311144173145294,3.513700008392334
45,29968,29967,-0.0050043086521327496,-0.14712686836719513,0.971001148223877,-0.11851217597723007,8.394367218017578,-3.390000104904175,1.9126118421554565,3.9702248573303223,0.24946823716163635,1.717010498046875,0.09187354892492294,3.437232732772827
46,29978,29977,0.0312509648501873,-0.17765037715435028,0.8760660290718079,-2.8327910900115967,6.925448894500732,-2.9681262969970703,1.9172799587249756,3.971381425857544,0.2519542872905731,1.0898255109786987,0.2457151561975479,3.3923768997192383
47,29988,29987,0.04786552116274834,-0.1474180370569229,0.8750366568565369,-7.170853614807129,7.085550308227539,-2.6251001358032227,1.918920636177063,3.9723851680755615,0.25420793890953064,0.9107698202133179,-0.0016264047008007765,3.3970751762390137
48,29998,29997,0.038992930203676224,-0.09842376410961151,0.9046915769577026,-11.103144645690918,5.975184917449951,-3.111341714859009,1.9191842079162598,3.971364974975586,0.2559627592563629,0.8359001874923706,0.009114760905504227,3.35463809967041
49,30008,30007,-0.05504440888762474,-0.01027696579694748,1.0126851797103882,-12.018898963928223,0.5547046065330505,-3.3342113494873047,1.922147274017334,3.9717419147491455,0.257720023393631,0.44334638118743896,-0.2568833827972412,3.3375535011291504
50,30018,30017,-0.02601626329123974,-0.008510318584740162,0.9698829054832458,-11.969695091247559,0.7732167840003967,-3.8438470363616943,1.9270199537277222,3.970075845718384,0.2599336802959442,-0.046111613512039185,-0.21065792441368103,3.274749994277954
51,30028,30027,0.003499177284538746,-0.036226607859134674,0.9274232983589172,-9.436046600341797,-5.371497631072998,-3.619910717010498,1.92660391330719,3.9704883098602295,0.2620772123336792,0.12222328037023544,-0.3920961618423462,3.2444190979003906
52,30038,30037,-0.0457853302359581,0.0659579485654831,0.9263811707496643,-7.485049247741699,-13.160731315612793,-4.0418171882629395,1.9242885112762451,3.9705252647399902,0.2644285261631012,0.4581078588962555,-0.608466386795044,3.220128059387207
53,30048,30047,-0.05319155007600784,0.13941648602485657,0.9602046012878418,-6.1421332359313965,-18.161739349365234,-3.4188013076782227,1.923943281173706,3.970982551574707,0.2639746367931366,0.6562944650650024,-0.7010360360145569,3.184140205383301
54,30058,30057,-0.06122130900621414,0.148879274725914,1.022270679473877,-0.4898419678211212,-22.93886375427246,-3.4178080558776855,1.9237773418426514,3.9711029529571533,0.26576030254364014,0.8085258603096008,-0.8002526760101318,3.1565005779266357
55,30068,30067,-0.009093083441257477,0.00038768252125009894,0.9574077725410461,3.3660426139831543,-20.358203887939453,-3.286424398422241,1.9222023487091064,3.9702093601226807,0.2675367593765259,1.2615602016448975,-0.7257882356643677,3.122853994369507
56,30078,30077,-0.001403986243531108,-0.03268428519368172,0.9302118420600891,5.312841415405273,-15.111227035522461,-3.0619688034057617,1.9202778339385986,3.9694342613220215,0.26844510436058044,1.355684518814087,-0.7337754368782043,3.11954927444458
57,30088,30087,-0.015324419364333153,0.08786743879318237,0.8802513480186462,4.589481830596924,-7.009164810180664,-3.1323764324188232,1.9201918840408325,3.9691214561462402,0.2700640559196472,1.5790194272994995,-0.6872905492782593,3.087602138519287
58,30098,30097,-0.03491919860243797,-0.0223837960511446,0.9723601341247559,5.063180446624756,-1.8635790348052979,-2.7855348587036133,1.919568657875061,3.969224214553833,0.2714371383190155,1.7653464078903198,-0.6325821876525879,3.0520925521850586
59,30108,30107,0.013024277985095978,-0.08685250580310822,0.985841691493988,1.172695517539978,12.124661445617676,-3.359658718109131,1.919463872909546,3.9691274166107178,0.27445104718208313,1.7902233600616455,-0.5886646509170532,3.0244171619415283
60,30118,30117,0.07076786458492279,-0.20724542438983917,0.9426605105400085,-0.32802826166152954,14.308850288391113,-2.473153829574585,1.9190832376480103,3.970372200012207,0.2758699059486389,1.7284246683120728,-0.7409648299217224,3.0136961936950684
61,30128,30127,0.04005588963627815,-0.04757596179842949,0.9457061886787415,-1.9853702783584595,17.17154312133789,-3.2402963638305664,1.9196044206619263,3.9697608947753906,0.2773479223251343,1.4928497076034546,-0.680500864982605,2.975428819656372
62,30138,30137,-0.00118354638107121,0.0511266328394413,0.9427356123924255,-1.7532495260238647,14.481049537658691,-2.668574810028076,1.915390133857727,3.9698686599731445,0.278628945350647,1.7824844121932983,-0.7302836775779724,2.9339780807495117
63,30148,30147,-0.08823638409376144,0.07089036703109741,0.9382606148719788,-0.6585504412651062,10.102949142456055,-3.0351550579071045,1.9146203994750977,3.9690542221069336,0.27849775552749634,1.6687721014022827,-0.6893457770347595,2.8936610221862793
64,30158,30157,-0.03362370282411575,0.0038990923203527927,0.9350686073303223,2.040175199508667,8.429301261901855,-2.618412733078003,1.914769172668457,3.9710214138031006,0.2797929644584656,1.4416929483413696,-0.8669981956481934,2.890470027923584
65,30168,30167,0.03542155399918556,-0.04305952414870262,0.9094610810279846,2.835354804992676,7.920688629150391,-2.4544124603271484,1.9142248630523682,3.9709856510162354,0.28089022636413574,1.335870385169983,-0.9145192503929138,2.8717896938323975
66,30178,30177,0.005024127662181854,-0.0002566738985478878,0.9624848365783691,5.491846084594727,7.151793956756592,-2.7214603424072266,1.9141725301742554,3.9699294567108154,0.2809911370277405,1.2457318305969238,-0.7666892409324646,2.8285939693450928
67,30188,30187,-0.021156879141926765,0.004996264819055796,0.9796756505966187,9.694413185119629,7.596818923950195,-2.3117949962615967,1.9113028049468994,3.970574378967285,0.2818203270435333,1.3909350633621216,-0.8203381299972534,2.8057265281677246
68,30198,30197,-0.0003519528254400939,0.08998154103755951,0.9293748140335083,11.305689811706543,6.783336639404297,-2.054694175720215,1.9103519916534424,3.971024751663208,0.2827596962451935,1.2991986274719238,-0.7977174520492554,2.7908220291137695
69,30208,30207,-0.013716818764805794,0.09891549497842789,0.9620987772941589,10.925116539001465,9.894011497497559,-1.7224555015563965,1.907297134399414,3.969820499420166,0.2843306362628937,1.4240056276321411,-0.5884300470352173,2.7403266429901123
70,30218,30217,0.011048838496208191,-0.00013815930287819356,0.9956511855125427,10.587112426757812,12.714025497436523,-1.3920046091079712,1.9068872928619385,3.9689383506774902,0.2853160500526428,1.2510203123092651,-0.3972075283527374,2.714686393737793
71,30228,30227,0.0217046607285738,-0.04030880704522133,0.9364272952079773,9.02623176574707,15.657800674438477,-1.607430338859558,1.9053393602371216,3.970395803451538,0.28614670038223267,1.1821774244308472,-0.3771713972091675,2.709113121032715
72,30238,30237,0.017926940694451332,-0.027209455147385597,0.939165472984314,5.210839748382568,17.058025360107422,-2.0510621070861816,1.9054863452911377,3.9703407287597656,0.28699514269828796,0.9857739210128784,-0.22649775445461273,2.6882293224334717
73,30248,30247,-0.021506648510694504,0.02264566347002983,0.9897415637969971,2.247713804244995,17.406774520874023,-1.9673365354537964,1.9046188592910767,3.9711644649505615,0.2882167100906372,0.7759845852851868,-0.28386732935905457,2.685330390930176
74,30258,30257,0.004626707639545202,-0.03705073893070221,0.9419748187065125,-0.3083162307739258,19.107351303100586,-2.0646121501922607,1.9038008451461792,3.971389055252075,0.28895649313926697,0.6406184434890747,-0.22052063047885895,2.662240982055664
75,30268,30267,0.049717746675014496,-0.05287574976682663,0.9152274131774902,-0.8008853197097778,16.56624412536621,-1.6919784545898438,1.9020754098892212,3.970299005508423,0.2896081805229187,0.5668257474899292,-0.12569855153560638,2.6300902366638184
76,30278,30277,0.08383437991142273,-0.11794012039899826,0.970888614654541,-0.8360121846199036,11.934744834899902,-1.4638512134552002,1.9020565748214722,3.970500946044922,0.29155775904655457,0.27936267852783203,-0.132485032081604,2.6116819381713867
77,30288,30287,0.0071514504961669445,0.0026133081410080194,1.0104044675827026,0.4296068549156189,8.84182357788086,-0.7897889018058777,1.8997982740402222,3.9711084365844727,0.2921808362007141,0.2937140464782715,-0.20298244059085846,2.6007959842681885
78,30298,30297,-0.003790247719734907,-0.26737260818481445,1.0398337841033936,2.146735668182373,7.1520915031433105,-0.7753420472145081,1.898990511894226,3.9708478450775146,0.29293161630630493,0.12073954194784164,-0.1744089424610138,2.588557720184326
79,30308,30307,0.024331113323569298,-0.16192063689231873,0.9371704459190369,4.5495991706848145,8.623795509338379,-1.384082317352295,1.8992995023727417,3.9707462787628174,0.2911485731601715,-0.022694826126098633,-0.1215546652674675,2.5799286365509033
80,30318,30317,0.008200152777135372,-0.03836401179432869,0.9551626443862915,4.693798065185547,9.147775650024414,-1.9091211557388306,1.8983345031738281,3.9703783988952637,0.29163840413093567,-0.09537329524755478,-0.03984283655881882,2.56770920753479
81,30328,30327,0.010959313251078129,-0.026309652253985405,0.9769325852394104,3.593665838241577,11.748510360717773,-2.2752110958099365,1.8970710039138794,3.9700160026550293,0.29211434721946716,-0.17234490811824799,0.04059740528464317,2.5496556758880615
82,30338,30337,0.047851577401161194,-0.05152833089232445,0.9215018153190613,2.0498712062835693,10.783282279968262,-1.704649567604065,1.8945454359054565,3.970975160598755,0.2924674153327942,-0.034659482538700104,0.02628493867814541,2.53342604637146
83,30348,30347,6.934097655175719e-06,0.02590555138885975,0.9725497961044312,2.0907435417175293,15.200516700744629,-1.5810424089431763,1.8925995826721191,3.970679759979248,0.29163944721221924,-0.09929011762142181,0.07301394641399384,2.5158028602600098
84,30358,30357,-0.023549100384116173,0.033974818885326385,1.0272787809371948,0.11072913557291031,22.30569076538086,-1.4140385389328003,1.8920321464538574,3.9709415435791016,0.292111337184906,-0.39426279067993164,0.02977813594043255,2.4928297996520996
85,30368,30367,-0.028059925884008408,0.06640060991048813,1.0167105197906494,-1.436598539352417,30.60413932800293,-1.6939557790756226,1.8902554512023926,3.9711756706237793,0.2923657298088074,-0.5049106478691101,0.045109570026397705,2.482173442840576
86,30378,30377,-0.019213030114769936,-0.008983220905065536,1.0098572969436646,-1.4794070720672607,27.872541427612305,-0.7776494026184082,1.8915412425994873,3.9728586673736572,0.2928883731365204,-1.0371757745742798,0.03343377262353897,2.455690622329712
87,30388,30387,0.06375151872634888,-0.08371152728796005,0.9421752095222473,-0.690025806427002,37.12413787841797,-1.8265364170074463,1.8909826278686523,3.9733128547668457,0.29319390654563904,-1.361647605895996,0.019173836335539818,2.442072629928589
88,30398,30397,0.11922504752874374,-0.07719852030277252,0.9230896234512329,-0.5729986429214478,31.880023956298828,-1.7050548791885376,1.8899627923965454,3.973026752471924,0.2935035228729248,-1.7228639125823975,0.008017984218895435,2.4250969886779785
89,30408,30407,0.103040911257267,-0.14587998390197754,1.003832459449768,0.9049373865127563,21.526063919067383,-0.9062013030052185,1.8901734352111816,3.9732232093811035,0.2947196364402771,-2.158773183822632,0.010119648650288582,2.404291868209839
90,30418,30417,0.06221224367618561,-0.07751002907752991,1.0022938251495361,2.7652957439422607,11.249590873718262,-0.8802697658538818,1.8882064819335938,3.972930669784546,0.295146644115448,-2.2554330825805664,0.039584577083587646,2.406028985977173
91,30428,30427,-0.004890043754130602,0.0579904206097126,0.9776813387870789,3.0807294845581055,0.14785809814929962,-0.5789166688919067,1.8868850469589233,3.9739177227020264,0.29546043276786804,-2.3440890312194824,0.01683964766561985,2.3892228603363037
92,30438,30437,-0.0010907253017649055,0.010485747829079628,1.0369511842727661,3.138930559158325,-2.059420347213745,-0.6568095088005066,1.8866580724716187,3.9745137691497803,0.29274052381515503,-2.4434306621551514,0.008439643308520317,2.366468667984009
93,30448,30447,0.023042794317007065,-0.015457243658602238,1.0041741132736206,2.4138715267181396,-3.013253927230835,-0.32788848876953125,1.8847509622573853,3.9741806983947754,0.29286399483680725,-2.3186378479003906,0.07345763593912125,2.376544237136841
94,30458,30457,0.030477596446871758,-0.041456110775470734,0.9886093735694885,1.6213260889053345,-0.806473970413208,-0.8221574425697327,1.8849483728408813,3.975231647491455,0.2929399311542511,-2.3408212661743164,0.12243800610303879,2.3782544136047363
95,30468,30467,-0.01608438789844513,0.0786803662776947,0.9694584012031555,0.08006206154823303,2.754544258117676,-0.6238086819648743,1.8843255043029785,3.975024461746216,0.29302293062210083,-2.315072536468506,0.15275269746780396,2.376638889312744
96,30478,30477,0.005407808814197779,-0.03550851345062256,0.9747894406318665,1.1508039236068726,6.4155755043029785,-0.7106641530990601,1.8849551677703857,3.9763503074645996,0.29155728220939636,-2.431917905807495,0.16745240986347198,2.365429162979126
97,30488,30487,0.017365099862217903,-0.06440281122922897,0.9119817018508911,-0.8386529088020325,11.158390998840332,-1.0278269052505493,1.8848896026611328,3.9758803844451904,0.29147350788116455,-2.514916181564331,0.1777944266796112,2.3601434230804443
98,30498,30497,0.013893588446080685,-0.11719153076410294,1.0521042346954346,-0.43697136640548706,10.663409233093262,-0.9316074252128601,1.885385274887085,3.975529909133911,0.2912808656692505,-2.713839292526245,0.17802336812019348,2.344012498855591
99,30508,30507,0.042453035712242126,-0.21014896035194397,1.0210726261138916,-0.8163400292396545,7.548137187957764,-0.12004093825817108,1.8855351209640503,3.9756054878234863,0.2896077334880829,-2.823385715484619,0.16904564201831818,2.3350160121917725
100,30518,30517,-0.013502832502126694,-0.17144747078418732,1.0454381704330444,-0.377255380153656,3.399650812149048,-0.36382856965065,1.8854851722717285,3.9752910137176514,0.28941595554351807,-2.874347686767578,0.16607147455215454,2.3358476161956787
101,30528,30527,-0.012556328438222408,-0.05677412077784538,1.0054267644882202,-0.32315731048583984,-3.5035312175750732,-0.6692231297492981,1.8839213848114014,3.9757907390594482,0.28936418890953064,-2.787869691848755,0.16750741004943848,2.3418660163879395
102,30538,30537,-0.03190008923411369,0.0003483773034531623,1.0210374593734741,-0.5873562097549438,-4.406715393066406,-0.9203726053237915,1.8833848237991333,3.97579288482666,0.2873753607273102,-2.756291151046753,0.15637299418449402,2.329496145248413
103,30548,30547,0.004145737271755934,-0.011600776575505733,1.045369029045105,-0.17187191545963287,-7.1827802658081055,-0.6120348572731018,1.8828381299972534,3.976459264755249,0.2871543765068054,-2.6718692779541016,0.15316708385944366,2.3223397731781006
104,30558,30557,0.03910559043288231,-0.030515486374497414,0.9366967082023621,1.9636993408203125,-5.969561576843262,-0.5675783157348633,1.8835866451263428,3.9764323234558105,0.28688371181488037,-2.7897582054138184,0.1621815264225006,2.3177459239959717
105,30568,30567,0.04195041581988335,-0.013469320721924305,0.9647257924079895,2.305398941040039,-4.420980930328369,-0.6059630513191223,1.8843708038330078,3.9768471717834473,0.2866015136241913,-2.8340365886688232,0.19239622354507446,2.3124966621398926
106,30578,30577,0.04591595008969307,-0.09298929572105408,1.0791317224502563,-1.0768120288848877,-5.186296463012695,-0.6132354140281677,1.8841807842254639,3.9769952297210693,0.2860546112060547,-2.725419282913208,0.2139279693365097,2.3098151683807373
107,30588,30587,0.000980548094958067,-0.05869203060865402,1.1204664707183838,0.1433943808078766,-7.174995422363281,-0.04367973655462265,1.8835129737854004,3.9765164852142334,0.2858119308948517,-2.604519844055176,0.20542262494564056,2.3066062927246094
108,30598,30597,0.0019393685506656766,0.03189557418227196,0.9833555817604065,-2.3920934200286865,-2.429821491241455,-0.6093403100967407,1.8829678297042847,3.9764575958251953,0.2856323719024658,-2.4858529567718506,0.19299234449863434,2.300920248031616
109,30608,30607,0.007618219591677189,0.16032209992408752,1.0050015449523926,-2.371302843093872,1.2459598779678345,-0.7033964395523071,1.8849660158157349,3.975780963897705,0.28445667028427124,-2.6521217823028564,0.24234427511692047,2.314079523086548
110,30618,30617,-0.02102676033973694,0.07421962171792984,1.1033562421798706,-3.6366307735443115,-3.409700393676758,-0.3309040367603302,1.8844484090805054,3.976320266723633,0.2843482792377472,-2.5840446949005127,0.18717221915721893,2.2978248596191406
111,30628,30627,-0.05401993915438652,0.08602212369441986,1.0531976222991943,-4.175973415374756,-5.620901107788086,-0.8348945379257202,1.8847949504852295,3.9756224155426025,0.28412750363349915,-2.637758731842041,0.11856492608785629,2.2711219787597656
112,30638,30637,-0.017838018015027046,0.08574739843606949,1.038818359375,-3.2199394702911377,-7.853235244750977,-0.007753640878945589,1.8847484588623047,3.9747378826141357,0.2856314480304718,-2.5602643489837646,0.1235160157084465,2.286325454711914
113,30648,30647,0.0006790667539462447,0.0893462523818016,1.1640653610229492,-2.1891090869903564,-13.09750747680664,-0.44356217980384827,1.8840420246124268,3.9757347106933594,0.28583240509033203,-2.3580148220062256,0.05825069919228554,2.2817065715789795
114,30658,30657,-0.0025583531241863966,0.0018797350348904729,1.0478496551513672,-0.09639956802129745,-15.612127304077148,-0.8187035322189331,1.8863166570663452,3.975142002105713,0.28584498167037964,-2.46624493598938,0.10279127210378647,2.2926127910614014
115,30668,30667,-0.039410997182130814,0.052738770842552185,0.9924119710922241,0.12254343926906586,-12.860776901245117,-0.5978125333786011,1.8853330612182617,3.975072145462036,0.288455069065094,-2.144451141357422,0.09273239225149155,2.291816234588623
116,30678,30677,0.01387784630060196,-0.048282165080308914,1.037001609802246,-1.9506093263626099,-11.99974536895752,-0.00820119772106409,1.8870490789413452,3.975083589553833,0.2888108789920807,-2.163102388381958,0.15485776960849762,2.299143075942993
117,30688,30687,0.030404523015022278,-0.20059555768966675,1.0875369310379028,-2.0090768337249756,-13.88154411315918,0.03961534798145294,1.8874036073684692,3.974339246749878,0.28925415873527527,-2.0112831592559814,0.18756908178329468,2.3176276683807373
118,30698,30697,-0.016091523692011833,-0.04258226975798607,1.118708848953247,-2.5222184658050537,-10.636634826660156,-0.7626420855522156,1.8884930610656738,3.974006414413452,0.28969186544418335,-1.940586805343628,0.13054512441158295,2.295933961868286
119,30708,30707,0.03543184697628021,-0.01739516854286194,0.9613732695579529,-3.862590789794922,-9.152263641357422,-0.9093644618988037,1.8894566297531128,3.973940849304199,0.29085278511047363,-1.815536379814148,0.05934660881757736,2.2732763290405273
120,30718,30717,0.059090133756399155,-0.08815509080886841,0.9421320557594299,-6.071639537811279,-7.674641132354736,-0.3997281789779663,1.8893418312072754,3.9740872383117676,0.29158541560173035,-1.648183822631836,0.03868560492992401,2.2763726711273193
121,30728,30727,0.01952931098639965,-0.09410165995359421,0.9934008121490479,-5.179044723510742,-12.624201774597168,-0.3402295708656311,1.8901287317276,3.97304630279541,0.29217854142189026,-1.6343494653701782,-0.007608754560351372,2.271660804748535
122,30738,30737,-0.031166965141892433,-0.13597197830677032,0.988325834274292,-5.560964584350586,-15.35276985168457,0.44306108355522156,1.8917608261108398,3.9724371433258057,0.29477089643478394,-1.6429641246795654,-0.04826485365629196,2.2683136463165283
123,30748,30747,-0.023414921015501022,-0.1814439743757248,1.0108089447021484,-4.2679524421691895,-10.595224380493164,-0.2008761316537857,1.8927240371704102,3.9723401069641113,0.29545941948890686,-1.5360760688781738,-0.14975705742835999,2.2531161308288574
124,30758,30757,0.0027399209793657064,-0.030133206397294998,1.0184333324432373,-3.5300452709198,-12.18232250213623,-0.41080620884895325,1.8926831483840942,3.9723360538482666,0.2963276505470276,-1.2931649684906006,-0.23659296333789825,2.247028350830078
125,30768,30767,0.05244206264615059,-0.11256711184978485,1.004591703414917,-1.9458500146865845,-12.521482467651367,-0.24887248873710632,1.8932915925979614,3.9720571041107178,0.29705339670181274,-1.0756521224975586,-0.3334161639213562,2.233724355697632
126,30778,30777,0.02800770290195942,-0.17158624529838562,1.0131263732910156,0.07493314892053604,-12.823518753051758,-1.094871997833252,1.8960611820220947,3.972060203552246,0.29768627882003784,-1.2475254535675049,-0.267414927482605,2.244980812072754
127,30788,30787,0.011504298076033592,-0.15454070270061493,0.9279544353485107,1.7912319898605347,-12.28010368347168,-1.1389764547348022,1.8959096670150757,3.9714930057525635,0.29863110184669495,-0.8510658144950867,-0.18849657475948334,2.2455899715423584
128,30798,30797,0.040202461183071136,-0.1439022421836853,0.9103446006774902,1.582886815071106,-13.02387523651123,-1.4603317975997925,1.8978875875473022,3.972332000732422,0.29931893944740295,-0.942122220993042,-0.2711194157600403,2.2259607315063477
129,30808,30807,0.041592299938201904,-0.08734383434057236,0.947278618812561,0.35285356640815735,-13.48531436920166,-1.2580509185791016,1.8986036777496338,3.9721570014953613,0.30067628622055054,-0.8141876459121704,-0.25441285967826843,2.213641881942749
130,30818,30817,-0.027059689164161682,-0.0003633155720308423,1.018903374671936,-0.15626563131809235,-13.763312339782715,-1.3155025243759155,1.8987864255905151,3.9723219871520996,0.3014862835407257,-0.5227378606796265,-0.25610560178756714,2.2007975578308105
131,30828,30827,0.014658038504421711,-0.1670970767736435,1.006569743156433,-1.0040010213851929,-13.452621459960938,-1.7283653020858765,1.9006997346878052,3.971461534500122,0.3021010756492615,-0.32637104392051697,-0.27167898416519165,2.1684372425079346
132,30838,30837,-0.02137812227010727,-0.09839079529047012,0.9440761804580688,-0.8314399719238281,-10.138872146606445,-2.7183544635772705,1.90155029296875,3.970792531967163,0.3039008677005768,-0.2568052113056183,-0.20476074516773224,2.1773321628570557
133,30848,30847,-0.02569994516670704,0.07163617759943008,0.9146137833595276,-1.5111052989959717,-5.664396286010742,-3.094252824783325,1.9025007486343384,3.9712603092193604,0.3046317994594574,-0.11150339245796204,-0.15887972712516785,2.162503957748413
134,30858,30857,-0.022649016231298447,0.06678825616836548,0.9427223205566406,-2.394045114517212,-4.006718635559082,-2.913513660430908,1.905153751373291,3.97143292427063,0.30523160099983215,-0.19569465517997742,-0.2086559534072876,2.129340410232544
135,30868,30867,-0.009134242311120033,0.1071319580078125,0.8970954418182373,-1.9445152282714844,-1.8927958011627197,-3.819438934326172,1.9052884578704834,3.9714033603668213,0.30328673124313354,-0.05936522036790848,-0.2862691283226013,2.0600523948669434
136,30878,30877,-0.0228248443454504,0.12131701409816742,0.9824113845825195,-2.8862857818603516,-0.45742976665496826,-3.4844679832458496,1.9058257341384888,3.9703683853149414,0.3037366569042206,0.036800310015678406,-0.2634912431240082,2.02652645111084
137,30888,30887,-0.0823664590716362,0.07248347997665405,1.0927627086639404,-1.136541485786438,-6.750673294067383,-3.4229516983032227,1.9072237014770508,3.971365451812744,0.3040984570980072,0.035776298493146896,-0.36655429005622864,2.0243897438049316
138,30898,30897,-0.08261801302433014,0.007030466105788946,1.0686227083206177,-0.3118331730365753,-9.51466178894043,-3.5422520637512207,1.9083069562911987,3.9707045555114746,0.3045195937156677,0.10730808973312378,-0.23941540718078613,1.9910838603973389
139,30908,30907,-0.03152154013514519,0.02230684645473957,1.019888997077942,-0.49369797110557556,-5.476529121398926,-3.3101086616516113,1.9097864627838135,3.970672845840454,0.3068549931049347,0.19637995958328247,-0.2660598158836365,1.9560779333114624
140,30918,30917,0.01803051121532917,-0.00436242064461112,0.9683864116668701,-0.6942315101623535,-5.266420364379883,-3.1490185260772705,1.91147780418396,3.970442056655884,0.30739372968673706,0.18238569796085358,-0.2897189259529114,1.9233753681182861
141,30928,30927,-0.011625539511442184,-0.011449720710515976,0.9908465147018433,-1.9303088188171387,-4.0846734046936035,-3.1934609413146973,1.9115417003631592,3.970500946044922,0.3081050217151642,0.39455097913742065,-0.31912484765052795,1.8909766674041748
142,30938,30937,0.033099912106990814,0.045172594487667084,0.984237790107727,-2.2060210704803467,-1.761055827140808,-3.814669370651245,1.9137428998947144,3.9704344272613525,0.307297945022583,0.33404257893562317,-0.3579310476779938,1.862112283706665
143,30948,30947,-0.019432367756962776,0.0796239972114563,1.0293033123016357,-2.4228854179382324,-1.9847699403762817,-3.5885870456695557,1.9150089025497437,3.970771312713623,0.307709664106369,0.344138503074646,-0.40368685126304626,1.829285740852356
144,30958,30957,-0.0433284230530262,0.03853708878159523,1.0320583581924438,-1.200425148010254,-1.8670878410339355,-4.448627948760986,1.91488516330719,3.9706811904907227,0.30825525522232056,0.5033971667289734,-0.4459822177886963,1.790643334388733
145,30968,30967,-0.045993611216545105,-0.008180401287972927,0.9530293345451355,0.3893124759197235,-0.7314208149909973,-4.872637748718262,1.9166220426559448,3.9693775177001953,0.3104916512966156,0.40213558077812195,-0.3875857889652252,1.7428622245788574
146,30978,30977,-0.024167917668819427,-0.02081005647778511,0.9256439805030823,1.7176975011825562,-0.8603872656822205,-4.406450271606445,1.9166125059127808,3.969296455383301,0.3111686110496521,0.5420324802398682,-0.3870505690574646,1.6948636770248413
147,30988,30987,-0.021059077233076096,0.032207708805799484,0.9759820103645325,2.5279393196105957,-1.0086874961853027,-3.8405497074127197,1.9175419807434082,3.9699461460113525,0.3118104934692383,0.5908137559890747,-0.4444831311702728,1.6597944498062134
148,30998,30997,0.005830247886478901,0.009159952402114868,0.9609270691871643,3.2834417819976807,-0.9707709550857544,-3.9877359867095947,1.9197039604187012,3.9704113006591797,0.3122726082801819,0.4754643440246582,-0.39776670932769775,1.6211731433868408
149,31008,31007,0.039955172687768936,-0.07754605263471603,0.958961009979248,3.123944044113159,1.5245497226715088,-3.6625144481658936,1.9200748205184937,3.9691293239593506,0.3144923150539398,0.5883897542953491,-0.266742467880249,1.5672107934951782
150,31018,31017,0.06678294390439987,-0.12082035094499588,1.005526065826416,1.9655135869979858,2.2571122646331787,-3.7652978897094727,1.920873999595642,3.9688761234283447,0.3149911165237427,0.5096244812011719,-0.22673764824867249,1.5330852270126343
151,31028,31027,0.07713839411735535,-0.1514497548341751,0.9877152442932129,0.39269453287124634,3.4129996299743652,-4.115739822387695,1.92207932472229,3.9702534675598145,0.31554296612739563,0.5042292475700378,-0.36122655868530273,1.519507646560669
152,31038,31037,0.018415091559290886,-0.04323399066925049,0.9943717122077942,-0.8994875550270081,3.269792318344116,-4.478179454803467,1.922627329826355,3.9699440002441406,0.318545937538147,0.4785320460796356,-0.35152459144592285,1.480607509613037
153,31048,31047,0.020298844203352928,-0.046446509659290314,0.9354639649391174,-0.9841201305389404,4.770163536071777,-4.679337978363037,1.9230483770370483,3.970885753631592,0.319263756275177,0.5313513875007629,-0.36006200313568115,1.442571997642517
154,31058,31057,0.02837693691253662,-0.031256053596735,0.9217049479484558,0.6153902411460876,4.914840221405029,-4.408661365509033,1.9232844114303589,3.9709064960479736,0.3199521601200104,0.5794854164123535,-0.3663683533668518,1.3949614763259888
155,31068,31067,0.02242656983435154,-0.03580296039581299,0.9403239488601685,1.576850414276123,3.705669403076172,-3.563839912414551,1.9237468242645264,3.9703497886657715,0.3217071294784546,0.53826504945755,-0.34802132844924927,1.3462979793548584
156,31078,31077,0.05170666426420212,-0.06338898092508316,0.9426975250244141,4.433332443237305,5.1638264656066895,-3.631344795227051,1.9246635437011719,3.969493865966797,0.32232117652893066,0.4911530613899231,-0.29843011498451233,1.3034353256225586
157,31088,31087,0.043788835406303406,-0.07809656113386154,0.9238955974578857,5.641053199768066,1.8901963233947754,-3.5837414264678955,1.9258593320846558,3.9700429439544678,0.3228975534439087,0.44270533323287964,-0.21619613468647003,1.2608222961425781
158,31098,31097,-0.021812424063682556,-0.01104208454489708,0.9793282151222229,4.604175090789795,3.0195417404174805,-3.1430435180664062,1.9256880283355713,3.9690821170806885,0.3223103880882263,0.4855290949344635,-0.1277867555618286,1.2150863409042358
159,31108,31107,-0.024011464789509773,0.007979419082403183,0.9929097890853882,3.0213279724121094,3.8990085124969482,-2.9440505504608154,1.926601767539978,3.9687438011169434,0.32270675897598267,0.4307825267314911,-0.057528939098119736,1.1797791719436646
160,31118,31117,0.013194570317864418,-0.016321858391165733,0.9330146908760071,1.8669146299362183,5.20550012588501,-3.0911166667938232,1.9264744520187378,3.9682199954986572,0.3230929374694824,0.4407903552055359,-0.012479390949010849,1.1475225687026978
161,31128,31127,-0.0026981178671121597,-0.09506520628929138,0.9334225058555603,0.17308379709720612,5.358117580413818,-3.143817186355591,1.9269914627075195,3.9688973426818848,0.3234752416610718,0.43544337153434753,-0.07191676646471024,1.1300452947616577
162,31138,31137,-0.04950818419456482,-0.1817081868648529,0.9370797276496887,-1.9984086751937866,3.1400976181030273,-3.122983694076538,1.9272314310073853,3.9686264991760254,0.32211732864379883,0.3470818102359772,-0.0727713480591774,1.1010750532150269
163,31148,31147,-0.04759790748357773,-0.0800701454281807,0.9703053832054138,-2.7151849269866943,6.875753402709961,-2.6938114166259766,1.9281337261199951,3.9694573879241943,0.32228514552116394,0.32895150780677795,-0.10374681651592255,1.0790995359420776
164,31158,31157,-0.09500329941511154,0.04145302623510361,0.9806288480758667,-2.47782039642334,6.641621112823486,-2.9243781566619873,1.928695559501648,3.9695041179656982,0.3224067687988281,0.28129008412361145,-0.14971056580543518,1.0492593050003052
165,31168,31167,0.005220765247941017,-0.02283543162047863,0.9667189121246338,-0.9646766781806946,5.602133750915527,-1.8300893306732178,1.9314390420913696,3.968799352645874,0.32087159156799316,-0.005187734495848417,-0.10241613537073135,1.006529450416565
166,31178,31177,0.045267343521118164,-0.03706704080104828,0.9581778645515442,0.8646223545074463,3.3683764934539795,-1.972778081893921,1.9309605360031128,3.9686853885650635,0.3209393620491028,0.06255413591861725,-0.11585250496864319,0.9843500256538391
167,31188,31187,0.01576484739780426,-0.012699984014034271,0.9624515175819397,3.0149898529052734,5.959873676300049,-2.7523343563079834,1.9309353828430176,3.9679038524627686,0.3208972215652466,0.06417915970087051,-0.09132903814315796,0.9594508409500122
168,31198,31197,-0.021794185042381287,0.015230956487357616,0.9822191596031189,4.178279399871826,-1.5666526556015015,-2.061323881149292,1.9316388368606567,3.9681591987609863,0.3198787569999695,-0.003813863731920719,-0.1186423972249031,0.9383968710899353
169,31208,31207,-0.06848292797803879,0.06465788930654526,1.0903782844543457,4.469124794006348,1.6431171894073486,-2.1446380615234375,1.9318020343780518,3.967606544494629,0.31978729367256165,0.06870134174823761,-0.04356152564287186,0.912952184677124
170,31218,31217,0.0028160850051790476,-0.0068757240660488605,1.0018635988235474,3.4071404933929443,2.3833465576171875,-2.0013890266418457,1.9318630695343018,3.9669883251190186,0.31967732310295105,0.11017182469367981,0.02770104631781578,0.8896750211715698
171,31228,31227,-0.034216299653053284,0.07062815129756927,0.9636712074279785,2.2060253620147705,2.770686626434326,-2.131298780441284,1.9336910247802734,3.9668350219726562,0.3195244371891022,-0.026003815233707428,0.07530639320611954,0.8670757412910461
172,31238,31237,-0.020706944167613983,0.063802070915699,0.9785504341125488,-0.6626453995704651,5.6299591064453125,-1.9751840829849243,1.933876633644104,3.9670917987823486,0.32028526067733765,-0.020069465041160583,0.09297757595777512,0.8470804691314697
173,31248,31247,0.014878670684993267,0.13363862037658691,0.9669222831726074,-1.562665581703186,7.166540145874023,-1.9701285362243652,1.934253454208374,3.9667129516601562,0.3202052414417267,-0.05506548285484314,0.07661860436201096,0.8278197646141052
174,31258,31257,0.04139789193868637,-0.09839709103107452,0.9505887627601624,-2.734553337097168,5.815859794616699,-1.4707727432250977,1.9348684549331665,3.9672982692718506,0.3201320767402649,-0.09465969353914261,0.037413276731967926,0.8125572800636292
175,31268,31267,0.017451807856559753,-0.04707719013094902,0.9765107035636902,-2.3190011978149414,6.692178726196289,-1.3239954710006714,1.9364556074142456,3.9673898220062256,0.31923747062683105,-0.2953513264656067,-0.010560743510723114,0.7957069873809814
176,31278,31277,-0.04439297690987587,-0.10709237307310104,1.0497324466705322,-1.8449432849884033,6.324380874633789,-1.7264944314956665,1.9369454383850098,3.967430830001831,0.3190678656101227,-0.30511143803596497,-0.04930512234568596,0.785614013671875
177,31288,31287,-0.08082590252161026,-0.04027971252799034,1.0504223108291626,-0.015650920569896698,0.700192928314209,-0.9275771975517273,1.9367291927337646,3.9669833183288574,0.31891965866088867,-0.31186580657958984,-0.07773086428642273,0.7686779499053955
178,31298,31297,-0.05607010796666145,-0.02603924833238125,1.0180150270462036,2.2248411178588867,1.5045051574707031,-0.6313702464103699,1.9361608028411865,3.966609477996826,0.3205862045288086,-0.28494465351104736,-0.0692133679986,0.7582343816757202
179,31308,31307,0.025266539305448532,-0.06614973396062851,1.0099244117736816,1.0920885801315308,1.5973695516586304,-0.8617061972618103,1.9379736185073853,3.9662866592407227,0.32055336236953735,-0.41470709443092346,-0.038203511387109756,0.7489999532699585
180,31318,31317,0.05077694356441498,-0.05289280414581299,0.9742820262908936,2.7023794651031494,-0.7207049131393433,-1.2577868700027466,1.9380978345870972,3.966158151626587,0.32064417004585266,-0.35890981554985046,-0.00386482710018754,0.7392786741256714
181,31328,31327,-0.007682367227971554,-0.014641069807112217,0.9758910536766052,2.3248612880706787,-1.199100136756897,-0.8755443692207336,1.9382009506225586,3.9656565189361572,0.3230992257595062,-0.29553988575935364,0.040931787341833115,0.7284583449363708
182,31338,31337,-0.001731294090859592,-0.044622600078582764,0.9675262570381165,1.9055912494659424,-1.0268937349319458,-0.4775051772594452,1.9386924505233765,3.9652466773986816,0.3232552409172058,-0.2976250648498535,0.07816752791404724,0.7173830270767212
183,31348,31347,-0.0001758303988026455,-0.02792767807841301,0.9997099041938782,0.7950722575187683,-0.8039831519126892,-0.7041670083999634,1.9381624460220337,3.964679718017578,0.3234279751777649,-0.2164551466703415,0.10320112854242325,0.7135617136955261
184,31358,31357,0.024099940434098244,-0.0608629509806633,0.9343636631965637,-0.735415518283844,1.8999055624008179,-0.6257572770118713,1.9393208026885986,3.9650402069091797,0.3235490322113037,-0.2514267861843109,0.10443767160177231,0.7122274041175842
185,31368,31367,0.010417859070003033,0.035309724509716034,0.9460430145263672,-1.6611367464065552,4.371779918670654,-0.4264071583747864,1.9399391412734985,3.9651756286621094,0.3224150538444519,-0.37929531931877136,0.08605426549911499,0.6995871067047119
186,31378,31377,0.026920216158032417,0.0017380672506988049,0.9546300768852234,-2.849478244781494,5.44563627243042,-0.17576810717582703,1.940460443496704,3.9660840034484863,0.32241058349609375,-0.37171465158462524,-0.02614150196313858,0.6975818276405334
187,31388,31387,0.013235880993306637,0.06532814353704453,1.0029065608978271,-2.607051134109497,4.58186149597168,-0.33242473006248474,1.9408096075057983,3.9656412601470947,0.3223569393157959,-0.46484318375587463,0.007765601389110088,0.6941049695014954
188,31398,31397,-0.007731931284070015,0.03259213641285896,1.0069769620895386,-0.6276919841766357,4.231534481048584,-0.9558761119842529,1.9411510229110718,3.9653940200805664,0.3221823275089264,-0.4687618911266327,-0.025564325973391533,0.6915020942687988
189,31408,31407,-0.03072594478726387,-0.1489735245704651,1.0331982374191284,0.2661972939968109,-0.23562851548194885,-0.09792289137840271,1.9421136379241943,3.9648866653442383,0.3220534324645996,-0.5313721299171448,-0.035603493452072144,0.6775854825973511
190,31418,31417,-0.0898505449295044,-0.12821005284786224,1.0758881568908691,1.8561999797821045,-1.6122242212295532,-0.19482898712158203,1.9436331987380981,3.9650399684906006,0.32187503576278687,-0.6327080726623535,-0.02324959635734558,0.6723055839538574
191,31428,31427,-0.05457628145813942,-0.03919138014316559,1.0397896766662598,1.6907093524932861,0.19061428308486938,-0.6621696352958679,1.9438310861587524,3.964901924133301,0.31759727001190186,-0.5500299334526062,0.005681527312844992,0.6704492568969727
192,31438,31437,-0.001913581509143114,-0.028853055089712143,0.9863829016685486,0.9140702486038208,-1.159737467765808,-0.4541539251804352,1.9448217153549194,3.963982582092285,0.3172769844532013,-0.6287895441055298,0.03401068225502968,0.6554800271987915
193,31448,31447,0.007245913147926331,0.0016333129024133086,1.0175153017044067,0.9815630316734314,-2.9508163928985596,-0.4774365723133087,1.9454524517059326,3.963871717453003,0.31704095005989075,-0.5943617224693298,0.05529292672872543,0.6516804099082947
194,31458,31457,-0.004814906511455774,0.015495305880904198,1.0169248580932617,-0.5101346969604492,-3.3824236392974854,0.012766480445861816,1.9462573528289795,3.9638311862945557,0.31683433055877686,-0.5365938544273376,0.05958555266261101,0.6495847105979919
195,31468,31467,0.022194238379597664,-0.047226496040821075,0.9736586213111877,-1.4940555095672607,-3.5874407291412354,0.001524602179415524,1.9466631412506104,3.9639198780059814,0.3152638077735901,-0.4658573567867279,0.043611809611320496,0.649622917175293
196,31478,31477,-0.01023476105183363,0.007641456089913845,1.0369610786437988,-2.735069990158081,-2.5416316986083984,-0.45831117033958435,1.9473828077316284,3.963904857635498,0.31495264172554016,-0.3997960686683655,0.01337418518960476,0.6479828953742981
197,31488,31487,0.028053617104887962,-0.018955182284116745,0.9543737173080444,-2.3148629665374756,-0.5087926983833313,-0.29017552733421326,1.9471515417099,3.9636900424957275,0.31467726826667786,-0.2795933783054352,-0.024563729763031006,0.6463049650192261
198,31498,31497,0.030233317986130714,-0.05547882616519928,0.9355752468109131,-2.8435328006744385,2.1717581748962402,0.004836065694689751,1.94874107837677,3.963912010192871,0.31383949518203735,-0.35455045104026794,-0.06644704937934875,0.6390088200569153
199,31508,31507,0.07988981902599335,-0.18568843603134155,0.9453999400138855,-0.8268057703971863,1.6121680736541748,0.02208305150270462,1.950758934020996,3.9638171195983887,0.3133234679698944,-0.5302304625511169,-0.09123697131872177,0.6325846910476685
200,31518,31517,0.019413063302636147,-0.1191948726773262,1.0203536748886108,3.091407060623169,4.717003345489502,-1.2502237558364868,1.9510188102722168,3.963860511779785,0.31292906403541565,-0.476658433675766,-0.1634531170129776,0.625640869140625
201,31528,31527,-0.004420862998813391,-0.0463317409157753,1.0366177558898926,2.455594062805176,-2.3554768562316895,0.14943519234657288,1.9513245820999146,3.9634475708007812,0.31235969066619873,-0.4416157007217407,-0.11721691489219666,0.6121641397476196
202,31538,31537,-0.022977516055107117,-0.20434845983982086,1.0437617301940918,4.806053638458252,3.1951959133148193,-0.1271970570087433,1.952095627784729,3.9629709720611572,0.3119361102581024,-0.4385247230529785,-0.05850989744067192,0.6125669479370117
203,31548,31547,0.011961386539041996,-0.07254400104284286,0.9604194164276123,5.615082740783691,6.057458400726318,0.09686505794525146,1.952610731124878,3.963308572769165,0.3115805983543396,-0.3957980275154114,-0.05001311004161835,0.6119974851608276
204,31558,31557,0.10026536881923676,0.004987552296370268,0.9341705441474915,3.5816330909729004,5.066489219665527,-0.351714164018631,1.9542427062988281,3.9637396335601807,0.3111306130886078,-0.5357390642166138,0.03920691832900047,0.6224496364593506
205,31568,31567,0.08611148595809937,-0.06990036368370056,1.000228762626648,1.0664100646972656,0.3812125027179718,-0.3188253939151764,1.954919457435608,3.962660312652588,0.3124001622200012,-0.5639620423316956,0.09555081278085709,0.6144911050796509
206,31578,31577,0.02491864562034607,-0.08095818758010864,1.033219814300537,0.5998491644859314,-3.636399030685425,0.2679761052131653,1.955694317817688,3.9627277851104736,0.3120720386505127,-0.5305277705192566,0.12330125272274017,0.613838255405426
207,31588,31587,-0.02075483277440071,-0.02084977552294731,1.0268265008926392,0.15014490485191345,-3.696268081665039,0.38550126552581787,1.9546818733215332,3.9626429080963135,0.31189072132110596,-0.38893234729766846,0.1297711282968521,0.6184488534927368
208,31598,31597,-0.0161737073212862,0.05389010161161423,0.9961254596710205,-1.6046620607376099,-4.252638816833496,0.6332146525382996,1.956679105758667,3.962340831756592,0.3113258481025696,-0.47760528326034546,0.114887535572052,0.6115952730178833
209,31608,31607,0.001555733266286552,0.09394482523202896,1.110903024673462,-2.7272400856018066,-3.4808828830718994,1.0502257347106934,1.9577865600585938,3.9629933834075928,0.3109775483608246,-0.4773992896080017,0.008575948886573315,0.6122265458106995
210,31618,31617,-0.0012277556816115975,0.08495988696813583,1.10519540309906,-2.156572103500366,-1.406063437461853,0.2340078353881836,1.9595112800598145,3.963108777999878,0.31068190932273865,-0.49116843938827515,-0.019358964636921883,0.6200842261314392
211,31628,31627,-0.012260991148650646,0.008510278537869453,1.0451315641403198,-0.009041275829076767,0.8052771091461182,0.8887293934822083,1.9602280855178833,3.9617791175842285,0.31044483184814453,-0.3835616409778595,-0.03612622246146202,0.603646457195282
212,31638,31637,-0.01173569168895483,-0.012295116670429707,1.0415202379226685,1.4854657649993896,0.8848603963851929,0.7569907903671265,1.9616572856903076,3.96199631690979,0.31029048562049866,-0.45844489336013794,-0.022018037736415863,0.6107221841812134
213,31648,31647,0.013549339026212692,-0.014774436131119728,1.0385746955871582,2.17059588432312,-0.27911698818206787,1.2234026193618774,1.96302330493927,3.9618513584136963,0.3101612627506256,-0.52652907371521,0.01675311289727688,0.6118274927139282
214,31658,31657,-0.006510320119559765,-0.03530813008546829,1.0568082332611084,3.0747954845428467,-0.9255339503288269,0.06616252660751343,1.962984323501587,3.96144962310791,0.31116941571235657,-0.4272357225418091,0.06542208045721054,0.6238316893577576
215,31668,31667,0.007037017494440079,-0.10941468924283981,1.0524381399154663,3.4786877632141113,-5.578288555145264,0.5829379558563232,1.962968111038208,3.9609081745147705,0.31134843826293945,-0.30497613549232483,0.1271505355834961,0.6267330050468445
216,31678,31677,0.02142222411930561,-0.05013589188456535,1.0251376628875732,3.4571356773376465,3.788896083831787,-0.5378106236457825,1.9650979042053223,3.9605395793914795,0.31143718957901,-0.39315730333328247,0.18609723448753357,0.6279634237289429
217,31688,31687,0.07348710298538208,0.011212117038667202,0.9440360069274902,3.855578899383545,-2.5729620456695557,0.5650650858879089,1.9656577110290527,3.9609744548797607,0.3116472363471985,-0.34990203380584717,0.17211642861366272,0.6255612969398499
218,31698,31697,0.04206501692533493,0.015136326663196087,0.9490640163421631,-0.5247754454612732,-3.273197650909424,0.30565428733825684,1.9670610427856445,3.961561918258667,0.31259608268737793,-0.35035404562950134,0.1497620940208435,0.6272252202033997
219,31708,31707,0.08933306485414505,-0.1303507536649704,0.9959560632705688,-3.4509408473968506,-2.0922110080718994,0.7527439594268799,1.9697117805480957,3.961122512817383,0.31258663535118103,-0.5036592483520508,0.22588033974170685,0.6312046647071838
220,31718,31717,0.028242498636245728,-0.07320989668369293,1.0163071155548096,-3.38105845451355,-2.2342982292175293,-0.14145614206790924,1.9702484607696533,3.9606471061706543,0.3128122091293335,-0.41304436326026917,0.17762413620948792,0.6333001255989075
221,31728,31727,-0.004909788258373737,-0.08109299838542938,0.9211211800575256,-3.715830087661743,-3.6802260875701904,-0.12576106190681458,1.970863699913025,3.961308002471924,0.313041627407074,-0.3198622763156891,0.1279265135526657,0.6451914310455322
222,31738,31737,0.0050759646110236645,-0.10755860060453415,0.9565334320068359,-2.3824634552001953,-5.104475975036621,0.6753654479980469,1.9726279973983765,3.9604759216308594,0.31309667229652405,-0.36864355206489563,0.1500130444765091,0.6354328393936157
223,31748,31747,0.010665850713849068,-0.05515468865633011,1.002253532409668,-1.3337994813919067,-5.462780475616455,0.37644699215888977,1.973384976387024,3.9599180221557617,0.3132765591144562,-0.24230322241783142,0.10742005705833435,0.6306394338607788
224,31758,31757,0.03416566550731659,-0.11164321005344391,1.0433133840560913,0.0784030482172966,-6.3229193687438965,0.665859580039978,1.9731554985046387,3.959394693374634,0.3164011240005493,-0.03556190803647041,0.16710355877876282,0.6477752923965454
225,31768,31767,0.053276363760232925,-0.055743344128131866,0.9829899668693542,2.0475571155548096,-1.2921391725540161,-1.0190036296844482,1.9757977724075317,3.9598023891448975,0.3165937662124634,-0.15007032454013824,0.09098546206951141,0.6472299695014954
226,31778,31777,-0.0014349475968629122,0.0394701212644577,0.9412164688110352,0.7873920202255249,-0.7096664309501648,-0.6006615161895752,1.9764281511306763,3.9597771167755127,0.3169265687465668,-0.06171474605798721,0.10874411463737488,0.6456441283226013
227,31788,31787,0.0449029915034771,-0.04843128100037575,0.8909221887588501,1.134555459022522,2.5275609493255615,-0.3362797498703003,1.976501703262329,3.959416151046753,0.31720542907714844,-0.0024747559800744057,0.11687055975198746,0.6367952227592468
228,31798,31797,0.006385749205946922,-0.018604306504130363,0.9433100819587708,0.925589382648468,0.0010596637148410082,-0.20291760563850403,1.979567527770996,3.9593846797943115,0.31717491149902344,-0.21586696803569794,0.12921242415905,0.6269264221191406
229,31808,31807,0.08715537935495377,-0.1584463268518448,0.9857534170150757,-1.0211387872695923,2.461226224899292,-0.017396464943885803,1.9803061485290527,3.9590203762054443,0.31731486320495605,-0.17917400598526,0.133137047290802,0.6214295029640198
230,31818,31817,0.10317887365818024,-0.17239615321159363,1.0093116760253906,-1.543870210647583,-1.3384904861450195,-0.25018033385276794,1.981829285621643,3.958901882171631,0.3173445761203766,-0.22230719029903412,0.11730607599020004,0.6216201186180115
231,31828,31827,0.04778563976287842,-0.12182316929101944,0.9718560576438904,-2.125105381011963,-4.557907581329346,0.4590967893600464,1.9817713499069214,3.9589922428131104,0.3188072144985199,-0.06380758434534073,0.09164171665906906,0.6240239143371582
232,31838,31837,-0.008837074972689152,-0.24859236180782318,0.9525743126869202,-1.1184868812561035,-5.701827049255371,0.8901804089546204,1.9817707538604736,3.958831548690796,0.3190591335296631,0.05359181761741638,0.05748148262500763,0.6296905279159546
233,31848,31847,-0.010478620417416096,-0.15992100536823273,0.9507131576538086,-0.8660276532173157,-4.997076988220215,0.9478000998497009,1.9837846755981445,3.959378480911255,0.3191249668598175,0.02418951317667961,0.03612855076789856,0.6438189744949341
234,31858,31857,0.029624244198203087,-0.09722090512514114,0.9572669863700867,-0.8030787706375122,-4.279539108276367,1.5563199520111084,1.9861947298049927,3.9588685035705566,0.3200770616531372,-0.0773867592215538,0.09952431172132492,0.6561091542243958
235,31868,31867,0.08568114042282104,-0.13985013961791992,1.027002215385437,-0.33347582817077637,-4.055224895477295,1.1390997171401978,1.9859764575958252,3.9584951400756836,0.32035261392593384,0.13106735050678253,0.08795176446437836,0.6662135124206543
236,31878,31877,0.06280340999364853,-0.09240195155143738,0.9934530258178711,-0.4163440763950348,-3.730764389038086,0.6749876141548157,1.988321304321289,3.9584338665008545,0.3203097879886627,-0.0023334973957389593,0.0739288181066513,0.6718112230300903
237,31888,31887,0.03909356892108917,-0.12626194953918457,0.9754555821418762,-0.993304431438446,-2.8273463249206543,0.6359199285507202,1.9880414009094238,3.9575798511505127,0.32059645652770996,0.17891724407672882,0.13483621180057526,0.6757349371910095
238,31898,31897,-0.0003669575962703675,-0.06953480839729309,1.0068248510360718,-0.6844170689582825,-1.5008485317230225,-0.009917227551341057,1.9897677898406982,3.9578700065612793,0.32369861006736755,0.1778021603822708,0.10560572147369385,0.6821162104606628
239,31908,31907,0.0459597073495388,-0.04066859185695648,0.9397192001342773,-0.4127117395401001,1.5974576473236084,-0.2867657244205475,1.9906729459762573,3.9573826789855957,0.3239456117153168,0.14414677023887634,0.08102202415466309,0.6736007928848267
240,31918,31917,0.07589862495660782,-0.011217980645596981,0.8864083886146545,-0.613233745098114,0.35188305377960205,0.41672658920288086,1.9905012845993042,3.9574217796325684,0.3243097960948944,0.2738313376903534,0.06356759369373322,0.6756237745285034
241,31928,31927,0.11344213783740997,-0.039915185421705246,0.8996961712837219,-1.7826741933822632,-1.835608959197998,1.1483749151229858,1.9903478622436523,3.9563937187194824,0.3258207142353058,0.4026062488555908,0.11620470881462097,0.6788222789764404
242,31938,31937,0.050587158650159836,-0.021123209968209267,0.9920054078102112,-2.6456587314605713,-3.995522975921631,1.2975430488586426,1.9928184747695923,3.9554643630981445,0.3258638083934784,0.23222506046295166,0.1461893618106842,0.675711989402771
243,31948,31947,-0.00781936477869749,-0.14580440521240234,0.9872977137565613,-2.1563990116119385,-4.515546798706055,1.4206068515777588,1.9941611289978027,3.9556684494018555,0.32593467831611633,0.2436688244342804,0.09011407941579819,0.69632488489151
244,31958,31957,-0.04414943605661392,-0.1365378051996231,0.975448727607727,-2.7702279090881348,-4.477031707763672,1.2349003553390503,1.9939353466033936,3.956399440765381,0.3246813714504242,0.40532931685447693,0.037661291658878326,0.7292155623435974
245,31968,31967,-0.1123998612165451,-0.004024364985525608,0.9724902510643005,-3.2743546962738037,-2.0906407833099365,1.228840947151184,1.9945199489593506,3.956545829772949,0.324645459651947,0.4567451775074005,-0.02369135618209839,0.7465577721595764
246,31978,31977,-0.12439370155334473,0.11128461360931396,0.9817479848861694,-3.4841792583465576,-0.1789323091506958,1.3068708181381226,1.9958980083465576,3.95723557472229,0.3245561122894287,0.4002377986907959,-0.09125030040740967,0.7718627452850342
247,31988,31987,-0.06955161690711975,0.08342575281858444,0.9684840440750122,-3.28468918800354,1.2052597999572754,1.148095726966858,1.9975711107254028,3.956584930419922,0.3256300687789917,0.31510475277900696,-0.07925230264663696,0.7788516283035278
248,31998,31997,-0.05242357775568962,0.0707663744688034,1.042520523071289,-2.2438161373138428,1.980526089668274,1.4855612516403198,1.9979106187820435,3.956881284713745,0.32565709948539734,0.3743731677532196,-0.14124028384685516,0.7933552861213684
249,32008,32007,-0.03238370269536972,0.04670974984765053,1.0557044744491577,-0.6620126366615295,3.572056770324707,1.584625482559204,1.9989562034606934,3.957033157348633,0.3256368935108185,0.3432592749595642,-0.17651547491550446,0.8085648417472839
250,32018,32017,-0.028776245191693306,0.04257655888795853,1.0055863857269287,0.3274874985218048,1.5324194431304932,1.0286849737167358,1.9999263286590576,3.956326723098755,0.3256562352180481,0.3108609914779663,-0.11206265538930893,0.8171444535255432
251,32028,32027,-0.0399819016456604,0.13840393722057343,0.9752057790756226,0.7745071053504944,2.7263436317443848,0.887265145778656,2.000570774078369,3.956319808959961,0.3219287097454071,0.2999662160873413,-0.12354984134435654,0.837331235408783
252,32038,32037,-0.004654941614717245,0.20071516931056976,0.9373216032981873,0.39485952258110046,3.290236711502075,0.7762667536735535,2.0012998580932617,3.956287384033203,0.3217296898365021,0.29474958777427673,-0.12545305490493774,0.8500848412513733
253,32048,32047,0.021001679822802544,0.18437378108501434,0.9112550020217896,0.49323028326034546,3.89092755317688,0.8616138696670532,2.0014758110046387,3.9561445713043213,0.32154518365859985,0.3651108741760254,-0.1341649293899536,0.8557316660881042
254,32058,32057,0.090777687728405,0.042280860245227814,0.8990457057952881,-0.367213636636734,3.694991111755371,1.0737441778182983,2.001352071762085,3.95656418800354,0.32296398282051086,0.41854235529899597,-0.1384514719247818,0.878311276435852
255,32068,32067,0.06145700812339783,-0.029677486047148705,1.0060899257659912,-1.6643035411834717,3.9066383838653564,1.068984031677246,2.002429723739624,3.956554412841797,0.3226860463619232,0.38481977581977844,-0.15286611020565033,0.8895341753959656
256,32078,32077,0.02601774036884308,-0.14415955543518066,0.9941842555999756,-1.9389930963516235,3.430598258972168,0.8080337643623352,2.0040879249572754,3.956664562225342,0.32231709361076355,0.2685026228427887,-0.18262383341789246,0.902951180934906
257,32088,32087,-0.030508236959576607,-0.17167392373085022,0.9862313866615295,-1.5673716068267822,3.979295253753662,0.9631020426750183,2.004364013671875,3.9566144943237305,0.32203564047813416,0.3000226318836212,-0.21518844366073608,0.9130715131759644
258,32098,32097,-0.002350833034142852,-0.08524400740861893,0.9605663418769836,-0.7042645215988159,5.435791015625,1.417100429534912,2.005587100982666,3.9557666778564453,0.32174283266067505,0.2291269600391388,-0.16585515439510345,0.9121232628822327
259,32108,32107,0.053018249571323395,-0.03975847736001015,0.9648476839065552,-0.8831120729446411,6.756888389587402,1.7494333982467651,2.0074501037597656,3.9558374881744385,0.32130005955696106,0.0686507597565651,-0.18605779111385345,0.9271092414855957
260,32118,32117,0.09924887865781784,-0.09412543475627899,1.0102453231811523,-1.5483179092407227,5.611813068389893,1.5591884851455688,2.008115768432617,3.955225944519043,0.32099246978759766,0.07214777916669846,-0.20948657393455505,0.922496497631073
261,32128,32127,0.09670393913984299,-0.1294880360364914,1.0405163764953613,-0.6281918883323669,4.454835414886475,0.9958276152610779,2.0085980892181396,3.955275297164917,0.32414811849594116,0.08794095367193222,-0.2311093956232071,0.9350361824035645
262,32138,32137,0.05321243777871132,-0.09564568102359772,0.981685221195221,0.07272505760192871,4.196103572845459,0.7869805693626404,2.0117907524108887,3.9544837474823,0.32380709052085876,-0.19299621880054474,-0.16149435937404633,0.9444108605384827
263,32148,32147,0.060118239372968674,-0.09077800810337067,0.8964447379112244,0.8274511098861694,4.687733173370361,0.6575345993041992,2.011655569076538,3.954339027404785,0.32374438643455505,-0.12535405158996582,-0.16565708816051483,0.9506748914718628
264,32158,32157,0.062073562294244766,-0.06863678991794586,0.9404263496398926,-0.07203403115272522,2.349599838256836,1.2248353958129883,2.0130507946014404,3.954026699066162,0.3207772672176361,-0.21462297439575195,-0.16124531626701355,0.9601042866706848
265,32168,32167,0.03284353017807007,-0.06757394969463348,0.9931550621986389,0.3506699502468109,-3.021644353866577,1.2095203399658203,2.0129640102386475,3.954052686691284,0.3204340934753418,-0.09182712435722351,-0.16287942230701447,0.9682098627090454
266,32178,32177,0.024030951783061028,-0.0906982421875,1.0542984008789062,-0.9033567309379578,-6.9214606285095215,1.4027372598648071,2.0137717723846436,3.953674077987671,0.3199318051338196,-0.08634338527917862,-0.16915152966976166,0.9702921509742737
267,32188,32187,-0.00414218008518219,-0.12887023389339447,1.0568816661834717,-0.2633620798587799,-6.066112995147705,0.9804158210754395,2.0136382579803467,3.9535675048828125,0.3218519389629364,0.09320522844791412,-0.18587081134319305,0.9793580174446106
268,32198,32197,0.034844182431697845,-0.11981680989265442,0.9477952122688293,-0.24533623456954956,-1.3174808025360107,0.935646653175354,2.014279365539551,3.9536261558532715,0.3215811848640442,0.15345972776412964,-0.20438379049301147,0.987472653388977
269,32208,32207,0.018631577491760254,0.005165839567780495,0.9641540050506592,-1.9481326341629028,1.3719326257705688,0.578253984451294,2.0167126655578613,3.9537713527679443,0.32121026515960693,-0.0007770633092150092,-0.23320001363754272,0.9997377395629883
270,32218,32217,-0.014790693297982216,-0.029307935386896133,0.9934855699539185,-2.129974603652954,4.083464622497559,0.42031988501548767,2.0168817043304443,3.9538180828094482,0.32095983624458313,0.051083676517009735,-0.2707669734954834,1.0042310953140259
271,32228,32227,0.004221383016556501,-0.02972259372472763,1.002305507659912,-2.011549711227417,4.493468761444092,0.5467476844787598,2.017918348312378,3.9538888931274414,0.3184851408004761,-0.012643479742109776,-0.3015916645526886,1.012082576751709
272,32238,32237,-0.0006997387972660363,-0.01692681759595871,1.004473328590393,-0.14982177317142487,4.053010940551758,0.4663216769695282,2.018998622894287,3.953939199447632,0.31800660490989685,-0.07838262617588043,-0.3200039565563202,1.0178531408309937
273,32248,32247,-0.001759845414198935,0.04696651175618172,1.0472118854522705,1.2104142904281616,2.838822364807129,0.9250549077987671,2.0198400020599365,3.9543259143829346,0.31756529211997986,-0.12912555038928986,-0.31318649649620056,1.0225752592086792
274,32258,32257,-0.009371914900839329,0.0164787620306015,1.0352818965911865,1.8808597326278687,0.7290233969688416,0.6929237842559814,2.0198423862457275,3.953341245651245,0.3149702548980713,-0.06885858625173569,-0.2804465591907501,1.0164695978164673
275,32268,32267,0.022064222022891045,-0.058914802968502045,0.962467610836029,2.1767916679382324,1.2898308038711548,0.030094372108578682,2.0206634998321533,3.953057050704956,0.3145190179347992,-0.0577002689242363,-0.24798011779785156,1.0165703296661377
276,32278,32277,-0.024038124829530716,0.016288505867123604,0.9818723797798157,2.030298948287964,1.848789095878601,0.16079847514629364,2.022174835205078,3.9528121948242188,0.3140004277229309,-0.12272651493549347,-0.21440833806991577,1.020621657371521
277,32288,32287,0.023230699822306633,-0.008186389692127705,0.9385933876037598,1.9031199216842651,0.3771746754646301,0.5372830629348755,2.0230348110198975,3.9526734352111816,0.3167785406112671,-0.10165534168481827,-0.17636236548423767,1.0238826274871826
278,32298,32297,0.01743675023317337,-0.05651574954390526,1.0319368839263916,0.16257095336914062,-2.1239590644836426,1.5658234357833862,2.0229125022888184,3.953120708465576,0.31647858023643494,0.004790493752807379,-0.15456034243106842,1.0386587381362915
279,32308,32307,0.012407968752086163,-0.13037079572677612,1.1039749383926392,-2.0022196769714355,-1.2474169731140137,1.567312479019165,2.024153709411621,3.9528696537017822,0.3161114454269409,-0.04175698384642601,-0.15768688917160034,1.045844554901123
280,32318,32317,0.04020341485738754,-0.14756515622138977,1.0646370649337769,-2.4387600421905518,0.9737236499786377,1.011277675628662,2.025519847869873,3.9540317058563232,0.31587859988212585,-0.11059755831956863,-0.2685379087924957,1.0736136436462402
281,32328,32327,-0.0010497472248971462,0.08640184998512268,0.9950790405273438,-1.963212251663208,3.568338632583618,0.8889155983924866,2.0260801315307617,3.9543161392211914,0.31570255756378174,-0.14918604493141174,-0.2944602966308594,1.0926799774169922
282,32338,32337,-0.02241547591984272,-0.01259674783796072,1.075061559677124,-0.870329737663269,3.7204034328460693,0.4355109632015228,2.027099609375,3.954399824142456,0.3155762255191803,-0.1754998415708542,-0.31370171904563904,1.1002968549728394
283,32348,32347,0.00904877670109272,-0.0448833629488945,1.0103988647460938,-0.8022825717926025,3.4762542247772217,0.3635618984699249,2.026611089706421,3.953474760055542,0.3156651556491852,-0.14232297241687775,-0.23510117828845978,1.1043806076049805
284,32358,32357,-0.03084534965455532,-0.07852555066347122,1.0630534887313843,1.8976305723190308,-0.030504366382956505,0.7195774912834167,2.0268056392669678,3.953418731689453,0.3182535767555237,-0.08982736617326736,-0.22747597098350525,1.105237603187561
285,32368,32367,-0.03632082790136337,-0.010628659278154373,1.0286195278167725,2.8041112422943115,0.20946136116981506,0.5789928436279297,2.0274462699890137,3.9530937671661377,0.31845349073410034,-0.1685716211795807,-0.18268418312072754,1.1167871952056885
286,32378,32377,-0.02475186437368393,0.044700320810079575,0.9808380603790283,2.9773707389831543,0.19175252318382263,0.9855149388313293,2.0272183418273926,3.953303813934326,0.318759024143219,-0.08852929621934891,-0.1286766678094864,1.1338274478912354
287,32388,32387,-0.015641313046216965,-0.10510166734457016,0.9514618515968323,2.0893471240997314,-0.061022233217954636,0.771414041519165,2.02767014503479,3.9530162811279297,0.3200545012950897,-0.07955370098352432,-0.08470118790864944,1.1447392702102661
288,32398,32397,-0.06516380608081818,-0.014566393569111824,1.0111734867095947,-0.05035435035824776,1.599041223526001,-0.0835401713848114,2.0280537605285645,3.953749895095825,0.32032260298728943,-0.06734579056501389,-0.14902441203594208,1.1556142568588257
289,32408,32407,0.035675048828125,-0.08398036658763885,0.9616237878799438,-0.6415099501609802,-1.2620919942855835,0.7287024855613708,2.0290257930755615,3.953678846359253,0.3205910921096802,-0.07955162227153778,-0.15465553104877472,1.1754337549209595
290,32418,32417,0.029224950820207596,-0.07746357470750809,1.0141586065292358,-1.8914706707000732,4.630460739135742,-0.027987966313958168,2.0298445224761963,3.9548182487487793,0.3191584348678589,-0.09490078687667847,-0.17853008210659027,1.1915428638458252
291,32428,32427,0.04854946210980415,-0.03761478140950203,0.9602766633033752,-1.9187251329421997,1.5054606199264526,0.03940941020846367,2.029905080795288,3.954711675643921,0.3192964196205139,-0.06554871052503586,-0.20013652741909027,1.1902779340744019
292,32438,32437,0.06136900559067726,-0.054597534239292145,0.9956313371658325,-0.47176939249038696,1.9617903232574463,0.17882175743579865,2.030895233154297,3.9545905590057373,0.31935277581214905,-0.11366546899080276,-0.21875345706939697,1.1935056447982788
293,32448,32447,-0.034464623779058456,0.09515096247196198,0.9338335394859314,0.4533868730068207,2.144836187362671,-0.3481038510799408,2.0329999923706055,3.954152822494507,0.3192797601222992,-0.29963022470474243,-0.2075364887714386,1.1827068328857422
294,32458,32457,-0.03488680720329285,0.04566943645477295,0.9800477027893066,0.4352794885635376,4.210246562957764,-0.6702373027801514,2.033092737197876,3.953603506088257,0.3228461742401123,-0.2538074553012848,-0.19595547020435333,1.1623214483261108
295,32468,32467,0.010802315548062325,0.04696524515748024,0.9210662245750427,1.8540186882019043,1.104744553565979,-0.5729359984397888,2.034043312072754,3.953531265258789,0.32299259305000305,-0.2998482882976532,-0.16970723867416382,1.1518274545669556
296,32478,32477,0.0963047593832016,-0.016474606469273567,0.8967744708061218,2.328179359436035,3.0347540378570557,-0.6226952075958252,2.035022020339966,3.95401930809021,0.32304972410202026,-0.34183016419410706,-0.1983504295349121,1.1554523706436157
297,32488,32487,0.10666253417730331,-0.1100083738565445,0.9451210498809814,2.125694990158081,-1.7032763957977295,-0.1649959534406662,2.0363454818725586,3.9538309574127197,0.3236877918243408,-0.41409581899642944,-0.15732069313526154,1.1420328617095947
298,32498,32497,0.0030779822263866663,-0.009167646989226341,1.014262318611145,2.1853649616241455,-2.7897167205810547,0.09148304164409637,2.036006212234497,3.9534637928009033,0.3238025903701782,-0.2901041805744171,-0.11562871932983398,1.1414765119552612
299,32508,32507,0.00145565380807966,0.06569069623947144,0.9472029209136963,2.2554547786712646,0.30875375866889954,-0.5055109262466431,2.0364561080932617,3.9528610706329346,0.3238145112991333,-0.24176043272018433,-0.07789555191993713,1.1486321687698364
300,32518,32517,0.07016265392303467,0.08125714957714081,0.8755951523780823,1.11577570438385,2.329620122909546,-0.5036365985870361,2.0364034175872803,3.953988790512085,0.3235403299331665,-0.1425241231918335,-0.1179540753364563,1.142413854598999
301,32528,32527,0.05557442083954811,0.02944268472492695,0.9791171550750732,-0.19299250841140747,2.6696457862854004,-0.22135145962238312,2.0371525287628174,3.953695297241211,0.323378324508667,-0.1418360471725464,-0.0889960452914238,1.139923095703125
302,32538,32537,0.05658071115612984,-0.09800884127616882,0.99922114610672,-0.557889461517334,2.9538211822509766,-0.006185173522680998,2.038205862045288,3.9538841247558594,0.3233504593372345,-0.23354023694992065,-0.07550285756587982,1.150680422782898
303,32548,32547,0.02179311215877533,-0.1697143018245697,0.9948805570602417,-1.1819435358047485,3.0536577701568604,-0.30886030197143555,2.0377261638641357,3.953937292098999,0.3232887387275696,-0.18694515526294708,-0.08015228062868118,1.1552784442901611
304,32558,32557,0.0021450587082654238,-0.11205848306417465,0.9865114092826843,-0.6200607419013977,3.9210498332977295,-0.30872824788093567,2.0390305519104004,3.953523635864258,0.324113667011261,-0.24990881979465485,-0.07979144155979156,1.135497808456421
305,32568,32567,0.024582460522651672,-0.0601445734500885,0.9404860734939575,-0.582222044467926,3.9638617038726807,-0.11114053428173065,2.0410125255584717,3.9542291164398193,0.3238094747066498,-0.3189997971057892,-0.16225609183311462,1.1224061250686646
306,32578,32577,0.06117485836148262,-0.07705487310886383,0.9483265280723572,-0.1854735165834427,3.188758134841919,0.5232639908790588,2.0402419567108154,3.953782558441162,0.323870450258255,-0.30148816108703613,-0.15641510486602783,1.1243163347244263
307,32588,32587,0.0700061246752739,-0.08321744948625565,0.9882493615150452,0.9782475829124451,0.5448598861694336,0.5621046423912048,2.0416250228881836,3.9540908336639404,0.3196975886821747,-0.4169021546840668,-0.13497067987918854,1.1273730993270874
308,32598,32597,0.09302467852830887,-0.13226038217544556,0.9403243660926819,1.7287150621414185,3.1798994541168213,-0.8853015899658203,2.04304838180542,3.9550743103027344,0.31916606426239014,-0.5066757798194885,-0.10407967865467072,1.1581854820251465
309,32608,32607,0.03713136911392212,-0.059537146240472794,0.9648305177688599,3.154608964920044,-1.6678214073181152,-0.9590641856193542,2.0432589054107666,3.9548962116241455,0.3186621367931366,-0.48293980956077576,-0.14811381697654724,1.1386070251464844
310,32618,32617,-0.03904655575752258,0.03712077811360359,0.9556627869606018,3.653578042984009,-2.5731940269470215,-0.9478318691253662,2.043438196182251,3.9547789096832275,0.31844887137413025,-0.38053905963897705,-0.07617974281311035,1.1217478513717651
311,32628,32627,-0.007579175289720297,0.02014954201877117,0.9800640940666199,2.612438678741455,-6.544155120849609,0.3009028732776642,2.045201063156128,3.9550588130950928,0.3177779018878937,-0.46026432514190674,-0.08737407624721527,1.1220439672470093
312,32638,32637,0.08476995676755905,-0.1552864909172058,1.013657808303833,2.76395320892334,-7.803014755249023,0.48160097002983093,2.0451033115386963,3.955538272857666,0.31721821427345276,-0.2765677869319916,-0.09417414665222168,1.102921724319458
313,32648,32647,0.010259280912578106,-0.12869176268577576,1.0971357822418213,2.4360852241516113,-1.2912838459014893,-0.557023823261261,2.0455362796783447,3.9554450511932373,0.3166014552116394,-0.17791232466697693,-0.027589857578277588,1.1066696643829346
314,32658,32657,0.00010503020166652277,-0.0060091204941272736,0.9948769807815552,1.8977329730987549,-6.51515531539917,0.07313325256109238,2.0451548099517822,3.955331563949585,0.3155158460140228,-0.028317973017692566,0.02302170731127262,1.093859314918518
315,32668,32667,-0.04252810776233673,-0.03004669025540352,0.9981318116188049,1.2015327215194702,1.8635051250457764,0.04387974739074707,2.0469629764556885,3.9548120498657227,0.3148978054523468,-0.182175874710083,0.0638703852891922,1.0901837348937988
316,32678,32677,-0.017369382083415985,-0.027641747146844864,1.0260206460952759,0.5368570685386658,5.54339599609375,1.1539998054504395,2.0469467639923096,3.954815626144409,0.3143945038318634,-0.13363531231880188,0.09948515146970749,1.0938365459442139
317,32688,32687,0.06415633857250214,-0.16881826519966125,0.9961887001991272,0.8307430744171143,5.350933074951172,0.6317168474197388,2.0476431846618652,3.953960418701172,0.313527911901474,-0.20051389932632446,0.12511180341243744,1.0757451057434082
318,32698,32697,-0.00565946102142334,-0.002782639814540744,1.0443572998046875,-0.7994649410247803,6.026334762573242,1.016723871231079,2.049055814743042,3.9542715549468994,0.31291666626930237,-0.35587161779403687,0.13183169066905975,1.088421106338501
319,32708,32707,0.0031423065811395645,-0.1109822541475296,1.038121223449707,-1.5580581426620483,3.2799370288848877,0.1520620882511139,2.0486807823181152,3.954909324645996,0.3125652074813843,-0.2568790018558502,0.04782089218497276,1.098604679107666
320,32718,32717,-0.061687733978033066,0.0031833124812692404,1.055411458015442,-0.9850478768348694,-2.0939102172851562,0.3600603938102722,2.0492491722106934,3.9549620151519775,0.3110419809818268,-0.27779650688171387,0.032709527760744095,1.114709734916687
321,32728,32727,-0.07673638314008713,0.012755725532770157,1.0341345071792603,-0.8567659258842468,1.3325879573822021,0.06313207745552063,2.0494496822357178,3.953763008117676,0.3106108605861664,-0.2214745432138443,0.10189662873744965,1.1023743152618408
322,32738,32737,0.025929102674126625,0.009581941179931164,0.9920957088470459,0.1921270340681076,2.7226626873016357,0.8526144027709961,2.0511257648468018,3.9554049968719482,0.3101074695587158,-0.3231108486652374,0.0980563685297966,1.149768590927124
323,32748,32747,-0.006542651914060116,0.06861042976379395,1.0542714595794678,0.8869515061378479,0.46909603476524353,0.8935495615005493,2.050516128540039,3.9552412033081055,0.3122170865535736,-0.18045781552791595,0.10986266285181046,1.161189317703247
324,32758,32757,0.016384175047278404,-0.039400167763233185,0.9949077367782593,0.1311236470937729,-2.856053352355957,0.2640874981880188,2.052612781524658,3.956918954849243,0.31190022826194763,-0.33733272552490234,0.12560974061489105,1.2196018695831299
325,32768,32767,-0.05680685490369797,-0.043440449982881546,1.0568833351135254,-0.31086263060569763,1.408044695854187,-0.18025588989257812,2.052689790725708,3.957517385482788,0.31175121665000916,-0.24840614199638367,0.05811112001538277,1.2159048318862915
326,32778,32777,-0.05569746345281601,0.0665244311094284,1.0231571197509766,-0.9128037095069885,-0.9394479393959045,0.5987012386322021,2.053415536880493,3.956866502761841,0.31157636642456055,-0.24735744297504425,0.05748162791132927,1.195644497871399
327,32788,32787,-0.03404875844717026,0.12015321105718613,1.028297781944275,-1.8247359991073608,3.4744062423706055,0.3742802143096924,2.055487632751465,3.9564192295074463,0.3132197856903076,-0.42159944772720337,0.04194771125912666,1.1769109964370728
328,32798,32797,-0.00486963102594018,0.010279931128025055,0.9780162572860718,-1.1723802089691162,3.077608346939087,1.1220380067825317,2.0564768314361572,3.9565670490264893,0.3132571280002594,-0.4503200650215149,0.02271079272031784,1.1840187311172485
329,32808,32807,0.010812947526574135,-0.03339741379022598,0.9902834892272949,-0.9601649641990662,0.45960474014282227,-0.04741038754582405,2.056668996810913,3.956371784210205,0.31336429715156555,-0.39454522728919983,0.01414193119853735,1.1866731643676758
330,32818,32817,-0.03963689133524895,0.04770301282405853,1.0108381509780884,-0.12499728053808212,-2.4167234897613525,0.72306889295578,2.057495355606079,3.957026720046997,0.31396156549453735,-0.3908613920211792,0.012592828832566738,1.2116665840148926
331,32828,32827,-0.028096351772546768,0.0219523124396801,0.9680809378623962,-0.2600860595703125,-5.169427394866943,0.6912809014320374,2.0575380325317383,3.9561402797698975,0.314134418964386,-0.2729629576206207,0.09250587224960327,1.231545090675354
332,32838,32837,-0.07349839061498642,0.07493352890014648,1.073526382446289,0.06565182656049728,-5.034470558166504,0.6542679071426392,2.0581412315368652,3.956700086593628,0.3142091929912567,-0.2127852886915207,0.09209799021482468,1.2188105583190918
333,32848,32847,-0.01744960807263851,-0.0530935563147068,0.967965304851532,0.789953887462616,0.3666462004184723,-0.1422497183084488,2.0590314865112305,3.9560387134552,0.3124566674232483,-0.24095512926578522,0.09591659158468246,1.214309573173523
334,32858,32857,0.023099198937416077,-0.10096126794815063,0.8931995630264282,-0.40226176381111145,0.39230793714523315,0.7750111818313599,2.060372829437256,3.958932876586914,0.31248053908348083,-0.22805362939834595,0.10017881542444229,1.308990716934204
335,32868,32867,0.0067673735320568085,-0.04890553653240204,0.9676194190979004,-1.9494260549545288,0.8738264441490173,0.07568880915641785,2.0618200302124023,3.9610891342163086,0.3124108910560608,-0.30378156900405884,0.00931445974856615,1.3594661951065063
336,32878,32877,-0.0015995994908735156,0.01603715494275093,0.9497158527374268,-3.1040232181549072,3.6693663597106934,-0.7066563963890076,2.0617780685424805,3.962534189224243,0.31232813000679016,-0.24773532152175903,-0.017704246565699577,1.409373164176941
337,32888,32887,-0.0053588952869176865,-0.01695508509874344,0.9514784812927246,-1.5240604877471924,-1.4840266704559326,-0.8411557674407959,2.0631768703460693,3.962785243988037,0.3148437738418579,-0.33666864037513733,-0.050447601824998856,1.4052743911743164
338,32898,32897,-0.025644680485129356,-0.07624118030071259,0.9054582118988037,-0.852593183517456,1.6986202001571655,-0.6087089776992798,2.0639641284942627,3.962707281112671,0.31474295258522034,-0.410007119178772,-0.06674688309431076,1.4025559425354004
339,32908,32907,-0.01584465615451336,-0.029315540567040443,0.9876362681388855,1.6290059089660645,-0.24161198735237122,-0.24713729321956635,2.0640387535095215,3.962284564971924,0.31471866369247437,-0.33357328176498413,-0.06116597354412079,1.3787845373153687
340,32918,32917,-0.016496682539582253,-0.0026328950189054012,0.995104193687439,1.2079229354858398,-2.080409049987793,0.29898160696029663,2.065263032913208,3.9620940685272217,0.3089360296726227,-0.3978234827518463,-0.034895267337560654,1.3703422546386719
341,32928,32927,-0.002645627362653613,-0.13062365353107452,1.0511301755905151,2.1555283069610596,-1.746458649635315,-0.026244083419442177,2.066694498062134,3.9618587493896484,0.3083511292934418,-0.4332501292228699,-0.001000037183985114,1.3722237348556519
342,32938,32937,0.007946944795548916,0.003366746474057436,1.0421593189239502,1.5093035697937012,-0.37351086735725403,-0.1686285436153412,2.0666816234588623,3.96197247505188,0.30795884132385254,-0.30345791578292847,0.03126891702413559,1.3672187328338623
343,32948,32947,-0.0028318664990365505,0.017240749672055244,1.021893858909607,1.1435939073562622,-1.5404367446899414,-0.16069166362285614,2.0689733028411865,3.9613332748413086,0.30895042419433594,-0.4434873163700104,0.05542576313018799,1.352898120880127
344,32958,32957,0.06435307115316391,-0.12578921020030975,1.005611777305603,-0.40828296542167664,-1.4317487478256226,0.760901153087616,2.069958209991455,3.9610965251922607,0.3086117208003998,-0.39866334199905396,0.06437373161315918,1.3367018699645996
345,32968,32967,0.06619630753993988,-0.21723273396492004,1.0390512943267822,-1.1004984378814697,-4.30859375,0.52159583568573,2.069634199142456,3.960582733154297,0.30840885639190674,-0.24717380106449127,0.05627569928765297,1.3271973133087158
346,32978,32977,0.01234520971775055,-0.07905558496713638,1.0207053422927856,-0.5102394223213196,-2.9852097034454346,0.926173746585846,2.070117235183716,3.960651159286499,0.3081069588661194,-0.16422973573207855,0.04099974408745766,1.3357102870941162
347,32988,32987,0.05205167829990387,0.029825089499354362,0.937179684638977,-1.5900154113769531,1.976294755935669,0.9655765295028687,2.072042226791382,3.9610915184020996,0.3094595670700073,-0.2691672444343567,-0.053796377032995224,1.3072258234024048
348,32998,32997,0.08163044601678848,-0.0032078311778604984,0.9776445031166077,-2.2505850791931152,-1.5625478029251099,1.1900681257247925,2.0723040103912354,3.96081280708313,0.3093414008617401,-0.14392395317554474,-0.07473800331354141,1.3167189359664917
349,33008,33007,0.023635949939489365,-0.06278077512979507,0.9976239800453186,-1.9009464979171753,-1.2028183937072754,1.3249008655548096,2.07450795173645,3.9604384899139404,0.3089553415775299,-0.2706420123577118,-0.09803526103496552,1.30111825466156
350,33018,33017,-0.021979384124279022,-0.148666113615036,1.0689802169799805,-0.03692289814352989,-0.9141505360603333,1.4882386922836304,2.074488878250122,3.9598569869995117,0.3085273206233978,-0.1590915322303772,-0.02750389836728573,1.3255889415740967
351,33028,33027,0.022386005148291588,-0.16014941036701202,0.9673824310302734,2.359795570373535,0.614008367061615,1.1998392343521118,2.0747954845428467,3.957669734954834,0.3081302046775818,-0.23136653006076813,-0.014088365249335766,1.2724319696426392
352,33038,33037,0.002230092417448759,-0.026627279818058014,0.9787763953208923,2.155937910079956,1.5951695442199707,1.2685749530792236,2.074990749359131,3.958890438079834,0.3079698979854584,-0.16086861491203308,-0.06057622283697128,1.3136826753616333
353,33048,33047,0.02781587652862072,-0.06692532449960709,0.9611374735832214,1.8491778373718262,0.167906254529953,0.9297881722450256,2.0758955478668213,3.958571195602417,0.30939650535583496,-0.25636744499206543,-0.014451397582888603,1.3256856203079224
354,33058,33057,-0.0298185795545578,0.07555916160345078,0.9945597052574158,1.1341369152069092,-0.78376704454422,0.7942987680435181,2.076251745223999,3.9587018489837646,0.3092183768749237,-0.2291300743818283,-0.0556490533053875,1.3205658197402954
355,33068,33067,-0.012584976851940155,-0.125258669257164,1.0015393495559692,1.4759966135025024,-2.1788997650146484,1.1186410188674927,2.0768115520477295,3.958345890045166,0.3090100586414337,-0.1818396896123886,-0.016226598992943764,1.3224618434906006
356,33078,33077,-0.030714770779013634,-0.1561756283044815,0.9333420991897583,1.1756564378738403,-4.524387836456299,0.21993139386177063,2.077523946762085,3.9573049545288086,0.30914145708084106,-0.19238154590129852,0.017115363851189613,1.2990522384643555
357,33088,33087,-0.013310271315276623,-0.09444689005613327,0.9737898707389832,0.36434492468833923,-4.908885955810547,1.720068097114563,2.0778355598449707,3.9571478366851807,0.3089437186717987,-0.09199332445859909,0.0409521646797657,1.24839186668396
358,33098,33097,0.09245824068784714,-0.15313270688056946,0.9785366058349609,-0.08181271702051163,-4.534244537353516,0.9519338607788086,2.07743763923645,3.954751491546631,0.30858543515205383,-0.08357056975364685,0.04828261211514473,1.2369050979614258
359,33108,33107,0.015581721439957619,-0.08811550587415695,1.0237754583358765,-0.11315350979566574,-1.4631463289260864,0.6255757212638855,2.079035997390747,3.954488754272461,0.30826228857040405,-0.09734169393777847,0.05233234539628029,1.22943913936615
360,33118,33117,-0.004187264479696751,-0.09998491406440735,0.942300021648407,-0.5645079612731934,1.7623143196105957,0.7299205660820007,2.079857349395752,3.9545536041259766,0.30402693152427673,-0.07391645759344101,0.05086112394928932,1.2389737367630005
361,33128,33127,0.009919550269842148,-0.0868166983127594,0.9123555421829224,-0.3610469102859497,1.6079375743865967,1.5327832698822021,2.081228256225586,3.9544363021850586,0.3033888638019562,-0.15933595597743988,0.05082453042268753,1.2415951490402222
362,33138,33137,-0.01488528959453106,-0.05673906207084656,1.037826418876648,-1.3789536952972412,-0.11068053543567657,1.7395389080047607,2.0811564922332764,3.9545459747314453,0.30288976430892944,-0.07275214046239853,0.04353317618370056,1.261042594909668
363,33148,33147,0.04564603045582771,-0.12162922322750092,1.0258421897888184,-1.197637677192688,-1.665098786354065,0.7873613834381104,2.0812604427337646,3.9541471004486084,0.3029424846172333,0.019690662622451782,0.02709406614303589,1.2479661703109741
364,33158,33157,0.0009467939962632954,-0.027850741520524025,1.0804996490478516,-0.8082470893859863,2.5458712577819824,0.29309406876564026,2.0825650691986084,3.952770709991455,0.30226877331733704,-0.13429351150989532,0.015343715436756611,1.2095814943313599
365,33168,33167,0.03949180617928505,-0.042842961847782135,0.9785818457603455,-0.0728243812918663,2.857473850250244,0.44505640864372253,2.082698106765747,3.9527499675750732,0.3018476366996765,-0.07204405218362808,0.010870796628296375,1.2160420417785645
366,33178,33177,0.02351825125515461,-0.04349929466843605,0.9581601023674011,-0.0917874202132225,0.8847683668136597,0.45848703384399414,2.083463430404663,3.95235276222229,0.3046186864376068,-0.08555501699447632,0.007651809137314558,1.207741141319275
367,33188,33187,0.0034064301289618015,-0.04219003766775131,1.0317304134368896,-0.4630333483219147,-3.3396291732788086,1.4484726190567017,2.0853288173675537,3.951864242553711,0.30420196056365967,-0.22456634044647217,0.08633637428283691,1.2226852178573608
368,33198,33197,0.01689583994448185,-0.11820033937692642,1.0805027484893799,0.7867943644523621,-3.056173086166382,1.137787103652954,2.0856094360351562,3.952427625656128,0.3039056658744812,-0.16969914734363556,0.0075971875339746475,1.2402280569076538
369,33208,33207,0.0009325722348876297,-0.09910199791193008,1.0079436302185059,2.0445101261138916,1.2613202333450317,0.30336815118789673,2.0851409435272217,3.9523630142211914,0.3036474287509918,-0.14315803349018097,0.03102830983698368,1.2605050802230835
370,33218,33217,0.0034091155976057053,-0.07845877856016159,0.8955426216125488,-0.19679023325443268,3.5895309448242188,0.25809505581855774,2.085432529449463,3.9526889324188232,0.30140548944473267,-0.14832501113414764,-0.1109246164560318,1.2273732423782349
371,33228,33227,0.022446000948548317,-0.0927809625864029,0.9624322652816772,0.34268832206726074,-0.6372345685958862,1.0474283695220947,2.0855367183685303,3.9515273571014404,0.3011101186275482,-0.0641995444893837,-0.017090143635869026,1.2091615200042725
372,33238,33237,-0.010483594611287117,0.007294946350157261,1.0654966831207275,1.139150619506836,-1.215229868888855,1.0193060636520386,2.087390899658203,3.951388120651245,0.3005436360836029,-0.19225725531578064,0.00046961967018432915,1.1589381694793701
373,33248,33247,0.052210595458745956,-0.0057910652831196785,0.9000970721244812,2.331528425216675,-0.9825135469436646,1.3012672662734985,2.0872912406921387,3.9490020275115967,0.3015865981578827,-0.1560487002134323,0.03902776911854744,1.134616732597351
374,33258,33257,-0.014929571188986301,0.018744634464383125,1.0187652111053467,1.7170053720474243,-1.168614149093628,1.3392016887664795,2.089233160018921,3.949256658554077,0.3009639382362366,-0.3637627363204956,0.0808524414896965,1.1672862768173218
375,33268,33267,-0.0038704045582562685,-0.05638103187084198,1.0270659923553467,0.3485640585422516,2.086984634399414,1.3132237195968628,2.0896167755126953,3.9497623443603516,0.3006446063518524,-0.31534290313720703,0.027304820716381073,1.1926028728485107
376,33278,33277,0.08090535551309586,-0.18276596069335938,1.0154458284378052,-0.5070871710777283,-0.18206821382045746,1.6310211420059204,2.0895705223083496,3.948607921600342,0.303975373506546,-0.28889840841293335,0.11579827219247818,1.1853089332580566
377,33288,33287,0.03768511116504669,-0.06513959914445877,1.0188127756118774,-0.4671827554702759,-1.721591830253601,1.4128364324569702,2.0893502235412598,3.948888063430786,0.30397674441337585,-0.14581236243247986,0.10969061404466629,1.218647837638855
378,33298,33297,0.015088343061506748,0.10315625369548798,1.0301313400268555,-0.1740385890007019,-4.528021335601807,1.2512131929397583,2.089851140975952,3.949075937271118,0.30379506945610046,-0.14666646718978882,0.1056017279624939,1.2449132204055786
379,33308,33307,0.08445557951927185,-0.022394010797142982,1.0065507888793945,-1.0772501230239868,-5.344460964202881,0.3016250431537628,2.0915567874908447,3.9512670040130615,0.30307507514953613,-0.20576298236846924,0.09267822653055191,1.3437446355819702
380,33318,33317,-0.011411882005631924,0.03943304345011711,1.027525544166565,-1.082715392112732,-4.906381130218506,0.3364405632019043,2.0931522846221924,3.951900005340576,0.3028688132762909,-0.22886906564235687,-0.0018286248669028282,1.3495092391967773
381,33328,33327,-0.004664674401283264,-0.0983213409781456,0.9881705641746521,-1.249930739402771,-3.9232044219970703,0.3121514916419983,2.094526529312134,3.950523853302002,0.3026041090488434,-0.2599804401397705,-0.009101415053009987,1.291576862335205
382,33338,33337,-0.0034353164955973625,-0.11751538515090942,0.963127851486206,0.5261180996894836,-3.637115001678467,0.38973668217658997,2.0946128368377686,3.9502458572387695,0.30271968245506287,-0.05898576229810715,-0.007143773138523102,1.2808200120925903
383,33348,33347,0.051144570112228394,-0.08848536014556885,1.0016515254974365,0.9097325205802917,-4.188505172729492,1.404836893081665,2.0949208736419678,3.9482245445251465,0.30192887783050537,-0.03174388408660889,0.014343595132231712,1.209543228149414
384,33358,33357,0.07900232076644897,-0.11886458843946457,1.056536078453064,1.3619275093078613,-3.530200719833374,0.8967335820198059,2.096313714981079,3.9483275413513184,0.30172985792160034,-0.005991013254970312,0.04285256937146187,1.2950361967086792
385,33368,33367,0.05779430642724037,-0.12492669373750687,0.9836277365684509,1.9823215007781982,-1.7349627017974854,0.42581692337989807,2.0969161987304688,3.9498863220214844,0.3016122281551361,0.08677665144205093,0.0759987086057663,1.30556321144104
386,33378,33377,0.01755215786397457,-0.09245859086513519,0.9829850792884827,1.6173739433288574,-1.569976806640625,0.6358047723770142,2.098877191543579,3.9498274326324463,0.30018699169158936,-0.0033634186256676912,0.10990844666957855,1.3086612224578857
387,33388,33387,0.027497828006744385,-0.0025076232850551605,1.0613560676574707,1.3964385986328125,-1.0685443878173828,0.47678446769714355,2.099536180496216,3.9499948024749756,0.2999575734138489,-0.00972167681902647,0.13512592017650604,1.3297247886657715
388,33398,33397,0.01919492520391941,-0.013408798724412918,0.9917275309562683,-0.5573115944862366,-1.1099236011505127,0.37376657128334045,2.1007862091064453,3.9501240253448486,0.2997211515903473,-0.02004794031381607,0.06960046291351318,1.312852382659912
389,33408,33407,-0.028562702238559723,-0.011560690589249134,1.045431137084961,-1.3112608194351196,-3.3980391025543213,0.5751569867134094,2.1013906002044678,3.950862169265747,0.29939714074134827,0.058868955820798874,-0.016101190820336342,1.2879960536956787
390,33418,33417,0.016246560961008072,-0.13828428089618683,0.9388871788978577,-1.1940795183181763,-2.553755521774292,0.3995480239391327,2.1033945083618164,3.9503607749938965,0.29912522435188293,-0.019306788221001625,-0.024647653102874756,1.2925583124160767
391,33428,33427,-0.010327824391424656,-0.04486443102359772,1.010859489440918,0.28513702750205994,-2.2542738914489746,0.9918644428253174,2.1039798259735107,3.9517080783843994,0.298997163772583,0.06911390274763107,-0.02124825119972229,1.3630430698394775
392,33438,33437,-0.0007213124772533774,-0.029459793120622635,1.0329214334487915,0.4746454656124115,-4.087744235992432,1.2339328527450562,2.104696273803711,3.9530646800994873,0.298918217420578,0.15947914123535156,0.002850612159818411,1.440542221069336
393,33448,33447,0.07976885139942169,-0.1810818314552307,1.1073468923568726,2.526639938354492,-4.012699604034424,-0.6379207968711853,2.1035757064819336,3.9507999420166016,0.3009019196033478,0.27075648307800293,0.03478071093559265,1.3658324480056763
394,33458,33457,0.03597407788038254,-0.15366795659065247,1.1092956066131592,3.3395228385925293,-2.1336708068847656,-0.0810369998216629,2.105018138885498,3.9500536918640137,0.3009355962276459,0.22624944150447845,0.16558264195919037,1.3667056560516357
395,33468,33467,0.01241727638989687,-0.0442618653178215,0.9806766510009766,4.0527520179748535,2.3467156887054443,-0.2583766579627991,2.106250047683716,3.9503989219665527,0.30115318298339844,0.2842154800891876,0.14722400903701782,1.4083962440490723
396,33478,33477,0.015004764311015606,-0.053127825260162354,0.9142374396324158,-0.115370973944664,2.7971205711364746,0.2856505215167999,2.1064999103546143,3.9529194831848145,0.30199259519577026,0.36020949482917786,0.18701578676700592,1.477650761604309
397,33488,33487,0.04264785721898079,-0.16328802704811096,0.9865298271179199,-1.1084073781967163,-1.8419758081436157,0.41540786623954773,2.108504056930542,3.952836751937866,0.3020818531513214,0.2121822088956833,0.1857014298439026,1.4702587127685547
398,33498,33497,0.005271466448903084,-0.21725322306156158,1.1667814254760742,-2.506830930709839,-3.8421857357025146,-0.5421280264854431,2.1104652881622314,3.9523825645446777,0.30213478207588196,0.13326795399188995,0.15573087334632874,1.440085530281067
399,33508,33507,0.0017200758447870612,-0.09502136707305908,1.0652575492858887,-3.009343147277832,2.7965991497039795,-0.7741193771362305,2.110851526260376,3.9524500370025635,0.30334869027137756,0.24753548204898834,0.11416757851839066,1.4306910037994385
400,33518,33517,0.01837076246738434,-0.0029501186218112707,0.977841854095459,-3.0179526805877686,2.627598524093628,-0.12346555292606354,2.1119744777679443,3.9524450302124023,0.3037621080875397,0.23926754295825958,0.06909053772687912,1.4128080606460571
401,33528,33527,0.059146054089069366,-0.13305771350860596,1.0474175214767456,-2.2599377632141113,0.3620610535144806,-0.2881946563720703,2.1130223274230957,3.952695369720459,0.3041808307170868,0.25094297528266907,0.026436684653162956,1.4128899574279785
402,33538,33537,0.021839134395122528,-0.06125892326235771,0.9639996290206909,-1.88596510887146,-2.6696648597717285,-0.26073405146598816,2.1139674186706543,3.952376127243042,0.3046392798423767,0.2908708155155182,-0.0015865667955949903,1.3871188163757324
403,33548,33547,-0.048399314284324646,-0.06627956032752991,1.0608153343200684,1.1550219058990479,-4.747017860412598,-0.22342216968536377,2.11403751373291,3.9521288871765137,0.3045748472213745,0.4338434338569641,0.0010728773195296526,1.379197597503662
404,33558,33557,-0.06801343709230423,-0.023819752037525177,1.016469955444336,1.7914235591888428,0.7879546880722046,-0.06266971677541733,2.116239070892334,3.9518210887908936,0.30496177077293396,0.3273504078388214,0.032874222844839096,1.3597831726074219
405,33568,33567,-0.0016444599023088813,0.1324838250875473,0.9721553921699524,4.001687526702881,2.198971748352051,-0.9137349724769592,2.117306709289551,3.951582193374634,0.30545175075531006,0.33233097195625305,0.08291488885879517,1.356594204902649
406,33578,33577,0.014546522870659828,0.17358021438121796,0.8683860898017883,3.0068511962890625,5.914880275726318,-0.8423655033111572,2.1189191341400146,3.9517605304718018,0.3060298562049866,0.2273850440979004,0.13994984328746796,1.3588464260101318
407,33588,33587,0.027060728520154953,0.12338709086179733,0.9145590662956238,2.225787878036499,5.7811737060546875,-0.504987359046936,2.1196556091308594,3.951608657836914,0.3063827157020569,0.17173247039318085,0.1818937510251999,1.354596495628357
408,33598,33597,0.00029120728140696883,0.038056425750255585,1.0065417289733887,-0.8836853504180908,5.2274651527404785,-0.8983808159828186,2.120371103286743,3.951368808746338,0.3067817687988281,0.19021040201187134,0.19698582589626312,1.3331775665283203
409,33608,33607,-0.007843355648219585,-0.10210740566253662,0.9858037829399109,-1.9951189756393433,2.354976177215576,-0.5001298785209656,2.122073173522949,3.951282024383545,0.3055305480957031,0.008475608192384243,0.17662183940410614,1.3625408411026
410,33618,33617,-0.013092759065330029,-0.1298014521598816,0.9765480160713196,-4.047856330871582,0.45542576909065247,-0.5413631796836853,2.1227431297302246,3.9527242183685303,0.30585452914237976,0.10107611864805222,0.12505662441253662,1.362838625907898
411,33628,33627,0.007519165053963661,-0.08071672171354294,0.947717547416687,-3.6962056159973145,-0.4228924810886383,-0.5328579545021057,2.1229546070098877,3.9528651237487793,0.3060850203037262,0.12433645129203796,0.060447923839092255,1.3617380857467651
412,33638,33637,0.02960728108882904,-0.05453268811106682,0.9472247362136841,-4.0253682136535645,-1.0868730545043945,-0.7895904183387756,2.124403476715088,3.953024387359619,0.3061698377132416,0.08097400516271591,-0.0031712311320006847,1.363456130027771
413,33648,33647,-0.06486830860376358,0.08069410175085068,0.9267510771751404,-2.172863483428955,-3.3194265365600586,0.22806309163570404,2.124945878982544,3.9542219638824463,0.3083325922489166,0.1405647248029709,0.02225419692695141,1.4204503297805786
414,33658,33657,0.04213050380349159,-0.07550875097513199,0.949663519859314,0.14568516612052917,-3.0756280422210693,-0.963021993637085,2.124837875366211,3.9542667865753174,0.30853715538978577,0.2739611566066742,-0.003278304124251008,1.4234815835952759
415,33668,33667,-0.0016298274276778102,-0.025778753682971,1.0105760097503662,2.0192272663116455,-0.6916874647140503,-1.2949364185333252,2.127013921737671,3.954515218734741,0.30850881338119507,0.14832249283790588,0.008684399537742138,1.4277958869934082
416,33678,33677,-0.05219580605626106,0.03494562208652496,0.9727143049240112,2.9731075763702393,2.1230525970458984,-0.9698588252067566,2.1277644634246826,3.9543404579162598,0.3062804341316223,0.15525077283382416,0.04951281473040581,1.419894814491272
417,33688,33687,-0.07967312633991241,0.023068474605679512,0.9489065408706665,1.8984215259552002,3.915614128112793,-0.7088472247123718,2.1279847621917725,3.955963373184204,0.3062291145324707,0.2125856727361679,0.09253975749015808,1.5073020458221436
418,33698,33697,-0.024601206183433533,0.0013303915038704872,0.9393101334571838,0.68909752368927,4.491450309753418,-0.8415558934211731,2.128410577774048,3.9564857482910156,0.3061447739601135,0.23744919896125793,0.03348726034164429,1.4914308786392212
419,33708,33707,0.023715388029813766,-0.030076485127210617,0.9429858922958374,-0.7313624024391174,4.828794002532959,-0.503943145275116,2.1296980381011963,3.9570088386535645,0.3027569651603699,0.08213356882333755,0.03795895725488663,1.503546118736267
420,33718,33717,0.021159745752811432,-0.02331146039068699,0.9707338809967041,-1.7789027690887451,3.872015953063965,-0.1494085192680359,2.1300017833709717,3.956939458847046,0.30234137177467346,0.10274122655391693,0.020156562328338623,1.4885462522506714
421,33728,33727,-0.000940038706175983,-0.04168948158621788,1.0239344835281372,-2.0673975944519043,5.0450029373168945,-0.0014565903693437576,2.131592273712158,3.957958698272705,0.3017657399177551,-0.02642546221613884,-0.009103488177061081,1.4919637441635132
422,33738,33737,-0.024464091286063194,-0.07426092028617859,0.9830014705657959,-1.2844136953353882,2.4116344451904297,-0.07183459401130676,2.1315667629241943,3.9571774005889893,0.2978418171405792,0.011274921707808971,-0.03699919953942299,1.4849196672439575
423,33748,33747,0.05527982860803604,-0.05515141412615776,0.8818145990371704,0.33814069628715515,7.610269069671631,-0.16630971431732178,2.1335995197296143,3.956958532333374,0.29701194167137146,-0.1342412829399109,-0.03833303973078728,1.4635035991668701
424,33758,33757,0.05414751544594765,-0.07454504817724228,0.9471644163131714,1.4380947351455688,2.2978992462158203,0.4370293617248535,2.13358473777771,3.9568965435028076,0.29628482460975647,-0.09968222677707672,-0.01807556487619877,1.4631385803222656
425,33768,33767,-0.012141253799200058,-0.11286506801843643,1.06541907787323,2.4917755126953125,1.5471547842025757,0.567261815071106,2.134930372238159,3.956387996673584,0.29534226655960083,-0.18648481369018555,0.013323592022061348,1.449923038482666
426,33778,33777,-0.026579704135656357,0.06879868358373642,0.9667851328849792,2.486250400543213,0.8010227084159851,0.9919395446777344,2.1364190578460693,3.956280469894409,0.29921814799308777,-0.2672221064567566,0.05844099074602127,1.4568182229995728
427,33788,33787,0.005265446379780769,-0.09618835151195526,1.0574530363082886,1.9801630973815918,0.34053975343704224,0.4501696825027466,2.1375105381011963,3.957345962524414,0.29859429597854614,-0.30963221192359924,0.09332536906003952,1.5306817293167114
428,33798,33797,0.0390283539891243,-0.0321667455136776,1.0072028636932373,-0.09954770654439926,4.005089282989502,0.3212025761604309,2.1369478702545166,3.955125093460083,0.2981235682964325,-0.23337578773498535,0.11955626308917999,1.4376471042633057
429,33808,33807,0.04283357411623001,-0.10052289068698883,1.0349836349487305,-1.4446223974227905,-2.679054021835327,1.2574489116668701,2.138204336166382,3.955230236053467,0.2985788881778717,-0.2888813316822052,0.11150533705949783,1.4430160522460938
430,33818,33817,0.0110835712403059,-0.07646584510803223,1.0110269784927368,-1.6956044435501099,-3.449455738067627,2.0716817378997803,2.138216257095337,3.955150842666626,0.29832208156585693,-0.128142848610878,0.08385158330202103,1.4470841884613037
431,33828,33827,0.00404812628403306,0.04462128505110741,1.012576937675476,-2.4242560863494873,-0.7151923775672913,1.7513868808746338,2.1401216983795166,3.9553468227386475,0.2978380620479584,-0.2134532779455185,0.04587173089385033,1.4664243459701538
432,33838,33837,0.006008423399180174,0.045235924422740936,1.0393105745315552,-2.459840774536133,-4.026699542999268,1.671570062637329,2.1407222747802734,3.954958915710449,0.2987500727176666,-0.13705243170261383,0.005127418786287308,1.4566583633422852
433,33848,33847,0.0016541776712983847,-0.05013052374124527,1.02161705493927,-1.981062412261963,-0.9592835903167725,1.0966956615447998,2.1427173614501953,3.9579787254333496,0.2985028922557831,-0.1411358267068863,-0.03174148499965668,1.6082357168197632
434,33858,33857,-0.013761463575065136,0.0001205417065648362,0.9860612750053406,-0.6157790422439575,-0.5286060571670532,1.2793972492218018,2.1432533264160156,3.958244800567627,0.2983291745185852,-0.08158572018146515,-0.05206708237528801,1.6438199281692505
435,33868,33867,0.009661680087447166,0.05694325268268585,1.0539820194244385,0.9185433387756348,-1.0468275547027588,0.6430091857910156,2.1446073055267334,3.958458662033081,0.2980652153491974,-0.11175817996263504,-0.04472631961107254,1.656926155090332
436,33878,33877,0.01776968687772751,0.04916941374540329,1.102407455444336,2.35884165763855,-0.44820985198020935,0.18924179673194885,2.1459898948669434,3.958153247833252,0.29959890246391296,-0.14325401186943054,-0.013608724810183048,1.6543368101119995
437,33888,33887,0.008000143803656101,0.032996855676174164,1.0145705938339233,3.173445701599121,1.6744009256362915,-0.17611253261566162,2.1465117931365967,3.959930896759033,0.2996123731136322,-0.10714995861053467,-0.041723642498254776,1.728407621383667
438,33898,33897,-0.014777270145714283,0.04141371324658394,0.9474780559539795,2.5252628326416016,-0.0018803945276886225,0.2712893486022949,2.146690607070923,3.959725856781006,0.2997581660747528,-0.0037097183521836996,0.012661352753639221,1.7260591983795166
439,33908,33907,-0.01798839680850506,0.03387674316763878,1.0473926067352295,3.075249195098877,-2.287895679473877,-0.17467744648456573,2.147634983062744,3.959970235824585,0.3008960783481598,-0.11699898540973663,0.06329109519720078,1.7501639127731323
440,33918,33917,-0.06768890470266342,0.0619012750685215,0.9720076322555542,1.261148452758789,-0.5530220866203308,0.18568359315395355,2.149275302886963,3.9599244594573975,0.30094802379608154,-0.06115030497312546,0.025910738855600357,1.7131271362304688
441,33928,33927,0.01940654031932354,-0.04414423555135727,0.9667811989784241,0.41574156284332275,-0.13145044445991516,-0.020307326689362526,2.150036334991455,3.9600777626037598,0.30104127526283264,-0.10193321108818054,0.05016796663403511,1.7777074575424194
442,33938,33937,0.012616842053830624,-0.022774724289774895,1.0180186033248901,0.33996903896331787,2.6949105262756348,-0.5266852378845215,2.1510210037231445,3.9624760150909424,0.30255523324012756,-0.014326274394989014,0.06442428380250931,1.8513647317886353
443,33948,33947,0.07044706493616104,-0.08145071566104889,0.9871598482131958,-1.207132339477539,0.6568167209625244,-0.4661801755428314,2.1540610790252686,3.9621400833129883,0.30246442556381226,-0.32708799839019775,0.06943465024232864,1.8261032104492188
444,33958,33957,0.04584096372127533,-0.12026575207710266,1.052771806716919,0.29507702589035034,-1.7045027017593384,-0.5824514627456665,2.1539306640625,3.961942434310913,0.3028327226638794,-0.18757934868335724,0.07403755187988281,1.8102264404296875
445,33968,33967,0.0427238903939724,-0.13508886098861694,0.9688119888305664,0.7720619440078735,-1.278735637664795,-0.9335975050926208,2.154813766479492,3.9616267681121826,0.3030622601509094,-0.11989009380340576,0.09020363539457321,1.7835530042648315
446,33978,33977,0.05649353563785553,0.0061887227930128574,0.866819441318512,1.3085572719573975,-0.9877672791481018,-1.385115623474121,2.155487537384033,3.961737632751465,0.30325573682785034,-0.08689091354608536,0.1149059608578682,1.7774642705917358
447,33988,33987,0.013409535400569439,-0.004835303407162428,0.972621500492096,0.6262543797492981,-3.9652509689331055,-0.8658791184425354,2.1558103561401367,3.9609458446502686,0.3033927083015442,-0.09706375002861023,-0.018104970455169678,1.7292283773422241
448,33998,33997,-0.0035243313759565353,-0.23006917536258698,1.0410901308059692,-0.24602259695529938,-5.435911178588867,-0.636214017868042,2.155855894088745,3.962599277496338,0.303632915019989,0.09405877441167831,0.003898685099557042,1.741003394126892
449,34008,34007,-0.030335480347275734,-0.18098710477352142,1.0927983522415161,1.0592821836471558,-4.719061851501465,-1.4492114782333374,2.15842342376709,3.9619956016540527,0.3041519522666931,-0.027701126411557198,0.10362454503774643,1.7329949140548706
450,34018,34017,-0.012160692363977432,-0.09113652259111404,0.9772194027900696,1.955053448677063,-1.498130202293396,-1.7539470195770264,2.1583094596862793,3.9631540775299072,0.30444714426994324,0.13428810238838196,0.13624480366706848,1.7903410196304321
451,34028,34027,-0.032641395926475525,0.07100080698728561,0.9448531270027161,2.133547067642212,2.164324998855591,-1.8728841543197632,2.1597843170166016,3.9633629322052,0.30460816621780396,0.07543620467185974,0.18059051036834717,1.7900574207305908
452,34038,34037,-0.038381028920412064,0.12019164860248566,0.9990450143814087,0.7452383637428284,3.3383920192718506,-2.393603801727295,2.1606619358062744,3.9652204513549805,0.3020652234554291,0.05707123130559921,0.12552988529205322,1.8318525552749634
453,34048,34047,-0.030026720836758614,0.032190658152103424,0.9983680248260498,-0.6678773760795593,2.4992735385894775,-3.1166064739227295,2.162226915359497,3.966054916381836,0.3020455241203308,-0.03903072327375412,0.13206809759140015,1.8424079418182373
454,34058,34057,-0.09783248603343964,0.10926561802625656,1.0497416257858276,-1.4997013807296753,2.397944450378418,-3.443085193634033,2.1630890369415283,3.9670517444610596,0.30203893780708313,-0.03811926394701004,0.11490817368030548,1.8540419340133667
455,34068,34067,-0.07654495537281036,0.13620153069496155,0.986198365688324,-1.4346791505813599,-0.06949514895677567,-3.599353551864624,2.1630048751831055,3.9681150913238525,0.30067065358161926,0.056698478758335114,0.09999869018793106,1.8722542524337769
456,34078,34077,-0.04345685616135597,0.09966199100017548,1.0467190742492676,-0.36313775181770325,-0.6412087082862854,-3.0688083171844482,2.164095878601074,3.967956781387329,0.3005759119987488,0.01346650067716837,0.1716943085193634,1.861032485961914
457,34088,34087,-0.007453779689967632,0.0671473816037178,1.0524770021438599,1.1187955141067505,-1.3899195194244385,-3.1385977268218994,2.1653945446014404,3.969240188598633,0.30049440264701843,-0.0202367901802063,0.18064527213573456,1.9137696027755737
458,34098,34097,-0.003529354464262724,-0.019212506711483,1.0027319192886353,0.842311441898346,-1.5610154867172241,-3.1571383476257324,2.1665244102478027,3.968538999557495,0.3004109859466553,-0.036341384053230286,0.19503243267536163,1.831092119216919
459,34108,34107,0.04564576968550682,-0.08655620366334915,0.9232598543167114,0.1632474660873413,1.438461422920227,-3.2145578861236572,2.1663689613342285,3.9695606231689453,0.29926058650016785,0.08239561319351196,0.19520770013332367,1.8560481071472168
460,34118,34117,0.04074739292263985,-0.02477349527180195,0.9527003169059753,-0.19369791448116302,-1.0885436534881592,-3.336580753326416,2.1690335273742676,3.9720301628112793,0.2990586757659912,-0.05458759889006615,0.11322826892137527,1.9054815769195557
461,34128,34127,0.045342862606048584,-0.09073536843061447,1.0351461172103882,-2.087684392929077,-0.8592241406440735,-2.309976100921631,2.1693363189697266,3.9716849327087402,0.29892635345458984,-0.00392614770680666,0.1762663722038269,1.8896549940109253
462,34138,34137,0.01618092507123947,-0.029467878863215446,1.0229970216751099,-1.3423099517822266,1.4807987213134766,-3.438851833343506,2.1691226959228516,3.972707509994507,0.3001522421836853,0.022407008334994316,0.0739331841468811,1.8650827407836914
463,34148,34147,-0.01538002211600542,-0.20460830628871918,1.0040103197097778,-0.857633113861084,1.9407780170440674,-3.6373789310455322,2.1689016819000244,3.9712977409362793,0.3001563251018524,0.10763756185770035,0.1410190463066101,1.80977201461792
464,34158,34157,0.06537756323814392,-0.09771856665611267,0.9163009524345398,0.7868809103965759,3.909513235092163,-2.823643684387207,2.170680284500122,3.9699528217315674,0.30000677704811096,-0.014463283121585846,0.22387512028217316,1.7360351085662842
465,34168,34167,0.04783063754439354,-0.14172254502773285,1.021895170211792,0.05490961670875549,1.9893466234207153,-2.0906190872192383,2.171320676803589,3.972214698791504,0.30111604928970337,0.04715324565768242,0.2147662192583084,1.833206057548523
466,34178,34177,0.0547279417514801,-0.18594911694526672,0.9569801688194275,-0.07604420930147171,-0.22751949727535248,-1.9563559293746948,2.1726486682891846,3.973066806793213,0.30103400349617004,-0.02691204845905304,0.2045072764158249,1.8587820529937744
467,34188,34187,0.006868339609354734,-0.04450161010026932,1.0247188806533813,-0.6545318365097046,-1.6784040927886963,-2.784104585647583,2.172196626663208,3.9716732501983643,0.3008943498134613,-0.022157583385705948,0.19195441901683807,1.7749786376953125
468,34198,34197,-0.010878094471991062,-0.03882874175906181,0.9981659650802612,-1.346329689025879,-0.053787712007761,-2.510964870452881,2.172147035598755,3.971440076828003,0.3008844554424286,0.0863972008228302,0.16468507051467896,1.785333514213562
469,34208,34207,-0.05192366987466812,0.08820890635251999,0.9514890313148499,-2.6798226833343506,1.6986230611801147,-2.8658292293548584,2.173494815826416,3.9734413623809814,0.29940515756607056,-0.06835243105888367,0.12359393388032913,1.8250068426132202
470,34218,34217,-0.04786760360002518,0.28355544805526733,0.9738720059394836,-3.3678290843963623,2.5497307777404785,-3.024097204208374,2.174431324005127,3.9744958877563477,0.2992159426212311,-0.006054908502846956,0.06848713755607605,1.857542634010315
471,34228,34227,-0.012211390770971775,0.0695764571428299,0.9839500188827515,-2.9907913208007812,1.0031101703643799,-3.293815851211548,2.1742777824401855,3.975064516067505,0.2991301417350769,0.06613514572381973,0.01273560244590044,1.8603969812393188
472,34238,34237,-0.09203128516674042,-0.0011076664086431265,1.0407286882400513,-1.8956842422485352,0.0818345919251442,-3.4302549362182617,2.174354314804077,3.9743165969848633,0.3007410168647766,-0.08002903312444687,0.13491939008235931,1.7578965425491333
473,34248,34247,-0.07335767149925232,0.02592446096241474,0.9627870321273804,-0.82155442237854,1.2290453910827637,-2.4551358222961426,2.17632794380188,3.973310947418213,0.30064478516578674,-0.06455039232969284,0.1027936041355133,1.735979437828064
474,34258,34257,-0.002305296715348959,-0.05619578808546066,1.006836175918579,-0.44630974531173706,1.8549602031707764,-1.8085256814956665,2.1766483783721924,3.9731202125549316,0.30055946111679077,0.013152120634913445,0.08318646252155304,1.7208162546157837
475,34268,34267,0.0033726058900356293,0.03511196747422218,1.0571807622909546,-0.23291920125484467,1.366609811782837,-2.223093032836914,2.1768765449523926,3.9745991230010986,0.3003993034362793,-0.07186195999383926,0.06963648647069931,1.7795681953430176
476,34278,34277,-0.03332049027085304,0.05959494039416313,1.0052378177642822,-0.4845501780509949,2.939532995223999,-2.850590705871582,2.178387403488159,3.9746851921081543,0.3003363609313965,-0.08553040027618408,0.05344612896442413,1.771852731704712
477,34288,34287,-0.08104104548692703,0.12289304286241531,0.9784121513366699,-1.533948302268982,3.376068353652954,-2.6027207374572754,2.1791093349456787,3.9758665561676025,0.3003321886062622,-0.1171472892165184,0.024205636233091354,1.792734980583191
