,timestamp_start,timestamp_end,acc.x,acc.y,acc.z,gyro.x,gyro.y,gyro.z,stateEstimate.x,stateEstimate.y,stateEstimate.z,stabilizer.pitch,stabilizer.roll,stabilizer.yaw
0,20248,20246,0.029551319777965546,-0.012348768301308155,1.0543373823165894,12.606856346130371,-3.484344005584717,0.2021939754486084,1.8641835451126099,3.8144586086273193,0.16035662591457367,-0.09622782468795776,0.1997329741716385,0.9266999363899231
1,20258,20256,0.025449829176068306,0.017260398715734482,1.0775030851364136,13.54355239868164,-3.8650946617126465,0.6581851243972778,1.8639640808105469,3.8161020278930664,0.1648649275302887,-0.005746176466345787,0.5125189423561096,0.9521467685699463
2,20268,20266,0.011498670093715191,-0.036870021373033524,1.0379236936569214,10.702641487121582,-3.317258358001709,0.5460718870162964,1.86444890499115,3.818450450897217,0.1673392355442047,-0.002524039940908551,0.6253761053085327,0.9580821990966797
3,20278,20276,0.01301634218543768,-0.008639211766421795,1.0594147443771362,6.990529537200928,-3.9272000789642334,0.8229869604110718,1.8649239540100098,3.82079815864563,0.16979065537452698,0.08067731559276581,0.6920294165611267,0.9665183424949646
4,20288,20286,-0.004492408130317926,0.040607281029224396,0.9738929867744446,2.869264841079712,-4.039540767669678,0.901103138923645,1.8654948472976685,3.8220748901367188,0.17057015001773834,0.16387826204299927,0.9207524657249451,0.9876730442047119
5,20298,20296,-0.023013396188616753,0.16389426589012146,0.9855417013168335,-2.3393940925598145,-2.751600503921509,1.276855707168579,1.8649468421936035,3.8208134174346924,0.17288167774677277,0.23927608132362366,0.44127804040908813,0.973247766494751
6,20308,20306,-0.011078301817178726,0.0011102993739768863,1.0283535718917847,-7.925138473510742,0.1391264945268631,1.4703500270843506,1.8648502826690674,3.824063539505005,0.17575757205486298,0.19447249174118042,0.4700428545475006,0.9768097400665283
7,20318,20316,0.05853457748889923,-0.13624128699302673,1.0504381656646729,-7.7382330894470215,-0.6834059357643127,1.644338846206665,1.8651959896087646,3.824287176132202,0.1771777719259262,0.22178524732589722,0.37341752648353577,0.9934618473052979
8,20328,20326,0.016883090138435364,-0.14753220975399017,1.056903600692749,-1.7605959177017212,-0.9604474902153015,1.9913362264633179,1.86542809009552,3.8268587589263916,0.17953729629516602,0.02686355821788311,0.47775331139564514,0.9830072522163391
9,20338,20336,0.054231662303209305,-0.053853839635849,1.0404279232025146,4.798431873321533,-1.568939447402954,2.643462657928467,1.8685957193374634,3.827989339828491,0.18221540749073029,0.0886387899518013,0.5733935236930847,1.0180634260177612
10,20348,20346,0.030719608068466187,0.08521066606044769,1.028311848640442,11.019610404968262,-2.7348976135253906,2.5054023265838623,1.8686329126358032,3.830061912536621,0.18486709892749786,0.15567857027053833,0.8239683508872986,1.0558969974517822
11,20358,20356,0.011415430344641209,0.09758263826370239,1.016808032989502,10.89977741241455,-4.53519344329834,2.411276340484619,1.8680351972579956,3.8307783603668213,0.18667876720428467,0.18657106161117554,0.9293996095657349,1.0796010494232178
12,20368,20366,0.008999902755022049,0.10513361543416977,1.0283854007720947,6.257895469665527,-7.2656731605529785,3.058549642562866,1.8671159744262695,3.829339027404785,0.18890298902988434,0.2478683739900589,0.9226130247116089,1.1059939861297607
13,20378,20376,0.018407991155982018,-0.008651789277791977,1.0431805849075317,-0.9698018431663513,-5.223541259765625,2.588139772415161,1.8703304529190063,3.8335227966308594,0.19309738278388977,0.5121570229530334,1.005026936531067,1.1680995225906372
14,20388,20386,0.008421888574957848,-0.011646567843854427,1.0152561664581299,-6.257918834686279,-3.849635124206543,2.105404853820801,1.868949055671692,3.8335111141204834,0.19369947910308838,0.717504620552063,0.9714707732200623,1.22147536277771
15,20398,20396,0.0019777952693402767,0.01891486905515194,0.9491791129112244,-10.348390579223633,0.2961353063583374,2.296005964279175,1.8673444986343384,3.8351244926452637,0.19612736999988556,0.7157858610153198,0.5673143267631531,1.2470035552978516
16,20408,20406,0.02872139774262905,-0.003359353868290782,0.9195966720581055,-10.155774116516113,2.194133996963501,2.5442514419555664,1.8684773445129395,3.8385956287384033,0.19874761998653412,0.8175238370895386,0.4706416726112366,1.287940263748169
17,20418,20416,0.0701860710978508,-0.15798531472682953,0.9834438562393188,-10.18312931060791,3.810356855392456,3.839637279510498,1.8682783842086792,3.8393211364746094,0.20115461945533752,1.0859447717666626,0.37246909737586975,1.364213466644287
18,20428,20426,0.03785980865359306,-0.18149523437023163,1.035017967224121,-0.32789871096611023,8.20709228515625,2.1971852779388428,1.8663462400436401,3.8414714336395264,0.20312318205833435,0.8214665055274963,0.3542666435241699,1.3565003871917725
19,20438,20436,0.002861511195078492,0.0530376099050045,0.9466069936752319,2.8486828804016113,11.425155639648438,2.5253381729125977,1.867750883102417,3.84145188331604,0.20649193227291107,0.5743516087532043,0.36255404353141785,1.3562575578689575
20,20448,20446,0.025748735293745995,-0.06199817731976509,0.9660959839820862,6.195769309997559,15.359572410583496,2.4192066192626953,1.868384838104248,3.8426949977874756,0.20909789204597473,0.29204079508781433,0.49316534399986267,1.3528536558151245
21,20458,20456,-0.0024699270725250244,-0.1269598752260208,1.0380839109420776,6.711231708526611,12.830403327941895,2.6898155212402344,1.8700729608535767,3.8438010215759277,0.21189381182193756,-1.058600902557373,0.648211658000946,1.2190537452697754
22,20468,20466,0.025502128526568413,-0.14597639441490173,0.9591243267059326,7.6672892570495605,10.108147621154785,2.7293241024017334,1.8795584440231323,3.843822956085205,0.2139482945203781,-0.4609333276748657,0.7944884300231934,1.3402283191680908
23,20478,20476,-0.04489344358444214,-0.055834148079156876,1.0521256923675537,5.5413055419921875,3.6088149547576904,2.4145755767822266,1.874830961227417,3.843276023864746,0.22104007005691528,-0.7866050601005554,0.911231517791748,1.3343425989151
24,20488,20486,0.0702793300151825,0.02391229197382927,0.9439197182655334,0.5308923721313477,-7.184309005737305,2.6387834548950195,1.877864122390747,3.8427510261535645,0.22112171351909637,-0.713797926902771,0.9680513143539429,1.3647936582565308
25,20498,20496,0.13252022862434387,-0.032031457871198654,0.938936710357666,-4.967875957489014,-19.104358673095703,3.021120309829712,1.8777847290039062,3.842123031616211,0.22369851171970367,1.0390065908432007,1.1450588703155518,1.6268130540847778
26,20508,20506,0.07716748863458633,-0.06207197532057762,0.9711105823516846,-8.937141418457031,-27.260345458984375,1.6087726354599,1.8647749423980713,3.8401966094970703,0.22956377267837524,1.3087568283081055,1.0731004476547241,1.6534310579299927
27,20518,20516,-0.0038079346995800734,-0.02808852680027485,0.9688040018081665,-12.151612281799316,-22.446338653564453,1.5721408128738403,1.863054633140564,3.8391127586364746,0.23036646842956543,1.5198373794555664,0.8664631247520447,1.6582834720611572
28,20528,20526,0.003770747920498252,-0.07572746276855469,0.915488600730896,-15.219839096069336,-10.986308097839355,1.6229422092437744,1.863039493560791,3.839975118637085,0.2331324815750122,1.2789239883422852,0.907439112663269,1.5937442779541016
29,20538,20536,0.029780935496091843,-0.09520760923624039,0.8736696243286133,-16.388273239135742,9.532976150512695,1.5351969003677368,1.865634799003601,3.837561845779419,0.23725241422653198,1.1515334844589233,0.6041898131370544,1.595979928970337
30,20548,20546,-0.00649577472358942,-0.00331816915422678,0.975002646446228,-15.569252967834473,22.99370002746582,1.4882882833480835,1.8658182621002197,3.838387966156006,0.23648221790790558,0.930653989315033,0.45955196022987366,1.6031978130340576
31,20558,20556,-0.059671446681022644,0.04493854194879532,0.9728459715843201,-14.28525161743164,32.49176788330078,1.9343609809875488,1.865781307220459,3.838029384613037,0.23869498074054718,0.5190174579620361,0.25238174200057983,1.6096899509429932
32,20568,20566,-0.1141633540391922,0.08311968296766281,0.9548963904380798,-12.004465103149414,35.735294342041016,2.0815467834472656,1.8657724857330322,3.8380556106567383,0.24092213809490204,-0.12365759164094925,0.08837389945983887,1.599084496498108
33,20578,20576,-0.1059378832578659,0.10068385303020477,0.9313080906867981,-9.271330833435059,33.050254821777344,2.154204845428467,1.8686718940734863,3.8387231826782227,0.24297185242176056,-0.42049703001976013,0.18897585570812225,1.6170166730880737
34,20588,20586,-0.048843372613191605,0.07700008898973465,0.8879017233848572,-4.867161273956299,20.04986572265625,2.616316556930542,1.867602825164795,3.836634874343872,0.24285674095153809,-0.5785885453224182,0.180318221449852,1.654028058052063
35,20598,20596,-0.006619318854063749,0.06975635141134262,0.8931694626808167,-3.3398115634918213,5.193049907684326,2.864621877670288,1.8666133880615234,3.83670711517334,0.24474696815013885,-0.7444866299629211,0.2088596075773239,1.6802890300750732
36,20608,20606,-0.0019033878343179822,0.07144878059625626,0.9599637985229492,-3.349667549133301,-8.063779830932617,2.659181594848633,1.8677128553390503,3.8354434967041016,0.24643567204475403,-0.742453396320343,0.09689798206090927,1.706220030784607
37,20618,20616,0.0023156036622822285,-0.0015236538602039218,0.975800633430481,-3.759047508239746,-15.64107894897461,2.7095565795898438,1.8671503067016602,3.835942029953003,0.24630221724510193,-0.7770132422447205,0.13206030428409576,1.7225428819656372
38,20628,20626,-0.016817521303892136,-0.04717738926410675,0.9573180079460144,-5.771466255187988,-19.649930953979492,2.8047287464141846,1.8678306341171265,3.8349924087524414,0.24780337512493134,-0.5469843149185181,-0.013954260386526585,1.747881531715393
39,20638,20636,0.01825367473065853,-0.09058351814746857,0.9629242420196533,-8.085748672485352,-17.430477142333984,1.9176563024520874,1.868257999420166,3.835829973220825,0.24947573244571686,-0.5556185841560364,-0.038175567984580994,1.7655693292617798
40,20648,20646,-0.04004663601517677,-0.01970708556473255,0.9713711142539978,-9.685284614562988,-13.872546195983887,1.9336453676223755,1.8702926635742188,3.8353893756866455,0.25180643796920776,-0.2817609906196594,-0.24033385515213013,1.7869572639465332
41,20658,20656,-0.046254925429821014,0.029902460053563118,0.9544012546539307,-9.12157154083252,-9.884178161621094,2.5093398094177246,1.8698515892028809,3.83600115776062,0.2534504234790802,-0.16157284379005432,-0.36180123686790466,1.808383584022522
42,20668,20666,-0.026405533775687218,0.056489065289497375,0.936904788017273,-7.347531318664551,-4.556116580963135,2.7153918743133545,1.8705271482467651,3.836275577545166,0.254984050989151,-0.04153641685843468,-0.3158584535121918,1.844393253326416
43,20678,20676,0.01462180819362402,0.03639255836606026,0.9330852627754211,-4.374374866485596,1.6334458589553833,2.827707052230835,1.870214581489563,3.834663152694702,0.2548666298389435,-0.020853640511631966,-0.3901117146015167,1.870981216430664
44,20688,20686,0.07355935126543045,-0.010364968329668045,0.9460899233818054,-2.318054437637329,4.954688549041748,3.004765748977661,1.8715120553970337,3.8350393772125244,0.25613266229629517,-0.07040908187627792,-0.3466776907444,1.9019867181777954
45,20698,20696,0.10562903434038162,-0.06849653273820877,0.964605450630188,-1.1106265783309937,5.457464218139648,2.7183542251586914,1.8729422092437744,3.83502459526062,0.25727662444114685,-0.21657393872737885,-0.4273809790611267,1.9236890077590942
46,20708,20706,0.10809731483459473,-0.14996305108070374,0.9716985821723938,-0.5552562475204468,3.858137845993042,2.7411606311798096,1.874193787574768,3.835197925567627,0.2584586441516876,-0.27492794394493103,-0.4909510910511017,1.9445316791534424
47,20718,20716,0.04474133253097534,-0.14344312250614166,1.0037988424301147,-1.54921293258667,0.42989227175712585,2.074100971221924,1.874336838722229,3.8355653285980225,0.25801748037338257,-0.29118430614471436,-0.5521201491355896,1.9631431102752686
48,20728,20726,0.015317406505346298,-0.12251206487417221,0.960400402545929,-2.25618839263916,-1.965674877166748,2.186232089996338,1.8745007514953613,3.835758686065674,0.2590460479259491,-0.26452699303627014,-0.4745761454105377,1.9904873371124268
49,20738,20736,0.07831645011901855,-0.10938650369644165,0.8171268105506897,-1.5312037467956543,-3.285756826400757,2.00634765625,1.8751882314682007,3.8346407413482666,0.26001331210136414,-0.22386570274829865,-0.5471511483192444,2.0064163208007812
50,20748,20746,0.1340862661600113,-0.14461298286914825,0.7931198477745056,-2.4245269298553467,-5.148324966430664,2.692183256149292,1.8755782842636108,3.836089611053467,0.25903865694999695,-0.22037984430789948,-0.5473871827125549,2.0327539443969727
51,20758,20756,0.07192147523164749,-0.10446449369192123,0.9116854071617126,-2.078559637069702,-10.613402366638184,2.8858797550201416,1.874687671661377,3.8358078002929688,0.2594704329967499,-0.281270295381546,-0.6217416524887085,2.0661635398864746
52,20768,20766,-0.010068723931908607,-0.12881968915462494,0.9929596185684204,-1.4559900760650635,-10.603800773620605,3.5799801349639893,1.8767279386520386,3.838019847869873,0.2598789632320404,-0.071108378469944,-0.5993272662162781,2.0946128368377686
53,20778,20776,0.023530911654233932,-0.17421557009220123,1.0017610788345337,-0.5317747592926025,-8.221332550048828,3.4163691997528076,1.8773113489151,3.8386452198028564,0.26127326488494873,0.025954093784093857,-0.6424587368965149,2.1312642097473145
54,20788,20786,-0.007663707714527845,-0.03658226877450943,1.01687753200531,1.1196707487106323,-10.076784133911133,3.704171657562256,1.8782901763916016,3.8392677307128906,0.2617613673210144,0.19263623654842377,-0.6615898609161377,2.1608171463012695
55,20798,20796,0.002480644267052412,-0.07626018673181534,0.9641317129135132,1.093371868133545,-3.183570146560669,3.449373245239258,1.8781598806381226,3.8406269550323486,0.262225866317749,0.2168216109275818,-0.6674249768257141,2.198578119277954
56,20808,20806,-0.04261878505349159,0.01889251358807087,1.0190564393997192,2.1122078895568848,-1.3393009901046753,4.1905622482299805,1.8792942762374878,3.840371608734131,0.2627165913581848,0.19150497019290924,-0.6573177576065063,2.2395009994506836
57,20818,20816,0.0059714470990002155,-0.023117341101169586,0.9898446202278137,2.0022897720336914,0.2699436545372009,3.745999336242676,1.880663514137268,3.843395471572876,0.2615167200565338,0.2037414014339447,-0.6389936208724976,2.2759382724761963
58,20828,20826,-0.001876417314633727,-0.07750917226076126,1.0227082967758179,2.016120672225952,1.7576298713684082,3.6910600662231445,1.882333517074585,3.844477415084839,0.2618979215621948,0.19253785908222198,-0.5478265881538391,2.314176082611084
59,20838,20836,0.012220140546560287,-0.13232821226119995,0.9462310671806335,3.2202417850494385,-0.9330611228942871,4.054080009460449,1.8825255632400513,3.8442118167877197,0.2623080909252167,0.19745929539203644,-0.5224722027778625,2.351336717605591
60,20848,20846,-0.03963186591863632,0.021260112524032593,1.0254775285720825,4.761183261871338,-2.3005547523498535,3.361492156982422,1.8822383880615234,3.844762086868286,0.26502442359924316,0.24226421117782593,-0.4767052233219147,2.387019157409668
61,20858,20856,-0.025853874161839485,0.0676022469997406,0.9727546572685242,2.8522069454193115,-3.9619622230529785,4.847322940826416,1.8824831247329712,3.8444104194641113,0.26553359627723694,0.3021240234375,-0.3581242859363556,2.4229657649993896
62,20868,20866,0.026974886655807495,-0.12096603214740753,1.0403478145599365,2.8638620376586914,-5.441769123077393,4.011009693145752,1.882948637008667,3.8443453311920166,0.26598605513572693,0.38250967860221863,-0.4115802049636841,2.4642891883850098
63,20878,20876,0.02197006717324257,-0.0912979245185852,1.0261657238006592,1.2728946208953857,-2.8581435680389404,4.026355266571045,1.8836047649383545,3.8459417819976807,0.2668691873550415,0.43206343054771423,-0.3973173499107361,2.5048489570617676
64,20888,20886,0.05548451840877533,-0.0396646112203598,0.9869765639305115,-0.7479696273803711,2.8612492084503174,3.8785836696624756,1.8832707405090332,3.8465330600738525,0.2674565315246582,0.5753352642059326,-0.33751431107521057,2.5348167419433594
65,20898,20896,0.058695390820503235,-0.04222823679447174,1.0260564088821411,-1.9244171380996704,1.9740842580795288,3.6456332206726074,1.8824315071105957,3.847778797149658,0.26796531677246094,0.522752583026886,-0.38568973541259766,2.576345682144165
66,20908,20906,0.0335836298763752,-0.13813233375549316,1.0110138654708862,-0.79172682762146,2.671733856201172,3.3444464206695557,1.88291335105896,3.847986936569214,0.2685803771018982,0.31961527466773987,-0.42324090003967285,2.6270949840545654
67,20918,20916,0.01818065345287323,-0.06714552640914917,0.9845564961433411,-1.8726496696472168,5.316453456878662,3.8556206226348877,1.8846758604049683,3.849900722503662,0.2712865173816681,0.40503033995628357,-0.46385103464126587,2.6558961868286133
68,20928,20926,0.020694797858595848,-0.03910808637738228,1.0106273889541626,0.16985559463500977,4.456979751586914,3.221043586730957,1.8840279579162598,3.8504908084869385,0.27198609709739685,0.3163233995437622,-0.4799010753631592,2.694826126098633
69,20938,20936,-0.0007764354231767356,-0.01099245622754097,1.0343137979507446,2.7359001636505127,4.43787145614624,3.089306116104126,1.8842895030975342,3.850609540939331,0.2727257013320923,0.23532558977603912,-0.46144771575927734,2.7304351329803467
70,20948,20946,0.03761802986264229,-0.017185857519507408,0.9603316187858582,4.434854030609131,7.423170566558838,2.237522840499878,1.8858075141906738,3.8515536785125732,0.2760631740093231,0.13904008269309998,-0.4104746878147125,2.763218402862549
71,20958,20956,0.02932022139430046,0.008388912305235863,0.9189149141311646,5.17768669128418,7.637211799621582,2.3629376888275146,1.8866918087005615,3.8512558937072754,0.2769009470939636,0.03607907518744469,-0.4842860996723175,2.792654275894165
72,20968,20966,0.01688971184194088,-0.02350623533129692,0.9694353342056274,5.339395046234131,-0.9057115316390991,2.426098585128784,1.8871731758117676,3.8530259132385254,0.277665913105011,0.018536409363150597,-0.3146548569202423,2.8128461837768555
73,20978,20976,-0.0372881256043911,0.03676501661539078,1.03476881980896,5.828235626220703,-5.910208702087402,2.3633995056152344,1.8877004384994507,3.8524882793426514,0.2804147005081177,0.18339306116104126,-0.21842533349990845,2.8334763050079346
74,20988,20986,-0.013123243115842342,-0.010065310634672642,0.9942548871040344,5.57993221282959,-4.259257793426514,2.396742820739746,1.8869078159332275,3.8521292209625244,0.2813253104686737,-0.9421644806861877,-0.810490071773529,2.9241092205047607
75,20998,20996,0.008205759339034557,0.013590693473815918,0.9663780927658081,2.061272144317627,-3.4400196075439453,2.2742245197296143,1.8982561826705933,3.8598573207855225,0.2825973927974701,-0.8172879219055176,-0.6896358728408813,2.9438533782958984
76,21008,21006,0.024886304512619972,-0.02145758830010891,1.011146068572998,2.1334660053253174,-7.738744735717773,1.2684837579727173,1.899078607559204,3.859429121017456,0.283224493265152,-0.5872557163238525,-0.6730406880378723,2.952087879180908
77,21018,21016,0.04042448848485947,-0.05221864581108093,0.9953978657722473,5.609593868255615,-13.900191307067871,0.9315169453620911,1.8989547491073608,3.8620388507843018,0.284511923789978,-0.3551802933216095,-0.6190528869628906,2.9590179920196533
78,21028,21026,0.017416372895240784,0.012422638945281506,0.9225897192955017,9.023012161254883,-17.797536849975586,0.29387861490249634,1.8991951942443848,3.8626623153686523,0.28563812375068665,-0.1981908082962036,-0.35289818048477173,2.977968215942383
79,21038,21036,0.034163087606430054,0.00013245065929368138,0.9034683108329773,13.767637252807617,-21.280315399169922,0.8616921901702881,1.8999711275100708,3.861532211303711,0.28664544224739075,0.17881831526756287,-0.18525758385658264,2.9769670963287354
80,21048,21046,0.033430080860853195,-0.05322477966547012,0.966193437576294,16.63130760192871,-26.538925170898438,1.0565147399902344,1.8981181383132935,3.8607773780822754,0.28624793887138367,0.3098507523536682,-0.03704660013318062,2.9932422637939453
81,21058,21056,0.052760034799575806,-0.15728452801704407,1.053544044494629,15.302603721618652,-23.836395263671875,1.0303573608398438,1.8995364904403687,3.861262559890747,0.28693294525146484,0.6569938063621521,0.10329414904117584,2.9999148845672607
82,21068,21066,0.054829735308885574,-0.10395021736621857,0.9470568895339966,13.009796142578125,-20.30154037475586,0.997564435005188,1.9003307819366455,3.862226724624634,0.28840363025665283,1.0177695751190186,0.37047407031059265,3.0032241344451904
83,21078,21076,0.02136465162038803,-0.03486886993050575,0.9512343406677246,8.111124992370605,-11.799335479736328,1.0427980422973633,1.8992893695831299,3.8609583377838135,0.2879233658313751,1.3217518329620361,0.47393324971199036,3.005711317062378
84,21088,21086,0.14193104207515717,-0.1550595909357071,0.9399576783180237,1.9192317724227905,-5.512048244476318,0.5841583013534546,1.8988797664642334,3.8615944385528564,0.28910449147224426,1.4749935865402222,0.5579451322555542,3.0088295936584473
85,21098,21096,0.09647438675165176,-0.12047115713357925,1.009312629699707,-2.8595166206359863,-0.6945210099220276,0.02200325019657612,1.8988221883773804,3.861888885498047,0.28954994678497314,1.45511794090271,0.5489894151687622,3.0123486518859863
86,21108,21106,0.0003065561468247324,-0.026880905032157898,0.995689868927002,-4.900643348693848,4.5690388679504395,-0.9001150131225586,1.8997578620910645,3.8622303009033203,0.29335489869117737,1.429795503616333,0.4878501296043396,3.0124752521514893
87,21118,21116,-0.05617836117744446,0.05019151791930199,0.9759392738342285,-6.634875774383545,10.38917350769043,-0.47046056389808655,1.8997106552124023,3.8624088764190674,0.29335519671440125,1.393939733505249,0.39831671118736267,3.0105552673339844
88,21128,21126,0.03393646702170372,-0.034415215253829956,0.9420996308326721,-5.647441864013672,11.203489303588867,-0.13226927816867828,1.8996530771255493,3.862813949584961,0.29403582215309143,1.2404648065567017,0.4678269028663635,2.994370460510254
89,21138,21136,0.012837092392146587,-0.000982636003755033,1.0021998882293701,-2.659625291824341,9.656241416931152,-0.0766943171620369,1.9004569053649902,3.86137056350708,0.2953403890132904,1.2542873620986938,0.40786945819854736,3.000964641571045
90,21148,21146,0.02242729254066944,-0.01797889731824398,0.9897280931472778,-0.02819148078560829,3.4639041423797607,0.1838308721780777,1.8995805978775024,3.861708641052246,0.2976195514202118,1.162077784538269,0.3983745574951172,3.000566005706787
91,21158,21156,-0.005730629898607731,0.04160718992352486,1.0256539583206177,2.2495651245117188,1.9911110401153564,-0.18941651284694672,1.9001988172531128,3.8619463443756104,0.2991505265235901,1.2782586812973022,0.4231902062892914,3.007594347000122
92,21168,21166,-0.05493383854627609,0.14383967220783234,0.9961133599281311,3.037745237350464,2.5982561111450195,-0.13929621875286102,1.8990342617034912,3.86197566986084,0.2990994155406952,1.2367937564849854,0.5454347133636475,2.991992473602295
93,21178,21176,0.013285599648952484,0.1277376115322113,0.9046804904937744,2.68302059173584,0.8759928345680237,0.22149457037448883,1.8997288942337036,3.8608391284942627,0.2999213933944702,1.287320852279663,0.5803742408752441,2.996640205383301
94,21188,21186,0.04735869914293289,0.04250515624880791,0.9705486297607422,0.29467055201530457,1.2570171356201172,0.04470802843570709,1.8985828161239624,3.860464096069336,0.30066367983818054,1.2319880723953247,0.5879498720169067,2.996969699859619
95,21198,21196,0.041312724351882935,-0.03278336673974991,0.9486971497535706,-2.192103862762451,4.604650497436523,-1.1631990671157837,1.8990830183029175,3.8603460788726807,0.301392525434494,1.1618906259536743,0.54946368932724,2.9964451789855957
96,21208,21206,0.04122421517968178,-0.1118614673614502,0.9195840954780579,-4.407018184661865,6.597242832183838,-1.0515553951263428,1.8992934226989746,3.8602569103240967,0.3050609529018402,1.2851250171661377,0.5533103942871094,2.993101119995117
97,21218,21216,0.024844160303473473,-0.08199668675661087,0.9414334297180176,-6.450862884521484,6.9003376960754395,-0.5680679678916931,1.898058533668518,3.8610198497772217,0.3050210475921631,1.2119170427322388,0.49648669362068176,2.9869916439056396
98,21228,21226,-0.07434217631816864,0.042531855404376984,0.9251373410224915,-6.831831455230713,9.0859375,-0.5366861820220947,1.8975415229797363,3.860534906387329,0.30565232038497925,1.1968226432800293,0.47023794054985046,2.978255271911621
99,21238,21236,-0.0028716493397951126,-0.04163839668035507,0.9547778964042664,-6.942409038543701,8.237265586853027,0.05683271586894989,1.8969758749008179,3.8600077629089355,0.30676931142807007,1.0732271671295166,0.3337939381599426,2.9832379817962646
100,21248,21246,0.03027879260480404,-0.06308779120445251,0.9551360011100769,-5.878945350646973,16.148441314697266,-0.9136602878570557,1.8975346088409424,3.8605806827545166,0.31000372767448425,1.0114744901657104,0.29857030510902405,2.9802162647247314
101,21258,21256,0.025615787133574486,-0.033624131232500076,0.9339452981948853,-4.248321056365967,11.53507137298584,-0.9765220284461975,1.896665334701538,3.8600165843963623,0.3106662929058075,0.8872987031936646,0.3527674078941345,2.9573867321014404
102,21268,21266,-0.07757852971553802,0.05650290101766586,0.9406153559684753,-4.572727680206299,14.322067260742188,-0.8486793637275696,1.8963048458099365,3.8598783016204834,0.3112780451774597,0.7547019720077515,0.2489672154188156,2.9576945304870605
103,21278,21276,0.002048671478405595,-0.03695140406489372,0.9270641803741455,-4.126962184906006,14.569351196289062,-0.9426987767219543,1.8959897756576538,3.85957670211792,0.3132433295249939,0.5352488160133362,0.2304154336452484,2.9421119689941406
104,21288,21286,0.00732644647359848,0.09142757207155228,0.9699966311454773,-4.830662727355957,13.142486572265625,-0.8971471190452576,1.8962351083755493,3.8592073917388916,0.3143833875656128,0.33885806798934937,0.28479963541030884,2.916625738143921
105,21298,21296,-0.06262471526861191,0.1321602463722229,1.021105408668518,-4.359364032745361,8.880047798156738,-0.5363749861717224,1.897574782371521,3.858071804046631,0.3144112825393677,0.598166823387146,0.17278698086738586,2.939148426055908
106,21308,21306,0.010102703236043453,-0.013840117491781712,0.9445639252662659,-4.366774559020996,9.252827644348145,-1.585216760635376,1.8940495252609253,3.8581156730651855,0.3133527934551239,0.45507776737213135,0.0684080719947815,2.9344727993011475
107,21318,21316,0.02523430995643139,0.01593894325196743,0.9118883013725281,-5.470815181732178,6.280663013458252,-1.146834135055542,1.8938734531402588,3.8584985733032227,0.3138272762298584,0.2512035369873047,0.03226625546813011,2.9111363887786865
108,21328,21326,0.025172393769025803,-0.004603625275194645,0.9539084434509277,-5.502695083618164,10.895160675048828,-1.0821533203125,1.8947306871414185,3.858102798461914,0.31429293751716614,0.13469122350215912,-0.007056809961795807,2.8946521282196045
109,21338,21336,0.07449344545602798,-0.06632295250892639,0.9768312573432922,-5.71146297454834,8.875614166259766,-0.5025297403335571,1.8941570520401,3.8583149909973145,0.31465664505958557,0.0731564313173294,-0.1244775727391243,2.89119815826416
110,21348,21346,0.07218493521213531,-0.1833699494600296,1.0167709589004517,-3.967723846435547,5.957510948181152,-0.41639241576194763,1.8937203884124756,3.8585493564605713,0.3135679066181183,-0.04558156058192253,-0.142083540558815,2.881366014480591
111,21358,21356,-0.004528227727860212,-0.1839853674173355,1.054195523262024,-2.3920884132385254,5.255953788757324,-0.8353622555732727,1.8937532901763916,3.858281373977661,0.3137598931789398,-0.07313761860132217,-0.21323709189891815,2.8779900074005127
112,21368,21366,-0.08545855432748795,-0.20946913957595825,1.0189698934555054,-0.3776357173919678,8.277995109558105,-0.8086353540420532,1.8928507566452026,3.858992099761963,0.31394875049591064,-0.08783993124961853,-0.02424885891377926,2.8637502193450928
113,21378,21376,-0.054814260452985764,-0.04552266374230385,0.9449772834777832,-1.364066243171692,17.219465255737305,-0.5732998847961426,1.892435073852539,3.8566198348999023,0.31412366032600403,-0.3294093906879425,-0.08091069757938385,2.8546841144561768
114,21388,21386,-0.02392229065299034,0.06796296685934067,0.9588180184364319,-3.056889772415161,24.611957550048828,-0.4687874913215637,1.893088936805725,3.857652187347412,0.31438103318214417,-0.6130838990211487,-0.16156767308712006,2.8482820987701416
115,21398,21396,0.02478797733783722,-0.04635866358876228,0.9160903692245483,-4.38654899597168,28.63282585144043,-0.4552801847457886,1.8940813541412354,3.8578484058380127,0.3145887851715088,-0.6734625101089478,-0.1796855479478836,2.847058057785034
116,21408,21406,0.027561882510781288,0.002989307278767228,1.0492929220199585,-6.322151184082031,28.034624099731445,-0.9671487808227539,1.8920890092849731,3.858266592025757,0.3138955235481262,-1.0636588335037231,-0.15903404355049133,2.8391225337982178
117,21418,21416,0.10249584168195724,-0.1390703171491623,1.0330179929733276,-6.068904399871826,25.588056564331055,-0.9149031639099121,1.892014741897583,3.8567259311676025,0.3140406012535095,-1.2505720853805542,-0.3024323880672455,2.8283469676971436
118,21428,21426,0.01848229020833969,-0.06012573465704918,0.988618016242981,-5.291252136230469,27.22606086730957,-1.2653623819351196,1.8917429447174072,3.857463836669922,0.31411850452423096,-1.5806022882461548,-0.34834223985671997,2.818568229675293
119,21438,21436,0.018222087994217873,0.0023540162947028875,0.9360356330871582,-3.695347547531128,16.976619720458984,-0.8113663792610168,1.8922497034072876,3.8573057651519775,0.3150586187839508,-1.819311499595642,-0.3760707974433899,2.8089823722839355
120,21448,21446,0.07734912633895874,-0.10327169299125671,0.967197060585022,-2.8829967975616455,13.163137435913086,-0.70921391248703,1.892431616783142,3.8566768169403076,0.31520241498947144,-1.8311693668365479,-0.4551835358142853,2.791522979736328
121,21458,21456,0.010723695158958435,-0.13491080701351166,1.0283124446868896,-0.5889551043510437,7.363809585571289,-0.5761637091636658,1.8903214931488037,3.8571043014526367,0.31540748476982117,-1.960740327835083,-0.5011387467384338,2.781275749206543
122,21468,21466,-0.013076764531433582,-0.05762150511145592,0.9498715400695801,0.4006982445716858,4.267920017242432,0.047826170921325684,1.8893299102783203,3.8566203117370605,0.3156658411026001,-2.096284866333008,-0.5174582004547119,2.7753145694732666
123,21478,21476,0.007011159788817167,-0.03078649565577507,0.9736546874046326,0.6959068775177002,5.522010803222656,0.3872419595718384,1.8902312517166138,3.856513261795044,0.3177858293056488,-2.2050108909606934,-0.5237802863121033,2.773545980453491
124,21488,21486,0.15141582489013672,-0.1575973778963089,0.9952985048294067,0.5704878568649292,3.8662607669830322,0.4845360517501831,1.8907690048217773,3.8566274642944336,0.3179647922515869,-2.2428674697875977,-0.5281097888946533,2.7759063243865967
125,21498,21496,0.08543024212121964,-0.12997786700725555,1.0326546430587769,0.8402627110481262,3.3318939208984375,0.4450558125972748,1.8908195495605469,3.856483221054077,0.3182050287723541,-2.10585880279541,-0.45625099539756775,2.7908098697662354
126,21508,21506,0.050376370549201965,-0.08713721483945847,0.9344240427017212,0.6732680201530457,4.688279151916504,0.45188167691230774,1.8887364864349365,3.855937957763672,0.31727930903434753,-2.2973973751068115,-0.4636549949645996,2.7982285022735596
127,21518,21516,0.004173582885414362,-0.03269869461655617,0.9631860852241516,0.9081010818481445,5.667311668395996,0.4751123785972595,1.8901065587997437,3.8556158542633057,0.317495733499527,-2.3313488960266113,-0.4654792845249176,2.796616315841675
128,21528,21526,-0.011122516356408596,-0.010105361230671406,0.9797953367233276,0.10420846939086914,7.848028659820557,0.877128005027771,1.8901188373565674,3.8553497791290283,0.317527711391449,-2.4665582180023193,-0.46371495723724365,2.8012516498565674
129,21538,21536,0.062136244028806686,-0.19428245723247528,0.9554147720336914,0.2089846283197403,3.359055519104004,1.0342352390289307,1.8904204368591309,3.855170249938965,0.316964715719223,-2.5739872455596924,-0.4736909866333008,2.8082635402679443
130,21548,21546,0.0023082552943378687,-0.17827947437763214,1.0305696725845337,1.0723930597305298,5.617797374725342,0.6464150547981262,1.8911086320877075,3.854949951171875,0.3169768452644348,-2.6535539627075195,-0.4708331823348999,2.816784143447876
131,21558,21556,0.03135621175169945,-0.04971255734562874,0.9608176350593567,1.4358582496643066,1.8900786638259888,0.9610585570335388,1.8915345668792725,3.855177879333496,0.3169478178024292,-2.6921956539154053,-0.46088090538978577,2.8241140842437744
132,21568,21566,-0.0063722277991473675,0.051465753465890884,0.9818796515464783,1.0402448177337646,0.06706597656011581,1.0661040544509888,1.892051100730896,3.8542447090148926,0.3169488310813904,-2.6912999153137207,-0.4491896629333496,2.833970069885254
133,21578,21576,0.05595399811863899,-0.10439521074295044,0.930637538433075,1.173806071281433,-2.192939281463623,0.91664719581604,1.8925371170043945,3.8545384407043457,0.3148963451385498,-2.5720551013946533,-0.440246045589447,2.8367929458618164
134,21588,21586,0.0010887379758059978,-0.03880633786320686,0.9920163154602051,1.9874955415725708,-5.472109317779541,0.7457674741744995,1.8911502361297607,3.8541431427001953,0.31498953700065613,-2.4879205226898193,-0.41844603419303894,2.845435619354248
135,21598,21596,-0.04371066018939018,0.0566239096224308,0.9334185719490051,3.626600980758667,-3.5380172729492188,0.6257420182228088,1.8910102844238281,3.8538966178894043,0.3148159086704254,-2.3894498348236084,-0.3764406144618988,2.856421709060669
136,21608,21606,-0.03594217449426651,0.10614913702011108,0.9378548264503479,3.4457902908325195,-2.999765396118164,1.4240614175796509,1.8905668258666992,3.8538732528686523,0.3129349648952484,-2.4712255001068115,-0.32554036378860474,2.8817217350006104
137,21618,21616,0.002328363945707679,0.08823022246360779,0.9939172267913818,3.121198892593384,-2.1386709213256836,1.4012113809585571,1.8922559022903442,3.8536181449890137,0.3125038743019104,-2.4826762676239014,-0.2780875563621521,2.90120005607605
138,21628,21626,-0.0058053708635270596,0.017942015081644058,1.091454267501831,2.207303047180176,-3.130762815475464,0.7276651859283447,1.89313542842865,3.8531813621520996,0.31207412481307983,-2.559434175491333,-0.405154287815094,2.8569462299346924
139,21638,21636,-0.047267165035009384,0.08802630007266998,1.0354773998260498,0.5987471342086792,-1.044621229171753,1.4102853536605835,1.894940733909607,3.855555772781372,0.3084295988082886,-2.473214864730835,-0.37579545378685,2.865994930267334
140,21648,21646,-0.01128057949244976,0.015702225267887115,1.028390645980835,0.1545170694589615,-1.738302230834961,1.5940585136413574,1.895108699798584,3.8555636405944824,0.30851420760154724,-2.4758694171905518,-0.28730854392051697,2.9167063236236572
141,21658,21656,0.01864706538617611,0.030113887041807175,1.0715080499649048,0.6654190421104431,-6.5627760887146,0.5931035280227661,1.8958404064178467,3.8553690910339355,0.3080245852470398,-2.4171900749206543,-0.2863342761993408,2.928443670272827
142,21668,21666,0.004410033579915762,0.06615067273378372,1.0418907403945923,0.6578390598297119,-7.722255229949951,0.5897842049598694,1.8963319063186646,3.855025053024292,0.30760809779167175,-2.3814587593078613,-0.27605220675468445,2.937288761138916
143,21678,21676,-0.06689558923244476,0.18418005108833313,0.9902840852737427,-1.081541895866394,-12.023065567016602,0.6481034159660339,1.8976408243179321,3.8557965755462646,0.3045590817928314,-2.2283411026000977,-0.2892465889453888,2.934105396270752
144,21688,21686,-0.01183911133557558,0.032290954142808914,1.0128138065338135,-0.12901785969734192,-11.938530921936035,0.6519421339035034,1.897090196609497,3.855846405029297,0.3041088879108429,-2.0388810634613037,-0.29468101263046265,2.936697244644165
145,21698,21696,0.01351586077362299,-0.03129135072231293,1.1231374740600586,1.0330888032913208,-12.378759384155273,0.8034983277320862,1.8977832794189453,3.855708360671997,0.30316489934921265,-1.997117280960083,-0.2846480906009674,2.9497597217559814
146,21708,21706,-0.043826114386320114,0.10690762102603912,1.0220744609832764,3.0427403450012207,-9.496071815490723,0.8288018703460693,1.8986399173736572,3.8556883335113525,0.30335161089897156,-1.9814159870147705,-0.1684170812368393,2.9989254474639893
147,21718,21716,-0.008764243684709072,0.25455138087272644,0.8670775294303894,1.610876441001892,-9.59572982788086,0.6196473240852356,1.9004822969436646,3.8552780151367188,0.30289819836616516,-1.8415719270706177,-0.11753112822771072,3.0024447441101074
148,21728,21726,-0.020632216706871986,0.030394673347473145,1.0337425470352173,1.128027081489563,-8.415319442749023,0.28186261653900146,1.9012435674667358,3.8549959659576416,0.3025876581668854,-1.9055663347244263,-0.26585426926612854,2.959552526473999
149,21738,21736,-0.03404981642961502,0.09274330735206604,1.0474339723587036,-0.1422867625951767,-8.107247352600098,0.34311071038246155,1.9032673835754395,3.8563411235809326,0.3012827932834625,-1.656663417816162,-0.2533567249774933,2.9589123725891113
150,21748,21746,-0.011001601815223694,0.1343696117401123,1.0407112836837769,-1.7859745025634766,-6.773745536804199,0.05765943229198456,1.9033043384552002,3.8562588691711426,0.30097106099128723,-1.6728261709213257,-0.2740895748138428,2.9639854431152344
151,21758,21756,0.028928009793162346,0.06585919111967087,1.094038963317871,-1.3749560117721558,-7.726778030395508,-0.3924602270126343,1.9052438735961914,3.8564395904541016,0.300411581993103,-1.7377090454101562,-0.29716452956199646,2.9663188457489014
152,21768,21766,-0.0020878841169178486,-0.03800031542778015,1.045686960220337,0.04777279123663902,-8.518754959106445,-0.8608340620994568,1.9076722860336304,3.8566839694976807,0.30051636695861816,-1.6439703702926636,-0.28927353024482727,2.966153144836426
153,21778,21776,-0.021913133561611176,0.07694874703884125,0.9753828048706055,0.5049114227294922,-10.977767944335938,-0.7165396213531494,1.9079893827438354,3.856750249862671,0.3003099262714386,-1.5170526504516602,-0.28197261691093445,2.9637019634246826
154,21788,21786,-0.02731289528310299,0.04417738690972328,1.105505347251892,2.8106958866119385,-14.884029388427734,-0.9112030267715454,1.9089040756225586,3.856703758239746,0.3001030385494232,-1.501596450805664,-0.2501123249530792,2.964325428009033
155,21798,21796,0.00956539623439312,-0.05743023380637169,1.0391682386398315,3.5865280628204346,-14.260843276977539,-1.0014102458953857,1.9106096029281616,3.8567638397216797,0.29978471994400024,-1.2998359203338623,-0.20703059434890747,2.963904619216919
156,21808,21806,0.008563495241105556,0.038427989929914474,0.9878280758857727,3.449772357940674,-15.022663116455078,-1.2078207731246948,1.9115850925445557,3.8565337657928467,0.3044641315937042,-1.1725720167160034,-0.1516706347465515,2.9606173038482666
157,21818,21816,-0.011255250312387943,0.04640268534421921,1.0010559558868408,2.179647922515869,-14.788342475891113,-0.8832637667655945,1.9134747982025146,3.8562538623809814,0.30466246604919434,-0.8671627044677734,-0.09668098390102386,2.9484665393829346
158,21828,21826,-0.02758052945137024,-0.07149320840835571,1.1412463188171387,2.967369794845581,-15.841992378234863,-1.45360267162323,1.9132049083709717,3.8563015460968018,0.304956316947937,-0.886797308921814,-0.20393481850624084,2.915839672088623
159,21838,21836,0.02349855564534664,-0.07100237905979156,1.0533641576766968,1.704612135887146,-11.75004768371582,-1.4327999353408813,1.9162006378173828,3.8583757877349854,0.30440056324005127,-0.5271003842353821,-0.15265999734401703,2.9050676822662354
160,21848,21846,0.029007738456130028,-0.05099581554532051,0.991748571395874,-1.6422815322875977,-6.377082824707031,-1.250434398651123,1.9158248901367188,3.8587663173675537,0.30486392974853516,-0.6160362362861633,-0.13203713297843933,2.8943984508514404
161,21858,21856,0.023929325863718987,-0.02312944456934929,1.0360043048858643,-1.4566574096679688,-5.6552863121032715,-1.8415520191192627,1.9186928272247314,3.859029531478882,0.30513328313827515,-0.519934892654419,-0.06250079721212387,2.8945705890655518
162,21868,21866,-0.01869063638150692,-0.0530531071126461,1.0605602264404297,-0.9146518707275391,-4.284951686859131,-1.3134385347366333,1.9199726581573486,3.8582284450531006,0.304321825504303,-0.5301441550254822,-0.08156929910182953,2.8784127235412598
163,21878,21876,-0.041461870074272156,0.03946754336357117,1.0021356344223022,-1.6084918975830078,-6.792094707489014,-1.0753228664398193,1.92136812210083,3.8585493564605713,0.3045879602432251,-0.36985790729522705,-0.252873033285141,2.8481130599975586
164,21888,21886,-0.019011491909623146,0.029511405155062675,1.027977466583252,-1.7053240537643433,-8.322290420532227,-1.1554034948349,1.922085165977478,3.860032081604004,0.30505460500717163,-0.346163272857666,-0.25465258955955505,2.837906837463379
165,21898,21896,0.008075527846813202,-0.012362693436443806,1.1033653020858765,1.2279633283615112,-10.10704231262207,-1.331924557685852,1.9241751432418823,3.860184669494629,0.30537113547325134,-0.14271330833435059,-0.24527975916862488,2.829352855682373
166,21908,21906,0.009653270244598389,-0.038698017597198486,0.9663861989974976,4.112672328948975,-8.754570960998535,-1.780104398727417,1.9243587255477905,3.860774040222168,0.30470308661460876,-0.24999509751796722,-0.19977833330631256,2.8220388889312744
167,21918,21916,0.004119886551052332,-0.01888938620686531,0.8781222105026245,5.727766513824463,-10.50391960144043,-1.4451605081558228,1.9278113842010498,3.860611915588379,0.304995596408844,-0.00836983323097229,-0.11536834388971329,2.8082950115203857
168,21928,21926,-0.00470276502892375,-0.036634184420108795,0.9762794971466064,5.932595729827881,-12.106658935546875,-1.2781636714935303,1.9280292987823486,3.8613290786743164,0.30550605058670044,-0.08353294432163239,-0.08957457542419434,2.794037103652954
169,21938,21936,0.008061099797487259,-0.099678635597229,1.0567500591278076,4.244485855102539,-9.900957107543945,-1.9102650880813599,1.9315581321716309,3.8628110885620117,0.30715736746788025,0.2564677596092224,-0.0696243867278099,2.780839204788208
170,21948,21946,0.0007273659575730562,-0.04866836965084076,1.000661015510559,2.3040783405303955,-10.011442184448242,-1.9116506576538086,1.931191325187683,3.863081216812134,0.30771955847740173,0.4114649295806885,0.008307704702019691,2.7657506465911865
171,21958,21956,-0.06641701608896255,0.07581613957881927,0.9619646668434143,-0.12183935195207596,-6.011863708496094,-2.1944406032562256,1.9319875240325928,3.863352060317993,0.30811452865600586,0.2759722173213959,0.049110736697912216,2.746778964996338
172,21968,21966,-0.039212655276060104,0.10594215989112854,0.9249818921089172,-1.750324010848999,-3.6171553134918213,-1.765654444694519,1.9354579448699951,3.863459348678589,0.30687326192855835,0.2870589792728424,0.056609492748975754,2.724268674850464
173,21978,21976,-0.016284165903925896,0.02474592812359333,0.9988179206848145,-2.800766944885254,-1.1609195470809937,-1.5314611196517944,1.9374502897262573,3.8636465072631836,0.30701732635498047,0.4827241897583008,-0.042912084609270096,2.7112021446228027
174,21988,21986,-0.015646088868379593,-0.008294869214296341,1.1107436418533325,-2.3746228218078613,-0.9935926795005798,-1.9683620929718018,1.9375734329223633,3.864633798599243,0.30736660957336426,0.3190813362598419,-0.059272706508636475,2.693051338195801
175,21998,21996,-0.0005085945012979209,0.037535373121500015,1.0766282081604004,0.08504849672317505,-3.1108360290527344,-2.2413864135742188,1.9410775899887085,3.8650333881378174,0.3069620430469513,0.42581161856651306,-0.06446701288223267,2.6740918159484863
176,22008,22006,-0.043495334684848785,0.1236860528588295,1.033546805381775,1.3146601915359497,-4.158023834228516,-2.051240921020508,1.94163978099823,3.8653478622436523,0.3073386251926422,0.6297087669372559,0.03567596524953842,2.642749071121216
177,22018,22016,0.0011483149137347937,0.007272213231772184,1.0084636211395264,2.874100685119629,-4.0135955810546875,-1.7960635423660278,1.9412695169448853,3.8651986122131348,0.30786848068237305,0.5860069990158081,0.07335907220840454,2.623845100402832
178,22028,22026,0.010421675629913807,0.06598550826311111,1.0619772672653198,1.573632001876831,-4.053356170654297,-2.411076307296753,1.9433846473693848,3.8659727573394775,0.3082050085067749,0.6345518827438354,0.03083360381424427,2.6142146587371826
179,22038,22036,0.006470805499702692,-0.018520724028348923,1.0321085453033447,0.8391973376274109,-5.155210494995117,-1.7992007732391357,1.9442217350006104,3.867555856704712,0.308748722076416,0.6778241991996765,0.07314474880695343,2.5999579429626465
180,22048,22046,0.016913307830691338,-0.1665838360786438,0.9526805281639099,0.4212666153907776,-3.7650372982025146,-1.6503231525421143,1.945329189300537,3.867393732070923,0.30929243564605713,0.6440134644508362,0.09445074200630188,2.588517427444458
181,22058,22056,0.03175532445311546,-0.10846654325723648,0.9071981906890869,-0.39159339666366577,-3.7258260250091553,-1.604471206665039,1.9469830989837646,3.8689210414886475,0.30969664454460144,0.6786850690841675,0.1078309416770935,2.5684609413146973
182,22068,22066,0.010958336293697357,-0.017438290640711784,0.9800719022750854,-1.3783905506134033,-2.8913047313690186,-0.892331600189209,1.9486714601516724,3.8685786724090576,0.3100803792476654,0.6280447840690613,0.1036616787314415,2.552560329437256
183,22078,22076,0.09278467297554016,-0.11197555065155029,1.006770133972168,-1.100612998008728,-2.133918046951294,-1.5102052688598633,1.9508836269378662,3.869468927383423,0.31036847829818726,0.8198659420013428,0.17156477272510529,2.5303702354431152
184,22088,22086,0.024615824222564697,-0.058345139026641846,0.9566129446029663,-2.0023655891418457,-0.6254225969314575,-1.3727116584777832,1.9509645700454712,3.8685343265533447,0.310907781124115,0.8146604299545288,0.06352361291646957,2.538343667984009
185,22098,22096,0.04839695245027542,-0.0641135647892952,0.8793691396713257,-2.2696821689605713,-0.7771039009094238,-0.6026116013526917,1.95246160030365,3.8693745136260986,0.3088635802268982,0.9518340826034546,0.04026588797569275,2.5270748138427734
186,22108,22106,-0.009580964222550392,0.03477533906698227,0.9073693752288818,-1.137414574623108,-0.36476194858551025,-0.6557056903839111,1.951809287071228,3.8694493770599365,0.30910560488700867,0.8985199928283691,0.01587251015007496,2.5172841548919678
187,22118,22116,0.01000815350562334,-0.04215416684746742,0.9173039793968201,-1.1942048072814941,1.097497820854187,-0.24388180673122406,1.9536014795303345,3.8695383071899414,0.30914101004600525,0.9342703819274902,0.00631674425676465,2.509396553039551
188,22128,22126,0.04261498525738716,-0.15023593604564667,1.0073474645614624,-1.5474445819854736,0.6930351853370667,-0.1377965360879898,1.9543471336364746,3.8699281215667725,0.309131383895874,0.8698232173919678,-0.010639259591698647,2.5054361820220947
189,22138,22136,0.044386718422174454,-0.1276402622461319,1.003459095954895,-0.35693514347076416,6.801042556762695,-0.9048509001731873,1.9559863805770874,3.869793176651001,0.30795082449913025,1.0113937854766846,-0.018651209771633148,2.5065090656280518
190,22148,22146,-0.02925538644194603,-0.00032208007178269327,0.926544189453125,0.9165977239608765,6.0122389793396,-1.0930954217910767,1.9553368091583252,3.8694496154785156,0.30798590183258057,0.9367677569389343,-0.01130630262196064,2.4967458248138428
191,22158,22156,-0.06232686713337898,0.08046702295541763,0.8815134167671204,0.2966007888317108,7.315164089202881,-0.7327784299850464,1.9564082622528076,3.869184970855713,0.3078463077545166,0.8511276245117188,0.00428775604814291,2.4850783348083496
192,22168,22166,-0.039655741304159164,0.11036951094865799,0.9686772227287292,0.9194622039794922,6.84347677230835,-0.2771669626235962,1.9580057859420776,3.8691530227661133,0.306746244430542,0.6763502955436707,0.02248070016503334,2.4704766273498535
193,22178,22176,0.014577553607523441,0.034263696521520615,0.9414635896682739,2.1822705268859863,5.069619178771973,-0.1997460424900055,1.9603116512298584,3.870150089263916,0.30634331703186035,0.6788607239723206,-0.030300239101052284,2.489664316177368
194,22188,22186,-0.0020897276699543,-0.020020993426442146,1.0043836832046509,0.4525498151779175,2.4658892154693604,-0.39973223209381104,1.9609503746032715,3.8708019256591797,0.3060295879840851,0.5490738153457642,0.002353628631681204,2.4821951389312744
195,22198,22196,-0.005181977059692144,-0.0941157117486,1.0542596578598022,0.0748203843832016,3.937450885772705,-0.418374627828598,1.962734341621399,3.8714840412139893,0.3060312569141388,0.589077889919281,-0.05564679205417633,2.502431869506836
196,22208,22206,0.006013857200741768,0.0438113808631897,0.978570282459259,0.1653055101633072,2.7855336666107178,-0.05038593336939812,1.9633692502975464,3.8721368312835693,0.3057495355606079,0.6405285000801086,-0.037656333297491074,2.4990103244781494
197,22218,22216,-0.007900969125330448,0.11770053207874298,1.0393242835998535,0.10482732206583023,1.407065749168396,0.07580475509166718,1.963560700416565,3.872133731842041,0.30548784136772156,0.5357449650764465,-0.01631314679980278,2.4932377338409424
198,22228,22226,0.011934550479054451,0.021571708843111992,1.05400812625885,0.6495742201805115,1.8841732740402222,-0.48486626148223877,1.9653310775756836,3.8725287914276123,0.30509793758392334,0.5095444917678833,-0.0012959251180291176,2.4902775287628174
199,22238,22236,-0.04866380989551544,0.03149273246526718,1.0314136743545532,1.878279685974121,3.739163875579834,0.11590322852134705,1.9665948152542114,3.8724865913391113,0.3085671067237854,0.5533567070960999,-0.12905800342559814,2.5142569541931152
200,22248,22246,-0.022180238738656044,-0.005179089959710836,1.0519119501113892,1.9937680959701538,4.140307903289795,0.1959487646818161,1.9666705131530762,3.8738608360290527,0.308588445186615,0.5848252773284912,-0.07298415154218674,2.5051517486572266
201,22258,22256,4.780640301760286e-05,0.0038588312454521656,1.0663844347000122,3.0817928314208984,4.589596748352051,-0.44706347584724426,1.966784119606018,3.873587131500244,0.30871516466140747,0.5898444652557373,-0.009664969518780708,2.4981367588043213
202,22268,22266,-0.037688180804252625,0.02220550738275051,1.0430567264556885,3.3310890197753906,6.013880252838135,-0.6708585619926453,1.9675248861312866,3.8732969760894775,0.3061423599720001,0.4999913275241852,0.056133005768060684,2.4890122413635254
203,22278,22276,-0.055060867220163345,0.0858321264386177,0.9849698543548584,3.35494327545166,7.707304954528809,-0.6656390428543091,1.9681943655014038,3.872929811477661,0.3061702251434326,0.5506441593170166,0.12619821727275848,2.4783530235290527
204,22288,22286,-0.0527726486325264,0.07911738753318787,1.0388813018798828,0.28579989075660706,7.592264652252197,-0.24890749156475067,1.9681365489959717,3.8722751140594482,0.30627861618995667,0.4921814799308777,0.17415465414524078,2.462660074234009
205,22298,22296,-0.004500752314925194,-0.02166474610567093,1.068698763847351,0.5437134504318237,8.009034156799316,-0.6951045393943787,1.9686261415481567,3.8721201419830322,0.3095775246620178,0.42217469215393066,0.1954668015241623,2.458174228668213
206,22308,22306,0.021876705810427666,-0.08949628472328186,1.0745595693588257,-1.7484017610549927,9.172277450561523,-0.869648814201355,1.969746470451355,3.8720903396606445,0.309915155172348,0.34901225566864014,0.199179545044899,2.4547219276428223
207,22318,22316,0.032233934849500656,-0.03676103428006172,1.0179827213287354,-1.6960995197296143,9.548513412475586,-1.4171398878097534,1.9704653024673462,3.871955394744873,0.31031128764152527,0.16452157497406006,0.18068602681159973,2.4453866481781006
208,22328,22326,-0.0003250697918701917,-0.010099674575030804,1.0720460414886475,-3.6738812923431396,7.009959697723389,-0.7692683339118958,1.9716594219207764,3.8720483779907227,0.30849647521972656,0.09534607827663422,0.14361411333084106,2.438196897506714
209,22338,22336,0.027816258370876312,-0.09703470021486282,1.0043003559112549,-3.7851061820983887,5.574831008911133,-1.311954140663147,1.9724583625793457,3.8722598552703857,0.30885592103004456,0.04105446860194206,0.09036193042993546,2.4334657192230225
210,22348,22346,-0.03702341765165329,-0.05532126873731613,1.0711711645126343,-2.691267728805542,4.049846172332764,-1.503462314605713,1.9728368520736694,3.8725123405456543,0.30924686789512634,0.007938750088214874,0.04566270485520363,2.4205310344696045
211,22358,22356,-0.05241911858320236,0.0685458555817604,1.0162171125411987,-1.6437004804611206,4.456396102905273,-1.4128546714782715,1.9735463857650757,3.872612476348877,0.3097754120826721,-0.002813487546518445,0.012194267474114895,2.406501054763794
212,22368,22366,0.007596025243401527,0.09906687587499619,0.9613361954689026,-1.4788315296173096,4.97815465927124,-1.4163857698440552,1.9742274284362793,3.8735132217407227,0.31148001551628113,-0.023972084745764732,-0.006423338782042265,2.40346097946167
213,22378,22376,0.011519708670675755,0.05814056098461151,1.0186779499053955,0.7484122514724731,3.441666603088379,-1.2783534526824951,1.9745250940322876,3.8737387657165527,0.3120536804199219,-0.12293628603219986,-0.007208626251667738,2.383812427520752
214,22388,22386,-0.015871860086917877,-0.008269289508461952,1.0200722217559814,1.383801817893982,2.777172803878784,-1.241133689880371,1.9754343032836914,3.873410701751709,0.31257691979408264,-0.19529400765895844,0.013699715957045555,2.368847608566284
215,22398,22396,-0.0008201766177080572,-0.010831281542778015,0.9983481764793396,2.0573770999908447,4.050634860992432,-1.013523817062378,1.9758461713790894,3.873133420944214,0.31064358353614807,-0.26659807562828064,-0.02932867780327797,2.360142946243286
216,22408,22406,-0.0025676588993519545,0.07510501146316528,0.951576292514801,1.7840737104415894,5.060377597808838,-0.6650323867797852,1.9769471883773804,3.873781681060791,0.31104499101638794,-0.2704455256462097,0.0173410102725029,2.348987340927124
217,22418,22416,0.01107463613152504,0.1373751163482666,1.037887692451477,0.6439616680145264,3.2364299297332764,-0.9100114703178406,1.9773558378219604,3.873436689376831,0.3114860951900482,-0.27192428708076477,0.049136534333229065,2.341534376144409
218,22428,22426,0.03574766218662262,-0.042061515152454376,0.9577980637550354,0.207989901304245,2.183417797088623,-0.7261050939559937,1.9776862859725952,3.874300003051758,0.3143322467803955,-0.34053149819374084,0.06689231842756271,2.3499085903167725
219,22438,22436,-0.0416591577231884,0.04648476466536522,0.9120274782180786,-1.1051948070526123,2.265249490737915,-1.3585907220840454,1.9784492254257202,3.8745672702789307,0.3148629665374756,-0.39680612087249756,0.06881660968065262,2.3426337242126465
220,22448,22446,-0.07687600702047348,0.10778092592954636,0.9799031615257263,-2.967900037765503,2.654651403427124,-0.9222896099090576,1.9794492721557617,3.874746799468994,0.31531402468681335,-0.36860406398773193,0.0470358170568943,2.3291373252868652
221,22458,22456,-0.00035441122599877417,-0.005198801402002573,0.9829805493354797,-3.0640900135040283,2.672708034515381,-1.1727863550186157,1.980114459991455,3.8750193119049072,0.3158009350299835,-0.34322425723075867,0.005072083789855242,2.3216686248779297
222,22468,22466,-0.037999581545591354,0.048574578016996384,0.9520353674888611,-2.5459718704223633,1.7818684577941895,-0.5326482057571411,1.9803677797317505,3.8751492500305176,0.31736963987350464,-0.47126156091690063,-0.10923690348863602,2.308879852294922
223,22478,22476,-0.03524821251630783,0.02569521591067314,0.962823748588562,-2.258687973022461,4.345685958862305,0.08973487466573715,1.982413649559021,3.877054452896118,0.3177521824836731,-0.4455801546573639,-0.13040709495544434,2.31280779838562
224,22488,22486,-0.008553504943847656,-0.034500088542699814,0.9791309237480164,-0.826872706413269,3.076340436935425,-0.1892203688621521,1.9828366041183472,3.8772079944610596,0.3182029128074646,-0.5190184116363525,-0.14074201881885529,2.3117003440856934
225,22498,22496,0.030679503455758095,-0.1397380381822586,0.9565746784210205,1.2876989841461182,4.176136016845703,-0.559474766254425,1.9838308095932007,3.8785674571990967,0.319439560174942,-0.5152517557144165,-0.12464391440153122,2.329242706298828
226,22508,22506,0.015026732347905636,-0.07346271723508835,0.870373010635376,3.6419646739959717,3.964759111404419,-0.924430787563324,1.9842571020126343,3.8784635066986084,0.3198816776275635,-0.5935017466545105,-0.1520681530237198,2.3185935020446777
227,22518,22516,0.047837503254413605,-0.12181735038757324,0.9942414164543152,2.815161943435669,2.814401865005493,-0.4155610501766205,1.9850374460220337,3.8789634704589844,0.32017481327056885,-0.7381264567375183,-0.08363527059555054,2.3183743953704834
228,22528,22526,0.06748254597187042,-0.12061627209186554,0.9456932544708252,3.3970446586608887,-0.5840307474136353,-0.2930859923362732,1.9867690801620483,3.878453254699707,0.31854191422462463,-0.7578346729278564,-0.0957641750574112,2.3130269050598145
229,22538,22536,0.023661933839321136,-0.12615197896957397,1.0166136026382446,3.039499282836914,-3.3803062438964844,-0.26657480001449585,1.987612009048462,3.87943959236145,0.31869497895240784,-0.7238179445266724,-0.02349027432501316,2.3153445720672607
230,22548,22546,-0.05563712492585182,-0.07483058422803879,1.062805414199829,2.5204575061798096,-3.6389565467834473,-0.7684851288795471,1.9877694845199585,3.8794076442718506,0.31887900829315186,-0.5838021636009216,-0.03650437667965889,2.3176209926605225
231,22558,22556,-0.0069029927253723145,-0.051197174936532974,0.9729571342468262,2.28045654296875,-4.790464401245117,-1.2094062566757202,1.9880226850509644,3.8799357414245605,0.31918850541114807,-0.4440982937812805,0.02426033280789852,2.313647508621216
232,22568,22566,-0.03310827165842056,0.10385873168706894,0.9028624892234802,0.8197889924049377,-3.11613130569458,-0.8752240538597107,1.987497329711914,3.8797948360443115,0.3165755569934845,-0.4709469676017761,-0.08495577424764633,2.2933011054992676
233,22578,22576,-0.013889689929783344,0.16843858361244202,0.935914933681488,0.588539183139801,-1.7559044361114502,-0.5259564518928528,1.9889453649520874,3.88187837600708,0.3165457248687744,-0.4365786910057068,-0.07322138547897339,2.2939612865448
234,22588,22586,0.003672658931463957,0.034520525485277176,0.9924470782279968,-0.4654864966869354,2.3614840507507324,-0.43133801221847534,1.9903887510299683,3.8818199634552,0.3164452016353607,-0.5783802270889282,-0.006210882682353258,2.2932944297790527
235,22598,22596,0.029293440282344818,-0.07113174349069595,1.0449422597885132,0.6495010852813721,3.669315814971924,-1.2240632772445679,1.991976261138916,3.8818140029907227,0.3140334188938141,-0.5245317220687866,0.022135797888040543,2.291346549987793
236,22608,22606,0.04788271337747574,-0.07234732806682587,1.0105764865875244,1.677126169204712,2.337991714477539,-1.3373830318450928,1.992413878440857,3.8817365169525146,0.3138500154018402,-0.6493740081787109,0.05659126862883568,2.2830655574798584
237,22618,22616,-0.02906964160501957,-0.013552173972129822,0.9795070290565491,2.8665874004364014,1.37957763671875,-1.6807042360305786,1.9940553903579712,3.881920099258423,0.3135538399219513,-0.6643281579017639,0.10964649170637131,2.2697689533233643
238,22628,22626,0.023261014372110367,0.014788853004574776,0.9431769847869873,1.7521039247512817,-0.8434638381004333,-2.094346761703491,1.9951554536819458,3.881725311279297,0.31284448504447937,-0.6810100674629211,0.13987351953983307,2.2584431171417236
239,22638,22636,-0.019310589879751205,0.01565985381603241,0.9629767537117004,0.5683547854423523,-3.219777822494507,-2.33427095413208,1.9944398403167725,3.8839809894561768,0.3126559555530548,-0.6094930171966553,0.1320246458053589,2.266494035720825
240,22648,22646,0.03225922957062721,-0.10522077232599258,0.9442218542098999,0.44404128193855286,-3.7635254859924316,-2.621994972229004,1.995611548423767,3.8843088150024414,0.31223616003990173,-0.6117483377456665,0.16125665605068207,2.2497284412384033
241,22658,22656,-0.018915334716439247,-0.0499703511595726,0.9860639572143555,-0.26234233379364014,-3.85420298576355,-2.4816365242004395,1.9969170093536377,3.8841712474823,0.3117949366569519,-0.5313596129417419,0.17640885710716248,2.225019693374634
242,22668,22666,0.03900681436061859,-0.10037315636873245,0.9105542302131653,-0.2364676296710968,-4.128587245941162,-2.8372151851654053,1.9972976446151733,3.8842878341674805,0.31251657009124756,-0.4983248710632324,0.17401841282844543,2.1936194896698
243,22678,22676,-0.020348655059933662,0.013067810796201229,0.9365003108978271,-0.9502807259559631,-4.166457176208496,-2.839191198348999,1.9984911680221558,3.884869337081909,0.3120676577091217,-0.4902920424938202,0.10632267594337463,2.1586763858795166
244,22688,22686,-0.09684228897094727,0.16319042444229126,0.9683527946472168,-0.8786939382553101,-3.312382221221924,-2.673696279525757,1.9985215663909912,3.8849503993988037,0.31170278787612915,-0.3039321303367615,0.12720617651939392,2.1312503814697266
245,22698,22696,-0.016694050282239914,-0.005343753844499588,0.9551030993461609,0.24887174367904663,3.0354855060577393,-3.407322883605957,1.9987025260925293,3.885204315185547,0.3141005039215088,-0.4473661780357361,0.14020764827728271,2.10856294631958
246,22708,22706,0.002171991625800729,-0.026818424463272095,0.8966496586799622,0.5158889889717102,0.46982207894325256,-2.2930679321289062,2.0016403198242188,3.8848233222961426,0.3136156499385834,-0.4672597348690033,0.14432886242866516,2.0650789737701416
247,22718,22716,-0.009211711585521698,-0.021370070055127144,1.018991470336914,1.4368062019348145,-0.42455169558525085,-1.6112253665924072,2.002484083175659,3.884949207305908,0.313143789768219,-0.4464769959449768,0.17197838425636292,2.044215440750122
248,22728,22726,-0.017402561381459236,0.06913109868764877,1.0294806957244873,1.8143420219421387,-2.3839447498321533,-1.9367040395736694,2.003838300704956,3.8851234912872314,0.3104797899723053,-0.6134523153305054,0.229922354221344,2.0196852684020996
249,22738,22736,-0.05579736828804016,0.1799364686012268,0.9473229646682739,1.1438878774642944,0.17565222084522247,-2.5570261478424072,2.0067460536956787,3.8845937252044678,0.309694766998291,-0.4755617678165436,0.18405452370643616,1.9956573247909546
250,22748,22746,-0.06991226971149445,0.1772104799747467,0.9340646862983704,-1.3430697917938232,-0.7499585151672363,-2.0173330307006836,2.006666421890259,3.8861069679260254,0.30925241112709045,-0.6009460091590881,0.19551502168178558,1.9892990589141846
251,22758,22756,0.009672633372247219,0.08870960772037506,0.9884098768234253,-2.237940788269043,-4.128571033477783,-2.019284963607788,2.0091519355773926,3.887796640396118,0.31180286407470703,-0.4431162476539612,0.17549318075180054,2.0011515617370605
252,22768,22766,0.01754789613187313,0.008835364133119583,1.135179877281189,-1.3152872323989868,-8.322297096252441,-2.021834373474121,2.009124994277954,3.888068199157715,0.31143465638160706,-0.37658631801605225,0.15511345863342285,1.976147174835205
253,22778,22776,0.0009287211578339338,0.047132011502981186,1.1920500993728638,0.6744887828826904,-9.097213745117188,-2.0203304290771484,2.010181427001953,3.8881146907806396,0.3110896944999695,-0.4136429727077484,0.08488203585147858,1.9484697580337524
254,22788,22786,-0.011366285383701324,0.13684393465518951,1.036029577255249,-0.00851956382393837,-4.37116813659668,-1.397775411605835,2.0127370357513428,3.8887503147125244,0.31077325344085693,-0.33584409952163696,0.09306273609399796,1.929323673248291
255,22798,22796,-0.007084236014634371,0.010052858851850033,0.9994678497314453,1.044447898864746,-3.0956852436065674,-1.6367985010147095,2.013463020324707,3.8895514011383057,0.3173748552799225,-0.09353725612163544,0.0717022493481636,1.9180690050125122
256,22808,22806,-0.014723344705998898,-0.057018741965293884,1.147381067276001,3.1955511569976807,-2.800565481185913,-1.7998658418655396,2.0135579109191895,3.889423131942749,0.3178020417690277,-0.016931667923927307,0.12473386526107788,1.906451940536499
257,22818,22816,0.05130143091082573,-0.049007512629032135,0.9307587742805481,5.529942035675049,-2.872438907623291,-1.74756920337677,2.0142781734466553,3.88973069190979,0.31821200251579285,-0.1277969926595688,0.1422661691904068,1.8922442197799683
258,22828,22826,-0.023833170533180237,0.09593377262353897,0.8772426247596741,4.569050312042236,-0.0033005885779857635,-1.8395299911499023,2.0161216259002686,3.889451026916504,0.31948786973953247,-0.054805539548397064,0.25484371185302734,1.8591996431350708
259,22838,22836,-0.015076907351613045,0.03438078239560127,0.9147365093231201,2.2978808879852295,2.6998252868652344,-1.23088800907135,2.0175869464874268,3.8907809257507324,0.3198627531528473,-0.13777682185173035,0.1681736260652542,1.8715733289718628
260,22848,22846,0.03759445622563362,-0.13651926815509796,0.9863576889038086,1.5699272155761719,0.937137246131897,-1.700749397277832,2.0189712047576904,3.8920655250549316,0.32007670402526855,-0.0567551925778389,0.22562280297279358,1.869948148727417
261,22858,22856,0.016713911667466164,-0.03620775043964386,0.9604416489601135,1.5961437225341797,0.35295167565345764,-1.9541982412338257,2.0189666748046875,3.892226219177246,0.3191908895969391,-0.06664421409368515,0.24514102935791016,1.8522874116897583
262,22868,22866,-0.0064585390500724316,-0.09115965664386749,0.9555608034133911,1.0005710124969482,-2.3377737998962402,-2.884981870651245,2.019777297973633,3.8923070430755615,0.31929922103881836,-0.09084492921829224,0.2916530668735504,1.8385604619979858
263,22878,22876,0.008670813404023647,-0.046899765729904175,0.9454658627510071,0.5674124956130981,-1.5494041442871094,-2.6954762935638428,2.0195395946502686,3.893162488937378,0.3194536864757538,0.05588728189468384,0.171860471367836,1.7993367910385132
264,22888,22886,0.08009452372789383,-0.17425911128520966,0.9796250462532043,2.0054688453674316,-0.2394336313009262,-2.991772413253784,2.021775960922241,3.8953874111175537,0.31953588128089905,0.11771535873413086,0.2584242820739746,1.8223227262496948
265,22898,22896,0.031210944056510925,-0.05332515388727188,0.9715303182601929,4.07366418838501,-0.027088867500424385,-3.071209192276001,2.021929979324341,3.8954832553863525,0.32487377524375916,0.11948823183774948,0.28323614597320557,1.8057401180267334
266,22908,22906,-0.00282171624712646,-0.05912189185619354,0.9529415369033813,4.375215530395508,0.9166591763496399,-3.0035414695739746,2.023299217224121,3.8956098556518555,0.3251240849494934,0.14228302240371704,0.3477953374385834,1.7616941928863525
267,22918,22916,-0.00010019563342211768,-0.0373762771487236,0.9721528887748718,4.226616859436035,1.6899789571762085,-2.848463773727417,2.023460865020752,3.8953676223754883,0.3254525363445282,0.04706237465143204,0.36101290583610535,1.72975492477417
268,22928,22926,-0.0113231735303998,-0.007270643021911383,1.0018736124038696,3.3411011695861816,2.28894305229187,-2.860013484954834,2.0252997875213623,3.89573335647583,0.3258515000343323,-0.05132041499018669,0.44855862855911255,1.69722580909729
269,22938,22936,0.012546177953481674,-0.018942732363939285,0.962189257144928,1.1093189716339111,3.1365318298339844,-3.022797107696533,2.0269148349761963,3.8958423137664795,0.32603538036346436,-0.08014991879463196,0.5009312629699707,1.6765159368515015
270,22948,22946,0.023885183036327362,-0.022538945078849792,0.9630210995674133,-0.3201814293861389,2.506436586380005,-3.2820019721984863,2.028141736984253,3.8963377475738525,0.32626157999038696,-0.035003867000341415,0.5180480480194092,1.671798586845398
271,22958,22956,0.03678944334387779,-0.059882573783397675,0.8930543065071106,-0.10041451454162598,2.0295584201812744,-3.398545503616333,2.028123140335083,3.8957507610321045,0.3250234127044678,-0.07277321815490723,0.5212442278862,1.6148725748062134
272,22968,22966,0.014653324149549007,-0.019338326528668404,0.9627247452735901,-0.9336563944816589,0.8849668502807617,-3.0963973999023438,2.029945135116577,3.8973546028137207,0.32497379183769226,-0.0735718235373497,0.3862834572792053,1.5849133729934692
273,22978,22976,-0.012910744175314903,-0.09552708268165588,1.0131795406341553,-1.410477876663208,-0.2963124215602875,-2.6818692684173584,2.030111789703369,3.89740252494812,0.3250221610069275,-0.05593832582235336,0.3889119327068329,1.5496317148208618
274,22988,22986,-0.038504038006067276,0.12236849218606949,0.9796183705329895,0.0011054634815081954,-0.23807482421398163,-3.078345775604248,2.0309455394744873,3.8973875045776367,0.3249816596508026,0.035800378769636154,0.40049850940704346,1.5245410203933716
275,22998,22996,0.00825265422463417,0.0442667156457901,0.934045135974884,1.0328611135482788,-0.48004284501075745,-2.9832210540771484,2.0308034420013428,3.897181987762451,0.3260524570941925,0.038054682314395905,0.402201771736145,1.494644284248352
276,23008,23006,0.01248700451105833,-0.04950115084648132,0.9546405076980591,1.5012127161026,0.3309767544269562,-3.051295757293701,2.0306429862976074,3.897024631500244,0.3260239362716675,-0.04239687696099281,0.3074820339679718,1.453048586845398
277,23018,23016,-0.017940275371074677,-0.023595286533236504,0.9927830696105957,0.9591788649559021,2.752533197402954,-2.96420955657959,2.0329952239990234,3.8990609645843506,0.32584384083747864,0.015893852338194847,0.3585064709186554,1.4372884035110474
278,23028,23026,0.06527189910411835,-0.13589994609355927,0.9681854844093323,1.6592856645584106,4.635248184204102,-2.978379964828491,2.033936023712158,3.8999509811401367,0.3244321942329407,0.02313191257417202,0.40354108810424805,1.4328913688659668
279,23038,23036,0.023010477423667908,-0.07022379338741302,0.9867976903915405,1.1256484985351562,4.694522857666016,-3.0216047763824463,2.0340640544891357,3.900160312652588,0.3242628276348114,-0.13998918235301971,0.44652411341667175,1.4491493701934814
280,23048,23046,-0.006511012092232704,-0.008445946499705315,0.9879125356674194,1.2724355459213257,4.463242530822754,-3.404923915863037,2.0358948707580566,3.9013781547546387,0.3239482343196869,-0.18738140165805817,0.45603570342063904,1.4190500974655151
281,23058,23056,0.003156541381031275,0.05416107550263405,1.0321741104125977,0.685779869556427,4.486739158630371,-3.430213212966919,2.0370771884918213,3.9009644985198975,0.3216402232646942,-0.24879856407642365,0.4939219653606415,1.3723150491714478
282,23068,23066,-0.024656251072883606,0.04305514693260193,1.027363896369934,-0.39760062098503113,2.0361905097961426,-3.148019552230835,2.037097692489624,3.9012835025787354,0.321380615234375,-0.21836471557617188,0.5140342116355896,1.3533905744552612
283,23078,23076,-0.054434485733509064,0.06871295720338821,0.9766145348548889,-1.2352653741836548,0.6167721748352051,-3.0112314224243164,2.0382046699523926,3.9013137817382812,0.3210856020450592,-0.2437472641468048,0.5170339345932007,1.3192251920700073
284,23088,23086,-0.009955373592674732,-0.005494009703397751,0.9972253441810608,-2.278648853302002,-0.6205613613128662,-3.104893684387207,2.03873348236084,3.902193784713745,0.3194941580295563,-0.24293388426303864,0.499311625957489,1.3207299709320068
285,23098,23096,0.00219048373401165,0.062318719923496246,0.986818253993988,-2.6278858184814453,-0.9359215497970581,-3.1516737937927246,2.0395925045013428,3.903266191482544,0.3190911114215851,-0.24273799359798431,0.4615781903266907,1.3107205629348755
286,23108,23106,-0.005169376265257597,-0.05792443826794624,1.040955901145935,-2.8480091094970703,-1.1912312507629395,-3.0112695693969727,2.0390737056732178,3.9034311771392822,0.3187585175037384,-0.10879211872816086,0.3391574025154114,1.278680443763733
287,23118,23116,-0.0006795880035497248,-0.039134684950113297,1.047970175743103,-2.598860740661621,3.6110692024230957,-2.931091547012329,2.0419700145721436,3.904545545578003,0.3182864785194397,-0.3218313157558441,0.3016342222690582,1.2651934623718262
288,23128,23126,-0.014609957113862038,-0.014667117968201637,1.0098053216934204,-0.9617031216621399,0.9961739182472229,-2.1098484992980957,2.0421249866485596,3.9046080112457275,0.3190177083015442,-0.2342495620250702,0.2864557206630707,1.2468442916870117
289,23138,23136,-0.04249991849064827,0.10668770223855972,0.9839961528778076,0.9564422965049744,1.42975914478302,-2.7662699222564697,2.0431394577026367,3.9048662185668945,0.3187887370586395,-0.21995088458061218,0.3152121901512146,1.2354631423950195
290,23148,23146,-0.004696389194577932,-0.08355226367712021,1.0370025634765625,0.8235968947410583,-0.6343429684638977,-2.3733272552490234,2.043240547180176,3.906092405319214,0.31864768266677856,-0.2311372458934784,0.3206899166107178,1.2496826648712158
291,23158,23156,0.0050363740883767605,-0.020313061773777008,1.034548044204712,1.5496740341186523,0.2564491331577301,-2.8386359214782715,2.0447072982788086,3.908602476119995,0.3230772912502289,-0.22927777469158173,0.2952774465084076,1.2975250482559204
292,23168,23166,0.005028667394071817,-0.1216876283288002,1.0040137767791748,2.6826300621032715,-1.2934846878051758,-3.5449843406677246,2.04490327835083,3.909412384033203,0.3232165277004242,-0.21345998346805573,0.3149693012237549,1.2775864601135254
293,23178,23176,-0.03933591768145561,-0.10556413233280182,1.0825104713439941,0.8246356844902039,-0.4267531931400299,-3.8805062770843506,2.0463879108428955,3.909085273742676,0.3233196437358856,-0.23393204808235168,0.3663797080516815,1.235114336013794
294,23188,23186,-0.04433809593319893,-0.06514330953359604,1.0104522705078125,-0.9540155529975891,-0.4666535556316376,-4.006836891174316,2.046236515045166,3.9090116024017334,0.32209864258766174,-0.10479966551065445,0.38481494784355164,1.200718641281128
295,23198,23196,-0.038508493453264236,0.01645009033381939,0.977837860584259,-1.684615969657898,-0.33391237258911133,-3.67498779296875,2.0483360290527344,3.908848762512207,0.32213979959487915,-0.2305319458246231,0.3793223798274994,1.1689738035202026
296,23208,23206,-0.025880077853798866,0.0429689958691597,0.9587347507476807,-2.822787046432495,-0.6621288061141968,-3.6242239475250244,2.0481069087982178,3.909649610519409,0.3223477602005005,-0.13534636795520782,0.3530742824077606,1.15091872215271
297,23218,23216,0.011740529909729958,-0.00014222213940229267,1.0332562923431396,-2.130547285079956,-2.0432112216949463,-3.628328323364258,2.0503058433532715,3.9105172157287598,0.3223612308502197,-0.2468758076429367,0.3157367706298828,1.133557915687561
298,23228,23226,0.008361033163964748,-0.05984955281019211,0.9528305530548096,-1.184013843536377,-2.4344418048858643,-3.8437557220458984,2.0501325130462646,3.9105961322784424,0.3245892822742462,-0.168404221534729,0.29258280992507935,1.095921516418457
299,23238,23236,0.018006425350904465,0.017823711037635803,1.020861268043518,-0.5399321913719177,-3.980372190475464,-3.8908133506774902,2.0509605407714844,3.910673141479492,0.32479071617126465,-0.13860248029232025,0.28289076685905457,1.0693227052688599
300,23248,23246,-0.003294925903901458,-0.030332989990711212,0.9597414135932922,-0.6317170262336731,-3.295107841491699,-3.3851752281188965,2.051483392715454,3.910284996032715,0.3250240683555603,0.05094347894191742,0.2057725042104721,1.0213650465011597
301,23258,23256,-0.000314505334245041,-0.030082713812589645,0.9688736200332642,0.24704323709011078,-2.4738454818725586,-3.3880958557128906,2.0512821674346924,3.9107534885406494,0.32738175988197327,0.08190803229808807,0.20349785685539246,0.9763542413711548
302,23268,23266,0.004904518369585276,-0.060538675636053085,0.9976494312286377,0.5529050230979919,-1.5972398519515991,-3.8499538898468018,2.0525121688842773,3.9104909896850586,0.3276451528072357,0.05327704921364784,0.2195122241973877,0.9496225714683533
303,23278,23276,-0.018631599843502045,0.09072421491146088,0.915653645992279,0.35399171710014343,1.2905364036560059,-4.114321708679199,2.0537383556365967,3.910984516143799,0.3278535008430481,-0.007839234545826912,0.16328378021717072,0.8870800137519836
304,23288,23286,0.009182920679450035,-0.04681159928441048,0.9780855774879456,1.2054715156555176,2.355689764022827,-3.6063525676727295,2.053513526916504,3.910304307937622,0.32577112317085266,0.08618862926959991,0.26572492718696594,0.8627528548240662
305,23298,23296,0.014973800629377365,-0.08263428509235382,1.012847661972046,1.420155644416809,4.574019908905029,-3.744396448135376,2.0544087886810303,3.9096457958221436,0.32585814595222473,-0.03213972598314285,0.2368544340133667,0.8127534985542297
306,23308,23306,0.0067803035490214825,-0.012876461260020733,0.9842464327812195,1.0469368696212769,5.667226314544678,-3.572539806365967,2.056227207183838,3.9100096225738525,0.32584235072135925,-0.08609253168106079,0.24940170347690582,0.7662835121154785
307,23318,23316,0.015699513256549835,-0.007415161933749914,0.9637057781219482,0.8049991130828857,4.8073811531066895,-3.24044132232666,2.056597948074341,3.909942388534546,0.3241874575614929,-0.09399384260177612,0.2775762677192688,0.744723916053772
308,23328,23326,0.022974150255322456,0.06128016859292984,0.9273636341094971,-0.08105617016553879,3.359717845916748,-3.1786017417907715,2.056692361831665,3.9112210273742676,0.3241010904312134,-0.09903321415185928,0.3079865574836731,0.750163197517395
309,23338,23336,0.016647974029183388,-0.014385650865733624,0.9498493075370789,-0.5249433517456055,1.7467784881591797,-2.7635650634765625,2.0579469203948975,3.911287784576416,0.32390841841697693,-0.12678159773349762,0.3078210949897766,0.7202213406562805
310,23348,23346,0.038378216326236725,0.03798019513487816,0.9543892741203308,-0.24936214089393616,0.38408973813056946,-2.500808000564575,2.059114694595337,3.9108614921569824,0.3236749470233917,-0.15538054704666138,0.301830530166626,0.6770493984222412
311,23358,23356,0.011561237275600433,-0.008949336595833302,0.9464696645736694,-0.16612647473812103,0.004799224436283112,-2.5134496688842773,2.059819221496582,3.91111421585083,0.3235073983669281,-0.15755696594715118,0.29926741123199463,0.6617535352706909
312,23368,23366,0.01737108826637268,-0.09177294373512268,0.9660030603408813,-0.06221659854054451,-0.08230053633451462,-2.3861284255981445,2.060199022293091,3.9111826419830322,0.32319095730781555,-0.14086568355560303,0.29969173669815063,0.6439568996429443
313,23378,23376,-0.020804354920983315,-0.011229648254811764,1.0328431129455566,-0.165485218167305,-0.021492252126336098,-2.371901273727417,2.060751438140869,3.9108052253723145,0.3229003846645355,-0.2777106761932373,0.30242955684661865,0.6130685806274414
314,23388,23386,0.05755211412906647,0.030606364831328392,0.9655681252479553,-1.0964655876159668,4.69732141494751,-2.8958241939544678,2.062946081161499,3.9104957580566406,0.32533034682273865,-0.28978222608566284,0.299312561750412,0.5806998014450073
315,23398,23396,0.02152227610349655,0.010441375896334648,0.9602126479148865,-2.069026470184326,1.0403519868850708,-2.8037116527557373,2.0637259483337402,3.912493944168091,0.32524383068084717,-0.21658678352832794,0.2778266370296478,0.6127484440803528
316,23408,23406,-0.017651496455073357,0.011151685379445553,0.9584680795669556,-2.2146358489990234,0.9474211931228638,-2.682232141494751,2.064234733581543,3.912670850753784,0.32503992319107056,-0.20274211466312408,0.2470199167728424,0.5926628708839417
317,23418,23416,0.0019684704020619392,0.011160600930452347,0.9775214195251465,-2.135951519012451,0.8117173314094543,-2.6881542205810547,2.06455659866333,3.9133429527282715,0.32597243785858154,-0.2641187906265259,0.13520732522010803,0.5679303407669067
318,23428,23426,0.05759768187999725,-0.12809909880161285,0.9690672159194946,-1.3804779052734375,0.7665601372718811,-2.8308513164520264,2.065552234649658,3.9124252796173096,0.3257301449775696,-0.27168381214141846,0.11560677736997604,0.5101402997970581
319,23438,23436,0.052183207124471664,-0.1390838325023651,1.0761311054229736,-0.6541022062301636,-1.9233719110488892,-1.8283835649490356,2.0656707286834717,3.9125192165374756,0.325644850730896,-0.16090458631515503,0.10312139242887497,0.48624199628829956
320,23448,23446,0.0023943372070789337,-0.11182577908039093,1.0298855304718018,1.760627269744873,-0.4921530783176422,-2.7180755138397217,2.0671913623809814,3.911536693572998,0.325480580329895,-0.19635127484798431,0.19457577168941498,0.4571128487586975
321,23458,23456,-0.00972328893840313,-0.1185784786939621,0.9275900721549988,3.4689841270446777,-0.42648354172706604,-2.3768398761749268,2.0675501823425293,3.9106996059417725,0.32699036598205566,-0.17759136855602264,0.23110619187355042,0.4161674380302429
322,23468,23466,-0.005851562134921551,-0.08539494127035141,0.9134252667427063,2.094390392303467,-0.19323091208934784,-2.3477859497070312,2.0683000087738037,3.909851312637329,0.326943576335907,-0.16924415528774261,0.28263452649116516,0.3712075650691986
323,23478,23476,-0.020115386694669724,0.03171767294406891,1.0051268339157104,1.4843602180480957,-2.073479652404785,-2.3149378299713135,2.0692737102508545,3.910356044769287,0.32672783732414246,-0.23163838684558868,0.31165480613708496,0.383085161447525
324,23488,23486,0.013227120041847229,-0.029163839295506477,1.0160075426101685,-0.46249425411224365,-0.5161193609237671,-2.048102617263794,2.0700645446777344,3.9106650352478027,0.3238614797592163,-0.20040246844291687,0.31741103529930115,0.37093591690063477
325,23498,23496,0.01801481656730175,-0.022137168794870377,0.987930178642273,-2.3381874561309814,-1.2944451570510864,-2.334122896194458,2.0708200931549072,3.911219596862793,0.32356399297714233,-0.1727304756641388,0.22129718959331512,0.3367059528827667
326,23508,23506,0.034824032336473465,-0.19085007905960083,1.0459320545196533,-2.8705883026123047,-1.5644309520721436,-2.552854299545288,2.0724081993103027,3.911517858505249,0.3231833279132843,-0.2014182209968567,0.17816536128520966,0.31707099080085754
327,23518,23516,0.003269328037276864,-0.09916432201862335,0.9848180413246155,-3.2206056118011475,-0.7282465696334839,-3.032522678375244,2.07301926612854,3.9116127490997314,0.322470486164093,-0.16026782989501953,0.13684897124767303,0.2876324951648712
328,23528,23526,0.004889817908406258,-0.09741751849651337,1.006535530090332,-2.768967866897583,-4.371485233306885,-2.570437431335449,2.0728423595428467,3.912775993347168,0.32220378518104553,-0.05581564083695412,0.02334696054458618,0.26551932096481323
329,23538,23536,-0.02734854258596897,-0.06301768869161606,1.0733120441436768,-0.4314396381378174,0.9234812259674072,-2.7097816467285156,2.075747489929199,3.9131526947021484,0.3217633068561554,-0.24830745160579681,0.00043478034785948694,0.2476728856563568
330,23548,23546,0.0044870697893202305,-0.0015944282058626413,0.9942371249198914,2.954646348953247,0.6073148250579834,-3.1487157344818115,2.0761055946350098,3.9130241870880127,0.32162657380104065,-0.07488812506198883,0.05157537758350372,0.2069602608680725
331,23558,23556,0.08662155270576477,-0.001814036164432764,0.9099082350730896,5.320241928100586,0.4250813126564026,-2.9906628131866455,2.07541561126709,3.9129836559295654,0.32009920477867126,-0.17122893035411835,0.13675515353679657,0.18815520405769348
332,23568,23566,0.08056866377592087,-0.025792181491851807,0.9529038071632385,4.787258625030518,0.15100233256816864,-2.5172252655029297,2.0768938064575195,3.911966562271118,0.31962859630584717,-0.10075845569372177,0.2272101193666458,0.13685251772403717
333,23578,23576,0.00956529937684536,-0.020444409921765327,0.9879957437515259,4.0151543617248535,-1.1240829229354858,-2.015275239944458,2.0773472785949707,3.911637783050537,0.31926465034484863,-0.07656282931566238,0.3061397671699524,0.10581239312887192
334,23588,23586,0.005785659421235323,-0.07213921844959259,1.0045218467712402,2.5450875759124756,-1.7361934185028076,-1.3236721754074097,2.0780253410339355,3.911353826522827,0.3179609477519989,-0.12618117034435272,0.2848067581653595,0.0839395597577095
335,23598,23596,-0.031391989439725876,-0.02690740115940571,1.0006989240646362,-1.6568126678466797,0.029511425644159317,-1.4722168445587158,2.0794825553894043,3.9114506244659424,0.31739333271980286,-0.181146502494812,0.2890699505805969,0.0481351763010025
336,23608,23606,0.0001740213338052854,-0.027397138997912407,0.9818060994148254,-3.8738133907318115,-0.16224175691604614,-1.2278897762298584,2.0811171531677246,3.911348581314087,0.31672006845474243,-0.3105563223361969,0.16530168056488037,0.03371724858880043
337,23618,23616,0.014016600325703621,-0.019174134358763695,1.0199826955795288,-4.775624752044678,0.44649538397789,-1.339368462562561,2.083620309829712,3.912363052368164,0.31580764055252075,-0.27489686012268066,0.10356516391038895,0.021055134013295174
338,23628,23626,0.003960473462939262,0.06973767280578613,1.0624290704727173,-3.3725626468658447,-0.779939591884613,-1.5500339269638062,2.084531784057617,3.9121623039245605,0.31522613763809204,-0.30842700600624084,0.053787440061569214,-0.014771068468689919
339,23638,23636,0.011941424570977688,0.02973569929599762,1.057507872581482,-0.40169471502304077,-2.784538507461548,-1.875437617301941,2.085963726043701,3.9121267795562744,0.31466495990753174,-0.3021877110004425,0.04928191006183624,-0.03987531363964081
340,23648,23646,-0.0027684993110597134,0.01714235730469227,1.0566407442092896,2.134516716003418,-4.79763650894165,-1.6893041133880615,2.0861005783081055,3.9111759662628174,0.3131140470504761,-0.26223206520080566,0.058251433074474335,-0.09112436324357986
341,23658,23656,-0.014605327509343624,0.01782102696597576,1.0013911724090576,4.754711151123047,-6.832277297973633,-1.5307129621505737,2.0859880447387695,3.9112818241119385,0.31270912289619446,0.035310789942741394,0.2537446916103363,-0.10009294003248215
342,23668,23666,-0.014472640119493008,-0.005173283163458109,0.9565321207046509,5.366611957550049,-6.217337608337402,-1.0734889507293701,2.086552143096924,3.910024881362915,0.31232932209968567,0.0005810576840303838,0.26154449582099915,-0.12481625378131866
343,23678,23676,0.02624031901359558,-0.04998171329498291,0.9616302847862244,4.799160003662109,-4.67803955078125,-0.7855696678161621,2.0882771015167236,3.9104151725769043,0.3117915987968445,0.028681056573987007,0.26896244287490845,-0.13150054216384888
344,23688,23686,0.04734668880701065,-0.12434874475002289,1.0305094718933105,2.0113484859466553,-1.508832573890686,-0.7583412528038025,2.089492082595825,3.9107017517089844,0.3104858100414276,0.09644056856632233,0.31792789697647095,-0.1276066154241562
345,23698,23696,-0.0062650335021317005,-0.001456298166885972,1.022083044052124,-1.0475215911865234,1.0298829078674316,-0.5872146487236023,2.090357780456543,3.9106369018554688,0.30994608998298645,0.11719855666160583,0.31937992572784424,-0.14362235367298126
346,23708,23706,0.004868766758590937,-0.2137264758348465,1.0425310134887695,-3.6279399394989014,2.5386502742767334,-1.0009156465530396,2.0912582874298096,3.910771608352661,0.30937814712524414,0.029976384714245796,0.26841193437576294,-0.14932049810886383
347,23718,23716,-0.0009636334143579006,-0.2586453855037689,1.0166001319885254,-5.074217319488525,4.1503376960754395,-1.3988503217697144,2.0929982662200928,3.910309314727783,0.30953535437583923,0.07487417757511139,0.1969752013683319,-0.1971866935491562
348,23728,23726,0.012676861137151718,-0.11552611738443375,0.9692773818969727,-4.661959171295166,3.978728771209717,-1.3515899181365967,2.092880964279175,3.909799337387085,0.30913376808166504,-0.050060100853443146,0.19958075881004333,-0.27149081230163574
349,23738,23736,0.013092330656945705,0.10068022459745407,0.9235040545463562,-3.60308837890625,3.714110851287842,-0.8036775588989258,2.0946829319000244,3.9087295532226562,0.3086400330066681,-0.028824446722865105,0.13935592770576477,-0.27058640122413635
350,23748,23746,0.038675371557474136,0.07596197724342346,0.9868109226226807,-2.035442352294922,0.4965236783027649,-0.4569265842437744,2.0952651500701904,3.909010887145996,0.3121524155139923,-0.039406388998031616,0.18040961027145386,-0.28392791748046875
351,23758,23756,-0.02964920550584793,-0.015930328518152237,1.1314921379089355,-0.38679301738739014,-2.35381817817688,-0.2581327259540558,2.096057891845703,3.908571481704712,0.3118527829647064,-0.05969834327697754,0.1618283987045288,-0.2833903133869171
352,23768,23766,-0.03611192852258682,-0.05711335316300392,1.108288288116455,1.5901905298233032,-3.495617628097534,0.8489372134208679,2.0974767208099365,3.9077203273773193,0.3115452229976654,0.045431822538375854,0.10067929327487946,-0.31586596369743347
353,23778,23776,-0.05562872439622879,-0.02661258913576603,1.0428258180618286,1.4862607717514038,-3.159576892852783,0.4362735450267792,2.0979301929473877,3.9081637859344482,0.31142038106918335,-0.019148144870996475,0.13304424285888672,-0.3241617679595947
354,23788,23786,0.008994885720312595,0.0022463477216660976,0.9694233536720276,1.1920394897460938,-1.6148344278335571,0.8361232280731201,2.099637985229492,3.907639503479004,0.3114870488643646,0.04626470431685448,0.15858310461044312,-0.31552261114120483
355,23798,23796,0.08062022179365158,-0.024947401136159897,0.9944758415222168,0.4897601902484894,-1.0067825317382812,0.449531614780426,2.0993995666503906,3.9077835083007812,0.31143641471862793,0.08272571861743927,0.16659975051879883,-0.27804362773895264
356,23808,23806,0.029096754267811775,-0.06722365319728851,1.0126965045928955,-0.2792896628379822,-2.167095899581909,0.4358176589012146,2.100224256515503,3.907571792602539,0.31140682101249695,-0.021835852414369583,0.16385653614997864,-0.2832866609096527
357,23818,23816,0.006707452703267336,-0.049902379512786865,1.0088125467300415,-0.5396620035171509,-2.358687400817871,0.5861215591430664,2.1022117137908936,3.9075927734375,0.30945125222206116,0.054622381925582886,0.15783190727233887,-0.27831414341926575
358,23828,23826,0.02491988241672516,-0.01858479157090187,1.0450515747070312,-0.5352188348770142,-3.2484376430511475,0.2517196834087372,2.102768659591675,3.907773017883301,0.3093332350254059,0.14150239527225494,0.14737394452095032,-0.26426130533218384
359,23838,23836,0.0071810209192335606,-0.03070930577814579,0.9568806886672974,-1.4862228631973267,-2.403958797454834,-0.06681154668331146,2.1032567024230957,3.907670259475708,0.30924174189567566,0.04722399637103081,0.13028426468372345,-0.277005136013031
360,23848,23846,-0.014607195742428303,-0.06394746899604797,0.9903711676597595,-1.1074455976486206,-2.0773496627807617,-0.2933249771595001,2.1053571701049805,3.9072577953338623,0.3080158829689026,0.04561366140842438,0.11098227649927139,-0.29177501797676086
361,23858,23856,0.019049424678087234,0.0170306246727705,1.0367101430892944,-0.033039651811122894,-1.9493250846862793,0.02459859475493431,2.1066434383392334,3.9077041149139404,0.30778345465660095,0.19934818148612976,0.10849926620721817,-0.2757289707660675
362,23868,23866,0.008321061730384827,0.04898415133357048,1.0714086294174194,-0.07027968764305115,-1.8944073915481567,0.026218276470899582,2.106659412384033,3.907686710357666,0.30769798159599304,0.25820252299308777,0.10868071764707565,-0.2738276422023773
363,23878,23876,-0.021497562527656555,0.04299962520599365,1.0335721969604492,0.2123270183801651,-1.328155755996704,0.22560448944568634,2.1071434020996094,3.90824294090271,0.30758732557296753,0.22635525465011597,0.1939527690410614,-0.24997186660766602
364,23888,23886,-0.06461511552333832,0.10410042107105255,1.0092806816101074,0.722954511642456,0.3348841071128845,0.3978405296802521,2.1085855960845947,3.9068446159362793,0.3108121454715729,0.2528432607650757,0.19886484742164612,-0.3070108890533447
365,23898,23896,0.02010502852499485,-0.07230620831251144,1.004705548286438,-0.16841211915016174,1.324202060699463,0.37369605898857117,2.1082873344421387,3.906529664993286,0.31088703870773315,0.26439642906188965,0.19058643281459808,-0.2598777711391449
366,23908,23906,0.02659706026315689,-0.07356427609920502,1.0035980939865112,-1.701223611831665,2.48171067237854,0.024960465729236603,2.109198570251465,3.9070940017700195,0.3110503852367401,0.25277867913246155,0.08857665956020355,-0.22856834530830383
367,23918,23916,-0.032275743782520294,-0.069678895175457,1.0572961568832397,-2.101640462875366,2.4700767993927,-1.0200225114822388,2.1092214584350586,3.9081900119781494,0.31244009733200073,0.0840146467089653,0.1292305737733841,-0.20711059868335724
368,23928,23926,0.018618283793330193,-0.08457978814840317,0.9204463362693787,-1.4272756576538086,1.908936619758606,-0.8472562432289124,2.110348701477051,3.907478094100952,0.31264230608940125,0.14467379450798035,0.09818751364946365,-0.20856386423110962
369,23938,23936,-0.010489600710570812,-0.03256625682115555,0.9444021582603455,-1.8862351179122925,-1.9297473430633545,-0.056806642562150955,2.1104207038879395,3.909959077835083,0.31297022104263306,0.11266297847032547,0.06927576661109924,-0.0506032295525074
370,23948,23946,-0.027343295514583588,-0.07040342688560486,1.0095099210739136,-2.2205405235290527,-2.247933864593506,-0.9281619191169739,2.1121342182159424,3.9129841327667236,0.3101676404476166,0.1184471994638443,0.10730867832899094,0.05802832916378975
371,23958,23956,-0.02731039561331272,-0.018949853256344795,0.981493353843689,-2.2671937942504883,-3.256869077682495,-1.8727368116378784,2.1132211685180664,3.913923978805542,0.31012317538261414,0.2131955623626709,0.06525740772485733,0.08495606482028961
372,23968,23966,-0.03301222622394562,-0.0065661948174238205,1.0399212837219238,-1.359481930732727,-4.248877048492432,-1.8684014081954956,2.1136679649353027,3.9143571853637695,0.3101687431335449,0.3078839182853699,0.03056262992322445,0.0704016461968422
373,23978,23976,-0.017505275085568428,-0.03037489950656891,1.0095338821411133,-0.6375036239624023,-2.347902774810791,-1.420401692390442,2.1137032508850098,3.914536714553833,0.3085556924343109,0.21531075239181519,0.01603497937321663,0.0651293471455574
374,23988,23986,0.0019238246604800224,-0.24086420238018036,1.0665169954299927,1.1140986680984497,-1.1321580410003662,-1.1675797700881958,2.1159005165100098,3.9142541885375977,0.30843159556388855,0.348204642534256,0.01980992592871189,0.05686064809560776
375,23998,23996,0.043118175119161606,-0.1883706897497177,0.9947527647018433,0.9418079853057861,0.9795911908149719,-1.0038347244262695,2.1158673763275146,3.9148476123809814,0.30853599309921265,0.28065961599349976,0.03324798867106438,0.04232591763138771
376,24008,24006,0.02456757053732872,-0.09032005816698074,0.989605188369751,0.8493556380271912,3.0168721675872803,-1.0172984600067139,2.117295980453491,3.9141626358032227,0.3085314929485321,0.2605181634426117,0.04070151969790459,0.020435957238078117
377,24018,24016,-0.00394532410427928,-0.050013430416584015,0.9508302211761475,0.2205265313386917,3.255927324295044,-1.6227763891220093,2.117464065551758,3.9142861366271973,0.30622556805610657,0.221339613199234,0.04943260923027992,0.026077577844262123
378,24028,24026,0.03255494683980942,-0.004591453354805708,0.9100258946418762,-0.9652782678604126,6.243614673614502,-1.979371190071106,2.118133544921875,3.9142038822174072,0.30607670545578003,0.27398955821990967,0.04003084450960159,0.02533712051808834
379,24038,24036,0.08340387791395187,0.0735466256737709,0.8824629187583923,-1.3268940448760986,1.4454598426818848,-1.6874194145202637,2.1183598041534424,3.9154021739959717,0.30586981773376465,0.15504223108291626,0.02223757468163967,0.06732263416051865
380,24048,24046,0.020112326368689537,0.022785905748605728,0.9142611622810364,-2.5430402755737305,-0.061409372836351395,-1.4753504991531372,2.1198723316192627,3.9155795574188232,0.3056805431842804,0.131772980093956,-0.005686935968697071,0.07406643778085709
381,24058,24056,0.051936764270067215,-0.09245802462100983,0.9819484353065491,-2.1332709789276123,-0.7920427918434143,-2.147115468978882,2.1195340156555176,3.9156718254089355,0.3052630126476288,0.2274283915758133,-0.04232101887464523,0.06092916429042816
382,24068,24066,0.06365595012903214,-0.006974241696298122,0.9807447791099548,-2.335510015487671,0.2895650267601013,-0.8955227732658386,2.1186978816986084,3.916200876235962,0.30486375093460083,0.07393953949213028,-0.1505819410085678,0.07633199542760849
383,24078,24076,0.106050506234169,-0.05852579325437546,0.9481568336486816,-1.3605749607086182,0.23403289914131165,-1.1802171468734741,2.120412826538086,3.917057991027832,0.3032058775424957,0.17523141205310822,-0.24279192090034485,0.06558894366025925
384,24088,24086,0.09935203939676285,-0.11572521924972534,0.9920613169670105,0.9410528540611267,-0.16818685829639435,-1.226706624031067,2.1206588745117188,3.9168713092803955,0.30270737409591675,0.11151804774999619,-0.23507484793663025,0.007586712017655373
385,24098,24096,0.03183760866522789,-0.06065503880381584,0.9657883644104004,3.9672718048095703,-0.4109863042831421,-1.0738006830215454,2.122004747390747,3.9165194034576416,0.30209413170814514,0.20118311047554016,-0.11841604858636856,-0.04068124294281006
386,24108,24106,-0.017043979838490486,0.1379615068435669,1.017934799194336,6.391383647918701,1.7899221181869507,-1.039406657218933,2.1222944259643555,3.915268659591675,0.30164894461631775,0.20565959811210632,-0.11285179108381271,-0.03772321343421936
387,24118,24116,-0.014615138061344624,0.18928773701190948,0.9401816129684448,6.861011981964111,0.775877058506012,-0.3905654847621918,2.1229608058929443,3.9169790744781494,0.2997911274433136,0.19794075191020966,0.0011740894988179207,0.0032763683702796698
388,24128,24126,0.019617019221186638,0.13137711584568024,0.941998302936554,5.258198261260986,1.6778626441955566,-1.0106379985809326,2.123241424560547,3.916816473007202,0.2991553544998169,0.10464704036712646,0.10971219837665558,-0.017636040225625038
389,24138,24136,0.0033625990618020296,0.03263634443283081,1.0359045267105103,2.2533295154571533,2.479032516479492,-0.8614240884780884,2.123979091644287,3.9158132076263428,0.2982865869998932,0.1524811089038849,0.11298958212137222,-0.009671890176832676
390,24148,24146,-0.0006723603000864387,-0.03568197414278984,1.0727050304412842,-1.976077914237976,4.185514450073242,-0.6933250427246094,2.1240901947021484,3.9165470600128174,0.299856573343277,0.11227881908416748,0.061862967908382416,0.05438229441642761
391,24158,24156,0.005876011215150356,-0.0034886817447841167,1.0594487190246582,-3.563885450363159,3.632917881011963,-0.6627365350723267,2.1250641345977783,3.9183855056762695,0.299261212348938,0.135457381606102,0.04332522302865982,0.05338863283395767
392,24168,24166,-0.005351047031581402,-0.06890843063592911,1.053231120109558,-5.821572780609131,5.694618225097656,-1.4538723230361938,2.12516713142395,3.919773817062378,0.29878470301628113,0.10201749950647354,0.012281469069421291,0.10240128636360168
393,24178,24176,0.014484664425253868,-0.07139696180820465,1.0499639511108398,-1.559532880783081,3.1154732704162598,-0.6453014612197876,2.1267857551574707,3.9203994274139404,0.29512491822242737,-0.04843224212527275,-0.06064693257212639,0.10775332152843475
394,24188,24186,0.003128088777884841,-0.03439745679497719,1.0245764255523682,1.7324343919754028,1.228722333908081,-0.7544687390327454,2.1283373832702637,3.9211089611053467,0.29443228244781494,-0.16121819615364075,-0.0779888853430748,0.13682430982589722
395,24198,24196,-0.017075004056096077,0.007644881494343281,1.0382318496704102,4.981431484222412,-0.7190245985984802,-0.3875149190425873,2.129065752029419,3.9212188720703125,0.29388365149497986,-0.12972232699394226,0.008077665232121944,0.18130381405353546
396,24208,24206,0.012633459642529488,0.0035644315648823977,1.012798547744751,6.713070392608643,-1.9870532751083374,0.022095106542110443,2.129455327987671,3.9214468002319336,0.2933797538280487,-0.13143682479858398,0.05032617226243019,0.16330690681934357
397,24218,24216,0.007608168292790651,0.03546175733208656,1.0426063537597656,8.136566162109375,-3.1810145378112793,-0.07372995465993881,2.1298842430114746,3.920454978942871,0.29054442048072815,-0.1554321050643921,0.01382362935692072,0.0831938236951828
398,24228,24226,0.020160183310508728,0.03902096301317215,1.0550137758255005,7.1319146156311035,-4.137224197387695,0.8151219487190247,2.1301229000091553,3.920228958129883,0.28999969363212585,-0.07288137823343277,0.16776713728904724,0.09328720718622208
399,24238,24236,0.025087296962738037,0.008831856772303581,1.0639259815216064,4.45656156539917,-1.9791475534439087,0.2999848425388336,2.129835844039917,3.920682191848755,0.2894139587879181,0.006918611470609903,0.22442372143268585,0.12153457850217819
400,24248,24246,-0.057666048407554626,0.09774673730134964,1.077736258506775,0.593234121799469,-1.245834469795227,0.6026633381843567,2.130434989929199,3.920840263366699,0.29387935996055603,0.0504797026515007,0.3164135217666626,0.14229997992515564
401,24258,24256,-0.07201763987541199,0.11721406877040863,1.0522258281707764,-2.4078023433685303,1.2828490734100342,0.865585207939148,2.1309216022491455,3.9220244884490967,0.29374465346336365,0.08317574113607407,0.34164512157440186,0.20667314529418945
402,24268,24266,0.006472156383097172,0.05250153690576553,1.0800788402557373,-4.61259126663208,3.5387065410614014,0.5564265251159668,2.1311004161834717,3.923125982284546,0.2936178147792816,0.07811734825372696,0.23554100096225739,0.24185936152935028
403,24278,24276,-0.03296036645770073,-0.04689352586865425,1.0479896068572998,-4.914998531341553,6.0449442863464355,-0.3090721368789673,2.132077217102051,3.9237565994262695,0.300476610660553,0.029944438487291336,0.17364412546157837,0.263264000415802
404,24288,24286,-0.011246311478316784,-0.12974628806114197,0.9995632767677307,-2.8784592151641846,5.483470916748047,0.1154043897986412,2.1323142051696777,3.9242725372314453,0.30087101459503174,-0.05301518738269806,0.10858144611120224,0.28666189312934875
405,24298,24296,-0.010089659132063389,-0.08753373473882675,0.9810134768486023,1.600775957107544,3.0977556705474854,0.03501574695110321,2.133121967315674,3.9248228073120117,0.3013817369937897,-0.12750379741191864,0.0711124911904335,0.3100947141647339
406,24308,24306,-0.006657817400991917,-0.03622746467590332,1.015052318572998,4.314150810241699,0.37467631697654724,-0.2255423218011856,2.1346144676208496,3.9257333278656006,0.29923051595687866,-0.2511063814163208,0.10409436374902725,0.36103329062461853
407,24318,24316,0.049199752509593964,-0.05485780909657478,1.044790506362915,5.899749755859375,-2.256852388381958,0.12138016521930695,2.1365807056427,3.9262776374816895,0.2995600998401642,-0.3178860545158386,0.18556924164295197,0.3914167881011963
408,24328,24326,0.007599846925586462,-0.00902561191469431,1.025066614151001,6.133647918701172,-4.318138599395752,0.23277893662452698,2.1364853382110596,3.9259326457977295,0.30005988478660583,-0.1809305101633072,0.29017823934555054,0.39389872550964355
409,24338,24336,0.007115611806511879,-0.03534485027194023,0.9966906309127808,5.148128032684326,-6.02802848815918,0.11063423752784729,2.137274742126465,3.9266107082366943,0.3005221486091614,-0.09517602622509003,0.32452163100242615,0.40758341550827026
410,24348,24346,-0.013697680085897446,-0.047390345484018326,1.0109121799468994,1.8530617952346802,-4.153658390045166,0.10276161879301071,2.1387600898742676,3.926499366760254,0.29773345589637756,-0.14292769134044647,0.4191593825817108,0.4180964231491089
411,24358,24356,0.001422646688297391,-0.056942351162433624,1.0112977027893066,-0.9230256080627441,-5.196531772613525,0.1335890144109726,2.138956308364868,3.928328514099121,0.297990620136261,-0.0519552081823349,0.302251935005188,0.4519107937812805
412,24368,24366,-0.024098750203847885,-0.003858742769807577,0.9772762060165405,-2.995635986328125,-1.5415624380111694,-0.5124673247337341,2.1400341987609863,3.9282000064849854,0.2981726825237274,-0.03002035804092884,0.3083439767360687,0.4714481234550476
413,24378,24376,0.0237421877682209,-0.06408056616783142,1.009938359260559,-4.119935035705566,-0.2689493000507355,-0.16299571096897125,2.1405367851257324,3.929030418395996,0.3011961281299591,-0.05497424677014351,0.19819305837154388,0.4605529010295868
414,24388,24386,0.03393934667110443,-0.09907711297273636,1.03875732421875,-2.7320995330810547,-0.3694729208946228,0.15520858764648438,2.1398322582244873,3.9296209812164307,0.30161145329475403,0.057073451578617096,0.15262368321418762,0.48477068543434143
415,24398,24396,0.04912301152944565,-0.09318897873163223,0.9604886174201965,0.7204554080963135,1.2586077451705933,-0.7781899571418762,2.1398873329162598,3.9290201663970947,0.3020932674407959,0.1563950628042221,0.20506486296653748,0.48773834109306335
416,24408,24406,-0.0005091767525300384,-0.011793706566095352,0.9398380517959595,2.257885694503784,3.0727145671844482,-0.4831382632255554,2.14056396484375,3.928501605987549,0.3032471835613251,0.059961073100566864,0.30497536063194275,0.5066933035850525
417,24418,24416,0.02344376966357231,0.009174209088087082,0.9458641409873962,2.7920122146606445,3.6989328861236572,-0.18004629015922546,2.1413888931274414,3.9291181564331055,0.3036671280860901,0.011697279289364815,0.27152466773986816,0.5543783903121948
418,24428,24426,0.012408026494085789,0.038373157382011414,1.0440715551376343,3.070748805999756,0.8529404401779175,-0.6881134510040283,2.1416819095611572,3.9304215908050537,0.30408549308776855,0.03871449828147888,0.32844647765159607,0.589320182800293
419,24438,24436,-0.011675543151795864,-0.011565091088414192,1.0027408599853516,1.431670069694519,1.2639731168746948,-1.3969148397445679,2.142673969268799,3.930663585662842,0.3044654130935669,0.022905228659510612,0.3066484034061432,0.5616571307182312
420,24448,24446,0.03748545050621033,-0.1346069574356079,0.9991744160652161,0.6751776337623596,1.3114765882492065,-1.3045066595077515,2.144160747528076,3.9307327270507812,0.30602720379829407,-0.07215569913387299,0.3445734679698944,0.5582094788551331
421,24458,24456,-0.011727951467037201,0.007811576593667269,0.9691380262374878,-1.6717249155044556,3.3021788597106934,-2.0059328079223633,2.146108865737915,3.9310410022735596,0.3064669966697693,-0.15357248485088348,0.35965457558631897,0.5546847581863403
422,24468,24466,0.030262185260653496,-0.06596429646015167,0.913404643535614,-2.0456483364105225,1.1117326021194458,-1.6732003688812256,2.146583080291748,3.9315927028656006,0.30702582001686096,-0.09219425916671753,0.34049534797668457,0.5604232549667358
423,24478,24476,0.025542663410305977,0.05330413207411766,0.9188364148139954,-3.2818498611450195,0.32501089572906494,-2.1742300987243652,2.1478466987609863,3.9335262775421143,0.30968084931373596,-0.17050762474536896,0.31235215067863464,0.6432409286499023
424,24488,24486,0.02778928168118,0.03422167897224426,0.9713592529296875,-2.510035753250122,-2.3476510047912598,-2.3825106620788574,2.148216485977173,3.935706853866577,0.31018972396850586,-0.16578836739063263,0.2673383057117462,0.7324159145355225
425,24498,24496,0.02143118716776371,-0.07163278758525848,1.0186381340026855,-1.304296612739563,-3.8481245040893555,-2.880610942840576,2.1480915546417236,3.9359891414642334,0.3107362687587738,-0.04810324311256409,0.23152302205562592,0.715989887714386
426,24508,24506,0.06973481923341751,-0.13534075021743774,0.954406201839447,-0.938605546951294,-2.8349061012268066,-2.677922248840332,2.1482603549957275,3.9371631145477295,0.3096863329410553,-0.06299296021461487,0.21494710445404053,0.7671651840209961
427,24518,24516,0.02938150428235531,-0.05422085523605347,0.9450644850730896,0.5427064299583435,-1.7831742763519287,-3.252220869064331,2.1488137245178223,3.9370100498199463,0.3100135922431946,-0.009001495316624641,0.20658427476882935,0.7356019616127014
428,24528,24526,0.03107108362019062,-0.10020597279071808,0.9370323419570923,0.9761760830879211,1.4174952507019043,-3.2639434337615967,2.1499993801116943,3.937962532043457,0.31025269627571106,-0.0407075434923172,0.22171293199062347,0.75944983959198
429,24538,24536,-0.02595752291381359,-0.08128762990236282,1.0198554992675781,0.5392726063728333,2.5558671951293945,-3.3141419887542725,2.1500449180603027,3.939084053039551,0.3105235993862152,0.04253678023815155,0.16603058576583862,0.7824994921684265
430,24548,24546,-0.08748031407594681,-0.014597471803426743,1.0566929578781128,2.384141683578491,4.708679676055908,-4.125429630279541,2.1512486934661865,3.9398984909057617,0.3094870448112488,-0.04793936386704445,0.18631906807422638,0.7614076137542725
431,24558,24556,-0.04019353166222572,-0.044065412133932114,1.0468178987503052,0.7471479773521423,5.978235721588135,-3.3331692218780518,2.1521148681640625,3.9425299167633057,0.3097151815891266,-0.01542177889496088,0.23240616917610168,0.8685523867607117
432,24568,24566,-0.06039510294795036,0.03868548944592476,0.9934095740318298,0.7359285354614258,5.705412864685059,-4.0781941413879395,2.1526191234588623,3.9423716068267822,0.30991995334625244,-0.024383988231420517,0.26006409525871277,0.8244128823280334
433,24578,24576,-0.051431842148303986,0.08506491780281067,0.9294556379318237,-1.1143927574157715,1.8693715333938599,-3.035177230834961,2.1531057357788086,3.9430012702941895,0.3133107125759125,-0.04525088518857956,0.28164637088775635,0.8196361064910889
434,24588,24586,-6.464446050813422e-05,0.054263997822999954,0.917019248008728,-3.0933990478515625,3.077134847640991,-4.105398654937744,2.153913736343384,3.943880081176758,0.31369930505752563,-0.11350230127573013,0.27152249217033386,0.8182927370071411
435,24598,24596,-0.03279314190149307,0.0004648163157980889,1.0211992263793945,-2.4651403427124023,0.8071944117546082,-4.083027362823486,2.1539463996887207,3.943450450897217,0.31403475999832153,-0.10297727584838867,0.2288178652524948,0.7477771639823914
436,24608,24606,0.031546302139759064,-0.04334397614002228,0.9665623903274536,-1.697833776473999,3.7846364974975586,-4.269171237945557,2.1550920009613037,3.9442033767700195,0.31317198276519775,-0.13028335571289062,0.2678133547306061,0.7708353400230408
437,24618,24616,0.047489188611507416,-0.0953557938337326,0.9878621697425842,-1.5002309083938599,1.1298803091049194,-4.159526824951172,2.1558265686035156,3.944105863571167,0.3133507966995239,-0.2026217132806778,0.2361954003572464,0.7177905440330505
438,24628,24626,0.03927859663963318,-0.02628161944448948,0.9122878909111023,-1.7422550916671753,1.4981486797332764,-3.510897636413574,2.1574547290802,3.944141387939453,0.313449889421463,-0.30645328760147095,0.20590519905090332,0.6913423538208008
439,24638,24636,0.023955682292580605,-0.12420018017292023,0.9525786638259888,-1.5814517736434937,0.33504101634025574,-3.4628543853759766,2.158221483230591,3.944880723953247,0.31356489658355713,-0.31767505407333374,0.17639514803886414,0.6706408858299255
440,24648,24646,0.0023782248608767986,-0.06092803180217743,0.9947494268417358,-0.5941415429115295,-0.6736835241317749,-3.371837854385376,2.157745838165283,3.9449524879455566,0.3102569282054901,-0.231729656457901,0.15008580684661865,0.6453747153282166
441,24658,24656,-0.0004197870730422437,-0.0010953966993838549,0.9916955232620239,-0.20335568487644196,-4.285354137420654,-2.9746994972229004,2.1582250595092773,3.9456627368927,0.31008440256118774,-0.21496929228305817,0.14187075197696686,0.6528074741363525
442,24668,24666,0.02500363253057003,-0.12206532061100006,0.9414151906967163,0.47454768419265747,2.587188959121704,-3.967247724533081,2.1573760509490967,3.9455854892730713,0.3100370168685913,-0.0801621600985527,0.14459958672523499,0.6610565781593323
443,24678,24676,0.059219446033239365,-0.0766429752111435,0.8714962601661682,0.20144972205162048,3.953190565109253,-3.8734781742095947,2.1594746112823486,3.9466707706451416,0.3115549683570862,-0.2124858796596527,0.23599818348884583,0.6746740937232971
444,24688,24686,0.0795314759016037,-0.07307358086109161,0.8632459044456482,-0.4221038818359375,3.009042978286743,-4.12611198425293,2.1585326194763184,3.945966958999634,0.31136560440063477,-0.20768767595291138,0.23320986330509186,0.6579309105873108
445,24698,24696,0.027616510167717934,-0.019113123416900635,0.9424933195114136,-2.476802349090576,3.039499282836914,-3.8857815265655518,2.158761978149414,3.9465818405151367,0.3110851049423218,-0.19313989579677582,0.21734890341758728,0.6111025214195251
446,24708,24706,0.04574407637119293,-0.1371510773897171,0.9898622632026672,-3.213405132293701,3.5483758449554443,-3.4395670890808105,2.158957004547119,3.946959972381592,0.30788683891296387,-0.2559833228588104,0.16670893132686615,0.5969499349594116
447,24718,24716,0.024139441549777985,-0.2170371115207672,1.037285566329956,-3.1524922847747803,4.235504627227783,-3.5768582820892334,2.159968137741089,3.94754958152771,0.30725082755088806,-0.3125957250595093,0.10448978841304779,0.5837145447731018
448,24728,24726,0.021455343812704086,-0.08826636523008347,0.9390917420387268,-2.2332210540771484,5.4101104736328125,-3.863934278488159,2.160149097442627,3.947707414627075,0.30666467547416687,-0.29694077372550964,0.1277087777853012,0.5834715962409973
449,24738,24736,0.0068053253926336765,-0.025134997442364693,0.9539835453033447,-1.5150889158248901,3.556818723678589,-4.101770401000977,2.1603386402130127,3.947314739227295,0.310110867023468,-0.4160907566547394,0.06798968464136124,0.5506594777107239
450,24748,24746,-0.011817746795713902,-0.024541040882468224,0.9730516672134399,-2.0351929664611816,2.9124021530151367,-3.484382390975952,2.1613857746124268,3.948105812072754,0.30957186222076416,-0.3886147141456604,0.03309216350317001,0.543037474155426
451,24758,24756,-0.06086798384785652,0.033016517758369446,1.0312331914901733,-2.719442367553711,2.3073480129241943,-3.1879196166992188,2.1617629528045654,3.9479618072509766,0.30919694900512695,-0.4039682447910309,0.013878083787858486,0.4768927991390228
452,24768,24766,-0.009570437483489513,0.025864284485578537,1.0164496898651123,-1.2863041162490845,2.4541404247283936,-3.527522563934326,2.1620774269104004,3.9485573768615723,0.3087788224220276,-0.3160833418369293,-0.04113011434674263,0.4563046395778656
453,24778,24776,0.014880910515785217,-0.004970657639205456,1.0168259143829346,-1.841163158416748,3.000450611114502,-3.4131975173950195,2.1615192890167236,3.9488344192504883,0.30594730377197266,-0.45731765031814575,0.011321905069053173,0.43922561407089233
454,24788,24786,-0.01709851250052452,-0.012489227578043938,0.9857073426246643,0.7450721263885498,6.607057094573975,-4.470795631408691,2.1630589962005615,3.9489545822143555,0.3053850829601288,-0.4855169653892517,-0.00504102511331439,0.5054234862327576
455,24798,24796,-0.02537340112030506,-0.5116404891014099,0.9825603365898132,2.417539119720459,0.8178243041038513,-3.463008403778076,2.164740800857544,3.950160264968872,0.3047277629375458,-0.6458026170730591,0.002980930032208562,0.49596652388572693
456,24808,24806,-0.013955053873360157,-0.4315706789493561,1.019522786140442,0.05226854607462883,-0.23134978115558624,-3.3440144062042236,2.164198160171509,3.950090169906616,0.30356764793395996,-0.5718086361885071,0.036559414118528366,0.47766441106796265
457,24818,24816,0.01415022648870945,-0.08629930764436722,1.0470530986785889,-0.15748727321624756,1.8250937461853027,-3.88662052154541,2.1646130084991455,3.9506824016571045,0.30288922786712646,-0.5599989295005798,-0.04340142756700516,0.43368321657180786
458,24828,24826,0.03293590247631073,-0.038915812969207764,1.0237455368041992,-1.276653528213501,-2.986747980117798,-2.867680072784424,2.1642796993255615,3.9482431411743164,0.30220675468444824,-0.4579380750656128,-0.049672964960336685,0.2683025896549225
459,24838,24836,-0.013172803446650505,-0.014697340317070484,1.1124712228775024,-0.7528554797172546,-4.749576568603516,-2.1622772216796875,2.163454532623291,3.9474847316741943,0.3000757396221161,-0.4168514311313629,-0.05972866714000702,0.23953242599964142
460,24848,24846,-0.007305508479475975,0.02262297458946705,1.065475583076477,-1.0687777996063232,-2.343975782394409,-1.5934476852416992,2.1643686294555664,3.9478824138641357,0.29945892095565796,-0.4325726628303528,-0.1570715308189392,0.17491312325000763
461,24858,24856,0.0025462948251515627,-0.011182247661054134,1.0211181640625,-0.4966355264186859,-0.0838937908411026,-1.5279825925827026,2.165257215499878,3.9485092163085938,0.2988876402378082,-0.47162795066833496,-0.16045816242694855,0.19120840728282928
462,24868,24866,-0.034847211092710495,-0.09001099318265915,1.043542504310608,0.48479393124580383,1.4182151556015015,-1.8250495195388794,2.1656105518341064,3.9478659629821777,0.2984899878501892,-0.46642211079597473,-0.07226875424385071,0.1916452944278717
463,24878,24876,0.0478966198861599,-0.7101894021034241,1.0087676048278809,0.657579779624939,-0.6734291911125183,-1.6602202653884888,2.165799617767334,3.948493719100952,0.29669344425201416,-0.49418166279792786,-0.05619741231203079,0.22011925280094147
464,24888,24886,0.004491296596825123,-0.4320877492427826,1.1456104516983032,2.4693076610565186,1.4139982461929321,-2.5548129081726074,2.1656131744384766,3.9487838745117188,0.29632067680358887,-0.4041220247745514,-0.03502508997917175,0.22150899469852448
465,24898,24896,0.010505377314984798,-0.1248050332069397,1.0278100967407227,2.1474201679229736,2.942992687225342,-3.4742684364318848,2.166940927505493,3.949643135070801,0.2957557141780853,-0.5872564315795898,0.009480617940425873,0.3365854024887085
466,24908,24906,0.0149235175922513,0.008955906145274639,1.0569225549697876,0.5189203023910522,3.221414566040039,-3.729642391204834,2.1671385765075684,3.9511120319366455,0.29736781120300293,-0.5400053262710571,0.03924933075904846,0.33617520332336426
467,24918,24916,0.016262687742710114,-0.02061326801776886,1.0168789625167847,-1.0069586038589478,0.11308951675891876,-4.340441703796387,2.167283773422241,3.9510116577148438,0.2972579002380371,-0.47809380292892456,0.0380173996090889,0.29173600673675537
468,24928,24926,0.04104398190975189,-0.10040805488824844,1.0639138221740723,-0.9740003347396851,-3.1691577434539795,-3.4525556564331055,2.1688599586486816,3.9530532360076904,0.2970786690711975,-0.5343312621116638,-0.06643543392419815,0.3149980902671814
469,24938,24936,0.008350706659257412,-0.005491102114319801,1.0700054168701172,-0.8306780457496643,-3.0425758361816406,-3.9293429851531982,2.1684067249298096,3.9532859325408936,0.2961081266403198,-0.45964449644088745,-0.07653500884771347,0.28966471552848816
470,24948,24946,0.05774453654885292,-0.10091178119182587,1.061293125152588,0.5156770348548889,-4.670654773712158,-3.875566244125366,2.16865873336792,3.9543840885162354,0.2958866357803345,-0.45232102274894714,-0.0834527239203453,0.34047731757164
471,24958,24956,0.038415003567934036,-0.3989855647087097,1.0839697122573853,1.5552432537078857,-3.7705397605895996,-4.228510856628418,2.1696345806121826,3.9546263217926025,0.2958029508590698,-0.4179637134075165,0.014442960731685162,0.39437177777290344
472,24968,24966,0.03322920575737953,-0.5951047539710999,0.9738569855690002,2.1329920291900635,-2.4204015731811523,-4.035836219787598,2.1705801486968994,3.9558680057525635,0.2957761287689209,-0.41297122836112976,0.04308266565203667,0.4098548889160156
473,24978,24976,-0.017571615055203438,-0.06383614242076874,1.0250933170318604,0.23425030708312988,-1.5775870084762573,-3.890249013900757,2.17091965675354,3.9552528858184814,0.2951389253139496,-0.3435312509536743,-0.006038073915988207,0.3164583742618561
474,24988,24986,0.0071803368628025055,-0.04290349781513214,0.9507989287376404,0.30290746688842773,-0.0071729496121406555,-3.436641216278076,2.1704814434051514,3.9552414417266846,0.29517242312431335,-0.3061157464981079,0.0074915289878845215,0.2911570072174072
475,24998,24996,-0.01577475294470787,0.015907982364296913,1.0148836374282837,0.6414540410041809,-1.9490139484405518,-3.1886017322540283,2.172126293182373,3.955845594406128,0.29503747820854187,-0.35404613614082336,0.013641022145748138,0.30693215131759644
476,25008,25006,-0.034190572798252106,0.038062166422605515,1.0526690483093262,0.40424102544784546,-1.025098204612732,-3.791206121444702,2.171562433242798,3.955933094024658,0.2970696985721588,-0.3073424994945526,0.022876985371112823,0.3192400336265564
477,25018,25016,0.014655225910246372,-0.019545752555131912,1.0032227039337158,-2.0868642330169678,0.5084950923919678,-3.58438777923584,2.172844886779785,3.9571361541748047,0.2973599135875702,-0.27442359924316406,0.02418774925172329,0.33619338274002075
478,25028,25026,-0.00392515491694212,0.005067167337983847,1.0386900901794434,-1.5350581407546997,-2.1679635047912598,-3.406529664993286,2.172835350036621,3.9587016105651855,0.2973974347114563,-0.26670801639556885,-0.0035947549622505903,0.40033164620399475
