,timestamp_start,timestamp_end,acc.x,acc.y,acc.z,gyro.x,gyro.y,gyro.z,stateEstimate.x,stateEstimate.y,stateEstimate.z,stabilizer.pitch,stabilizer.roll,stabilizer.yaw
0,18736,18730,0.012265929952263832,0.033117931336164474,0.7139902710914612,-8.772833824157715,-11.846217155456543,-18.161998748779297,1.7978107929229736,3.8427436351776123,0.3133692145347595,1.1254119873046875,-1.6039642095565796,5.520246982574463
1,18746,18740,0.03000480681657791,-0.01333693414926529,0.6813936233520508,-9.488821983337402,-13.590774536132812,-16.838062286376953,1.8003404140472412,3.8416481018066406,0.31740808486938477,1.2470030784606934,-1.6071349382400513,5.341014385223389
2,18756,18750,0.06101937219500542,0.01017073169350624,0.6626613736152649,-10.742009162902832,-13.732636451721191,-16.495689392089844,1.8002655506134033,3.8417255878448486,0.32527774572372437,1.5386277437210083,-1.7720999717712402,5.130340099334717
3,18766,18760,0.014380509033799171,-0.0019778546411544085,0.6539256572723389,-14.579607963562012,-9.023554801940918,-16.76856803894043,1.7993360757827759,3.8429501056671143,0.32923707365989685,1.6903666257858276,-2.0958456993103027,5.023553371429443
4,18776,18770,0.006344811525195837,-0.10186383128166199,0.6261267066001892,-12.986881256103516,-13.79377269744873,-15.472756385803223,1.8029077053070068,3.8425040245056152,0.33261749148368835,1.6552097797393799,-2.221728563308716,4.919898986816406
5,18786,18780,-0.03804389759898186,0.02900485135614872,0.6808617115020752,-10.507547378540039,-10.254887580871582,-15.646976470947266,1.8040404319763184,3.841965436935425,0.3356432318687439,1.839593768119812,-2.268202781677246,4.711995601654053
6,18796,18790,-0.016913024708628654,0.10597946494817734,0.6798577308654785,-7.605461120605469,-7.1104631423950195,-15.154374122619629,1.8040043115615845,3.8389852046966553,0.34217628836631775,2.063816785812378,-2.2416443824768066,4.483460426330566
7,18806,18800,-0.06963047385215759,-0.018214760348200798,0.6288230419158936,-5.937545299530029,-5.674574375152588,-15.011552810668945,1.8046165704727173,3.83904767036438,0.34495896100997925,2.148313045501709,-2.4788992404937744,4.386171340942383
8,18816,18810,-0.05368943139910698,-0.0007364798220805824,0.7145982384681702,-2.5166051387786865,-5.054479598999023,-14.560792922973633,1.8051179647445679,3.839937925338745,0.34741494059562683,2.1964540481567383,-2.644286870956421,4.2737650871276855
9,18826,18820,-0.03078741952776909,0.02158166654407978,0.7783365249633789,-2.506700277328491,1.69780433177948,-14.383133888244629,1.8072024583816528,3.83872652053833,0.35457685589790344,2.0678114891052246,-2.7151284217834473,4.192047595977783
10,18836,18830,-0.03813574090600014,0.03477228805422783,0.7726792097091675,1.83390474319458,-0.3201744258403778,-14.05669116973877,1.8063304424285889,3.8389925956726074,0.3567348122596741,2.186866044998169,-2.801788806915283,4.0336594581604
11,18846,18840,-0.01160936988890171,-0.0025438698939979076,0.7068052887916565,1.7513799667358398,2.700611114501953,-14.893280982971191,1.8088921308517456,3.837155342102051,0.3585405945777893,1.975563645362854,-2.6775922775268555,3.92661714553833
12,18856,18850,0.046865250915288925,-0.13681215047836304,0.6172065734863281,7.299488544464111,-2.3797879219055176,-14.774126052856445,1.8113802671432495,3.839167356491089,0.3671029210090637,1.797255516052246,-2.727393865585327,3.907797336578369
13,18866,18860,0.03737861290574074,-0.20251573622226715,0.6876445412635803,3.7945168018341064,-2.792457342147827,-14.988568305969238,1.8112844228744507,3.838155746459961,0.36895397305488586,1.9807615280151367,-2.689720392227173,3.6943984031677246
14,18876,18870,-0.027087174355983734,-0.0016407083021476865,0.6457971334457397,5.176468849182129,-8.078617095947266,-13.949158668518066,1.8104196786880493,3.8388454914093018,0.37037837505340576,2.143470287322998,-2.60237193107605,3.47735857963562
15,18886,18880,-0.023925330489873886,0.06491430103778839,0.6793214082717896,6.931493282318115,-12.971869468688965,-12.27769947052002,1.8110238313674927,3.839202404022217,0.3737412691116333,2.1523170471191406,-2.6235251426696777,3.435795307159424
16,18896,18890,0.019238455221056938,0.02756362035870552,0.7902137041091919,7.119560718536377,-12.405709266662598,-11.953032493591309,1.8120450973510742,3.838090181350708,0.3746274709701538,2.3288891315460205,-2.539616823196411,3.295238733291626
17,18906,18900,-0.02304178662598133,0.015400217846035957,0.7633506655693054,8.913446426391602,-13.27941608428955,-11.723731994628906,1.811588168144226,3.839106321334839,0.3753397762775421,2.5979950428009033,-2.5670933723449707,3.169152021408081
18,18916,18910,-0.021225430071353912,-0.001120347180403769,0.7278251051902771,4.679324626922607,-2.4563560485839844,-11.898396492004395,1.8125386238098145,3.839040756225586,0.37577036023139954,2.538562536239624,-2.564478874206543,3.1195530891418457
19,18926,18920,0.03787275031208992,-0.004355026874691248,0.7702674865722656,8.190377235412598,-4.079836368560791,-11.934965133666992,1.8140994310379028,3.839390277862549,0.3795633912086487,2.6552486419677734,-2.4597060680389404,2.965623140335083
20,18936,18930,0.03408356383442879,0.0295732319355011,0.7644773721694946,9.232635498046875,0.11101194471120834,-11.492684364318848,1.8162100315093994,3.839768409729004,0.37966689467430115,2.4765586853027344,-2.3949170112609863,2.95190167427063
21,18946,18940,-0.07927262783050537,-0.04045318439602852,0.6710416674613953,9.65503978729248,0.45943981409072876,-12.087656021118164,1.8179244995117188,3.841116189956665,0.37958815693855286,2.529181957244873,-2.3119821548461914,2.8259127140045166
22,18956,18950,-0.06887786835432053,0.12842418253421783,0.7230534553527832,10.452680587768555,1.6417797803878784,-11.31100082397461,1.8171693086624146,3.8416991233825684,0.3809840679168701,2.6374711990356445,-2.20554256439209,2.6699724197387695
23,18966,18960,-0.02105635590851307,0.2077796459197998,0.7958050966262817,7.199307441711426,6.914827823638916,-11.376435279846191,1.8175352811813354,3.8421125411987305,0.38046252727508545,2.6192564964294434,-2.2130918502807617,2.5671207904815674
24,18976,18970,-0.10782405734062195,0.08017175644636154,0.8546282649040222,8.040654182434082,7.125443935394287,-10.31561279296875,1.8172001838684082,3.8439688682556152,0.37967079877853394,2.603660821914673,-2.136894464492798,2.444502592086792
25,18986,18980,-0.04878588020801544,0.08249472826719284,0.824820339679718,9.848783493041992,4.44053840637207,-10.450906753540039,1.8160157203674316,3.8426101207733154,0.3792581260204315,2.615044593811035,-2.013267755508423,2.310889720916748
26,18996,18990,0.0312662236392498,0.37146124243736267,0.8688734173774719,6.758889198303223,7.263495445251465,-10.666581153869629,1.8172987699508667,3.8440771102905273,0.37820228934288025,2.548299789428711,-2.0122268199920654,2.233271360397339
27,19006,19000,-0.026581810787320137,0.3276326358318329,0.8366744518280029,5.5690484046936035,12.3596773147583,-10.796614646911621,1.8186722993850708,3.8456127643585205,0.37696340680122375,2.5644760131835938,-1.953599214553833,2.0666723251342773
28,19016,19010,-0.0728064477443695,0.13892251253128052,0.8282636404037476,7.217992305755615,12.538742065429688,-9.802029609680176,1.8205337524414062,3.846160411834717,0.37560349702835083,2.329530715942383,-1.8876421451568604,2.0246267318725586
29,19026,19020,0.0010414799908176064,0.07546649128198624,0.815837562084198,8.275871276855469,9.496498107910156,-10.079208374023438,1.823224663734436,3.8516690731048584,0.37081706523895264,2.1229312419891357,-1.8707878589630127,1.98921537399292
30,19036,19030,-0.16641777753829956,0.5044829845428467,0.9052516222000122,9.149041175842285,6.836991786956787,-9.108039855957031,1.8212356567382812,3.852459192276001,0.36886119842529297,2.111804246902466,-1.8389188051223755,1.8885153532028198
31,19046,19040,-0.3662343919277191,1.2102121114730835,0.9769579768180847,9.357337951660156,5.835926055908203,-9.532925605773926,1.823482871055603,3.8549551963806152,0.36674606800079346,1.9938149452209473,-1.8113609552383423,1.8233814239501953
32,19056,19050,-0.33533453941345215,1.4895257949829102,1.0413963794708252,11.416411399841309,1.8183114528656006,-9.346229553222656,1.8228869438171387,3.855985164642334,0.3635117709636688,1.9522643089294434,-1.6573315858840942,1.7045899629592896
33,19066,19060,-0.05379262566566467,0.5369265675544739,0.9827016592025757,14.71790885925293,-2.973140239715576,-7.4836344718933105,1.8260573148727417,3.859868049621582,0.36118265986442566,1.639643669128418,-1.8616870641708374,1.8534600734710693
34,19076,19070,0.03607090562582016,-0.054880235344171524,0.8990165591239929,15.419054985046387,2.4058783054351807,-9.570520401000977,1.8228163719177246,3.8569705486297607,0.3593064248561859,1.9293744564056396,-1.278296709060669,1.490698218345642
35,19086,19080,-0.037608131766319275,-0.09738574922084808,0.9949672818183899,16.769075393676758,2.010774612426758,-6.707670211791992,1.8270756006240845,3.8579628467559814,0.35546600818634033,1.5163559913635254,-1.11237633228302,1.5459296703338623
36,19096,19090,-0.010120867751538754,-0.0972733348608017,0.9588447213172913,15.21197509765625,0.6233323216438293,-7.15256929397583,1.8271843194961548,3.862699031829834,0.35317790508270264,1.56184983253479,-1.3176597356796265,1.5780820846557617
37,19106,19100,-6.088990176067455e-06,0.0006298534572124481,1.0093218088150024,12.617195129394531,-1.9880657196044922,-6.834821701049805,1.8264291286468506,3.8578619956970215,0.3508167266845703,1.652121663093567,-0.7418553829193115,1.3428882360458374
38,19116,19110,0.0033973539248108864,-0.05658193677663803,0.9438592791557312,12.209229469299316,0.9561684131622314,-5.263593673706055,1.8304139375686646,3.8578994274139404,0.34820494055747986,1.375942587852478,-0.6230588555335999,1.3733208179473877
39,19126,19120,-0.03198559582233429,0.1839951127767563,1.07182776927948,5.242964744567871,-2.4992330074310303,-6.178189754486084,1.816996455192566,3.8447470664978027,0.3421260118484497,2.5789852142333984,0.5582755208015442,0.5941207408905029
40,19136,19130,-0.05162069573998451,0.12632736563682556,1.0701329708099365,-0.6982350945472717,-1.6651554107666016,-1.2383472919464111,1.827681303024292,3.852356195449829,0.34247779846191406,1.4575787782669067,0.002569174626842141,1.0675402879714966
41,19146,19140,0.008795391768217087,-0.06940803676843643,0.976357638835907,-12.552278518676758,2.1164472103118896,-3.919188976287842,1.821768879890442,3.85256290435791,0.34061387181282043,2.0918965339660645,-0.10341925173997879,0.891510546207428
42,19156,19150,0.017452426254749298,-0.006950387731194496,0.9945772290229797,-19.668880462646484,6.6411213874816895,-3.175260066986084,1.8284410238265991,3.8582937717437744,0.33276259899139404,1.4449719190597534,-0.6904474496841431,1.1174061298370361
43,19166,19160,-0.07263991981744766,-0.007330728694796562,1.0928654670715332,-19.99770736694336,11.083154678344727,-4.4156999588012695,1.835055947303772,3.868898391723633,0.32977259159088135,0.7899635434150696,-1.8738681077957153,1.4630272388458252
44,19176,19170,0.050711970776319504,-0.15528751909732819,1.0187402963638306,-9.031906127929688,10.241022109985352,-6.638825416564941,1.8358207941055298,3.8717143535614014,0.3268135190010071,0.652530312538147,-2.084855556488037,1.4264293909072876
45,19186,19180,0.036637768149375916,-0.04719628393650055,1.0722936391830444,9.681117057800293,2.5652668476104736,-6.484828472137451,1.8308089971542358,3.8729631900787354,0.3240651786327362,1.0268133878707886,-2.040752410888672,1.2502567768096924
46,19196,19190,-0.014750436879694462,-0.034224867820739746,1.0375219583511353,32.83310317993164,-10.975809097290039,-4.084624290466309,1.8308378458023071,3.872166156768799,0.3218095600605011,1.1404132843017578,-1.6269452571868896,1.1334141492843628
47,19206,19200,-0.024703890085220337,0.08325404673814774,1.101615309715271,44.9607048034668,-16.5356502532959,-1.8709157705307007,1.829928994178772,3.8709728717803955,0.31953340768814087,1.4724745750427246,-1.0567939281463623,1.0420308113098145
48,19216,19210,-0.005766826681792736,0.22395721077919006,1.1917742490768433,42.842220306396484,-13.620903015136719,0.12324322015047073,1.8298605680465698,3.873609781265259,0.3066132068634033,1.8015176057815552,-0.7265282273292542,1.0207573175430298
49,19226,19220,-0.016995396465063095,-0.21606621146202087,1.1146513223648071,37.1397590637207,-1.711991786956787,-2.0867152214050293,1.8313963413238525,3.870893716812134,0.3038367033004761,1.8247284889221191,0.06955224275588989,0.9555202722549438
50,19236,19230,-0.014888914301991463,-0.1390412598848343,1.0354725122451782,20.591814041137695,7.5030927658081055,-1.9765121936798096,1.83120858669281,3.8776586055755615,0.3014490008354187,1.8009190559387207,-0.26441988348960876,1.062456488609314
51,19246,19240,0.0019571795128285885,0.08777404576539993,1.0818839073181152,3.6239728927612305,13.710254669189453,-2.6794960498809814,1.8306652307510376,3.8808658123016357,0.29879772663116455,1.6192355155944824,-0.11280696839094162,1.0381882190704346
52,19256,19250,0.0174374058842659,0.1837131828069687,1.1383047103881836,-4.9500322341918945,14.730551719665527,-2.459620714187622,1.8291128873825073,3.8811721801757812,0.2875613868236542,1.5639090538024902,-0.030497627332806587,0.9806759357452393
53,19266,19260,0.025171766057610512,0.23894648253917694,1.226080298423767,-3.4891905784606934,13.379962921142578,-2.002244472503662,1.8271973133087158,3.8808634281158447,0.2845107316970825,1.569080114364624,-0.035848744213581085,0.933384895324707
54,19276,19270,-0.013179468922317028,-0.02211460843682289,1.1455624103546143,3.2618868350982666,10.037665367126465,-2.606334924697876,1.8265177011489868,3.8815488815307617,0.2817142903804779,1.4283168315887451,0.014820177108049393,0.9022353887557983
55,19286,19280,0.008917290717363358,-0.14232297241687775,1.1267879009246826,13.812223434448242,10.687399864196777,-1.394106149673462,1.823498249053955,3.8809754848480225,0.2736854553222656,1.5865392684936523,0.12296245992183685,0.8482062220573425
56,19296,19290,-0.03270340338349342,0.017267778515815735,1.172074556350708,18.651700973510742,7.506319046020508,-1.1788861751556396,1.8215245008468628,3.8815433979034424,0.27088531851768494,1.5008379220962524,0.39849478006362915,0.8213638067245483
57,19306,19300,0.023387426510453224,-0.0036766480188816786,1.1841864585876465,21.416454315185547,10.015237808227539,-0.7169449925422668,1.8209497928619385,3.880288600921631,0.2680911719799042,1.4554206132888794,0.7712660431861877,0.7777848243713379
58,19316,19310,0.026254484429955482,-0.12931998074054718,1.2344539165496826,13.603151321411133,11.033470153808594,-0.23540125787258148,1.8179044723510742,3.880436658859253,0.2622009813785553,1.5210105180740356,0.9813308715820312,0.7592093348503113
59,19326,19320,0.046045973896980286,-0.13875536620616913,1.3677403926849365,2.9980344772338867,17.801645278930664,-1.7726194858551025,1.819328784942627,3.8818466663360596,0.25993412733078003,1.2759456634521484,0.9286114573478699,0.7832598686218262
60,19336,19330,0.07225904613733292,-0.09921061247587204,1.342394471168518,-4.078153610229492,20.84453582763672,-1.84959077835083,1.8182706832885742,3.8810949325561523,0.25778332352638245,1.0414071083068848,0.9798362851142883,0.7544134855270386
61,19346,19340,-0.02493949979543686,-0.06678526848554611,1.208915114402771,-8.117504119873047,22.364826202392578,-0.7482721209526062,1.8165546655654907,3.881377696990967,0.2558988034725189,0.8710029125213623,0.8853152990341187,0.7378779053688049
62,19356,19350,-0.00010483604273758829,0.0694393739104271,1.1282721757888794,-9.70676326751709,16.45381736755371,-0.6907020807266235,1.8121477365493774,3.878645181655884,0.2546858787536621,0.7885182499885559,0.985343873500824,0.7121288180351257
63,19366,19360,-0.014200055040419102,0.023051295429468155,1.2483229637145996,-5.711154937744141,14.428163528442383,-0.5455223321914673,1.8118726015090942,3.8799662590026855,0.253407746553421,0.5878936648368835,0.8170932531356812,0.7159885764122009
64,19376,19370,0.00602496275678277,-0.045681167393922806,1.177704930305481,-1.5842559337615967,14.34272289276123,-1.105191707611084,1.8112611770629883,3.881523847579956,0.25230443477630615,0.340200275182724,0.7606035470962524,0.7066946625709534
65,19386,19380,-0.0017270511016249657,0.030998563393950462,1.2268173694610596,-0.18463435769081116,13.827689170837402,0.3105735778808594,1.8098196983337402,3.880239963531494,0.2521874010562897,0.33838632702827454,0.8266289234161377,0.7129072546958923
66,19396,19390,-0.036621253937482834,0.08025823533535004,1.2398756742477417,-0.16246984899044037,13.215800285339355,0.3892059624195099,1.8090165853500366,3.880235195159912,0.25142112374305725,0.23328205943107605,0.8207004070281982,0.7149510383605957
67,19406,19400,0.006789674982428551,0.058091599494218826,1.2240647077560425,-0.09764441102743149,11.048380851745605,1.1880954504013062,1.8084362745285034,3.8802812099456787,0.2509836256504059,0.003297600196674466,0.8274489045143127,0.7168356776237488
68,19416,19410,-0.019206233322620392,0.12405722588300705,1.1287028789520264,-4.623884677886963,10.929976463317871,1.0293192863464355,1.8066151142120361,3.8791773319244385,0.2549571692943573,-0.049561936408281326,0.9314987063407898,0.7328237295150757
69,19426,19420,0.012693081051111221,-0.03535642847418785,1.118024230003357,-4.85635232925415,12.550153732299805,0.7356888651847839,1.806885004043579,3.8799781799316406,0.25517067313194275,-0.2567845582962036,0.8170971274375916,0.7325126528739929
70,19436,19430,-0.028388425707817078,0.14379547536373138,1.1148252487182617,-9.145427703857422,9.614974975585938,1.912194848060608,1.8048886060714722,3.877955913543701,0.25533196330070496,-0.2086700052022934,0.8042179942131042,0.7787964940071106
71,19446,19440,0.10224713385105133,0.006980772130191326,1.2277538776397705,-8.690279960632324,12.113829612731934,0.5972685217857361,1.804377555847168,3.8799781799316406,0.25554460287094116,-0.4340950846672058,0.6212766170501709,0.7695257663726807
72,19456,19450,-0.0006885059410706162,-0.11615157127380371,1.0896233320236206,-9.049920082092285,12.115476608276367,1.3167494535446167,1.8036854267120361,3.8795535564422607,0.25612717866897583,-0.5168083906173706,0.7650113105773926,0.7666703462600708
73,19466,19460,-0.040575265884399414,0.04251105710864067,1.1036518812179565,-7.049483299255371,13.414770126342773,1.2887550592422485,1.8029206991195679,3.880559206008911,0.25688672065734863,-0.6254566311836243,0.5741546750068665,0.7727165222167969
74,19476,19470,0.008406526409089565,-0.04531233757734299,1.0803321599960327,-6.82216739654541,9.635652542114258,1.8760108947753906,1.802282452583313,3.880009174346924,0.2576395273208618,-0.7595469355583191,0.6451631188392639,0.8001615405082703
75,19486,19480,0.022350231185555458,0.10213109105825424,1.0563044548034668,-6.337369441986084,2.731440782546997,1.7482858896255493,1.800910234451294,3.8801095485687256,0.2576107978820801,-0.8382834196090698,0.4279376268386841,0.8392742872238159
76,19496,19490,-0.033814240247011185,0.15994291007518768,1.0382918119430542,-8.247654914855957,0.7235131859779358,1.565647840499878,1.7994327545166016,3.881558656692505,0.25850430130958557,-0.8752886652946472,0.2632219195365906,0.8382319808006287
77,19506,19500,-0.06371737271547318,0.09755914658308029,1.109030842781067,-6.916581630706787,1.4959874153137207,2.1234116554260254,1.798300862312317,3.8820409774780273,0.2594577968120575,-0.8881868720054626,0.33400216698646545,0.8471625447273254
78,19516,19510,-0.032940253615379333,0.06176890805363655,1.1289063692092896,-5.9514923095703125,1.7275416851043701,2.4619758129119873,1.79798424243927,3.880859375,0.2599494159221649,-0.9896485805511475,0.4050160348415375,0.882059633731842
79,19526,19520,-0.005837766453623772,-0.03965090960264206,1.0059521198272705,-7.402899265289307,4.679965972900391,1.7568244934082031,1.7967087030410767,3.8817238807678223,0.26105156540870667,-1.0506399869918823,0.2604597806930542,0.9202337861061096
80,19536,19530,-0.012631095014512539,-0.07322268187999725,0.91966712474823,-7.568850040435791,1.7231121063232422,1.551384449005127,1.7963621616363525,3.882854700088501,0.2622585594654083,-1.0672909021377563,0.15585055947303772,0.8994591236114502
81,19546,19540,-0.032858263701200485,-0.02204098366200924,1.017897129058838,-7.475220680236816,0.7769439220428467,0.7389053702354431,1.7953176498413086,3.8825197219848633,0.2633432149887085,-1.0193722248077393,0.06586519628763199,0.9175580739974976
82,19556,19550,0.004052432719618082,-0.22444424033164978,0.9110094308853149,-6.711231231689453,3.3292396068573,1.107791543006897,1.7953290939331055,3.8810677528381348,0.2660577893257141,-1.1080291271209717,0.2033427208662033,0.9659911394119263
83,19566,19560,0.01646106131374836,-0.05961671844124794,0.8833068013191223,-5.771775245666504,2.985836982727051,0.9046787619590759,1.795091152191162,3.8804426193237305,0.2671266198158264,-1.2063871622085571,0.17425787448883057,0.9790694713592529
84,19576,19570,0.01561990287154913,0.04268763214349747,0.8466339111328125,-5.88485860824585,-1.8782439231872559,1.3173084259033203,1.795385718345642,3.879894733428955,0.2680657207965851,-1.2152032852172852,0.15654675662517548,1.0007864236831665
85,19586,19580,0.06035678833723068,-0.11468703299760818,0.8957151770591736,-7.012863636016846,-7.124672889709473,1.2924202680587769,1.7946679592132568,3.8803770542144775,0.27000269293785095,-1.2430415153503418,-0.018410108983516693,0.9838581681251526
86,19596,19590,-0.0642637312412262,-0.03357330337166786,0.9412111639976501,-7.346263885498047,-2.3684887886047363,0.825580358505249,1.7938861846923828,3.878931760787964,0.27077654004096985,-1.1518055200576782,-0.051237642765045166,1.0073355436325073
87,19606,19600,-0.031347647309303284,-0.07422932982444763,0.8570038080215454,-8.808196067810059,-4.511053562164307,1.279071569442749,1.7935490608215332,3.878204345703125,0.27145180106163025,-1.1435322761535645,-0.09109672904014587,1.0215171575546265
88,19616,19610,0.019912023097276688,-0.059629540890455246,0.8729967474937439,-11.606169700622559,-10.728280067443848,0.5027933120727539,1.7924468517303467,3.877570152282715,0.2749865651130676,-1.1170774698257446,-0.15720775723457336,1.0437244176864624
89,19626,19620,-0.03275249898433685,0.4382235109806061,1.0234657526016235,-8.384692192077637,-4.926513671875,-0.001866705366410315,1.794883131980896,3.8795719146728516,0.2756284475326538,-1.2162551879882812,-0.26047664880752563,1.0425381660461426
90,19636,19630,-0.06799104809761047,0.3975535035133362,1.071825385093689,-7.277806758880615,-3.4220333099365234,-0.22575640678405762,1.7966169118881226,3.882843017578125,0.27635955810546875,-1.1540520191192627,-0.4812408983707428,1.0189512968063354
91,19646,19640,-0.047190360724925995,0.04943611100316048,0.9938593506813049,-5.9931135177612305,-2.1229164600372314,0.35536810755729675,1.7964396476745605,3.8861522674560547,0.27868780493736267,-1.0427207946777344,-0.5907500982284546,1.0118768215179443
92,19656,19650,0.015068760141730309,-0.05101294443011284,0.9467028975486755,-1.4773612022399902,-6.492831230163574,0.5185247659683228,1.7965233325958252,3.8857858180999756,0.279436856508255,-1.025978922843933,-0.5085594058036804,1.0530043840408325
93,19666,19660,-0.024802206084132195,0.028770286589860916,0.9990750551223755,-1.450516939163208,-3.4553334712982178,-0.5783137679100037,1.7961020469665527,3.8874385356903076,0.2800973653793335,-0.9512739181518555,-0.452911376953125,1.0785518884658813
94,19676,19670,0.014888269826769829,0.03309054300189018,0.95415860414505,-0.22871260344982147,-4.810410022735596,-0.08705693483352661,1.7962791919708252,3.8884856700897217,0.28078579902648926,-0.9783284664154053,-0.5454555153846741,1.060032844543457
95,19686,19680,-0.03954865410923958,0.11624377220869064,0.953324556350708,-4.377295017242432,-5.080010414123535,-0.23081569373607635,1.7965959310531616,3.890436887741089,0.28363147377967834,-0.90907222032547,-0.6230274438858032,1.0414118766784668
96,19696,19690,-0.04498862102627754,0.0303496140986681,0.9015106558799744,-4.255434513092041,-5.807497024536133,-0.21209360659122467,1.7967804670333862,3.89162278175354,0.28427115082740784,-0.8297259211540222,-0.5832748413085938,1.0602741241455078
97,19706,19700,-0.07510410994291306,0.39677727222442627,0.9931246638298035,-3.512132167816162,-7.488430500030518,-1.0233969688415527,1.7973166704177856,3.891054630279541,0.28492164611816406,-0.8915991187095642,-0.6408829092979431,1.0571818351745605
98,19716,19710,-0.23588670790195465,1.1812242269515991,1.0771048069000244,-5.547417640686035,-4.031105995178223,-1.610304832458496,1.7973535060882568,3.8925678730010986,0.28658801317214966,-0.767764151096344,-0.7661743760108948,1.0400638580322266
99,19726,19720,-0.17642365396022797,0.6452416181564331,1.066330909729004,-2.9535763263702393,-3.555283308029175,-1.3178128004074097,1.7981092929840088,3.8928885459899902,0.28735029697418213,-0.7596388459205627,-0.6582643389701843,1.0597375631332397
100,19736,19730,-0.023099377751350403,0.12900637090206146,1.0418583154678345,-3.188570499420166,-5.271991729736328,-0.570723295211792,1.7977794408798218,3.8934450149536133,0.2882382869720459,-0.632270336151123,-0.7906644940376282,1.0264337062835693
101,19746,19740,-0.03255758807063103,0.02649613656103611,1.0142688751220703,-3.206174850463867,-6.8469672203063965,-0.4029823839664459,1.7976861000061035,3.894076347351074,0.29116585850715637,-0.7280675172805786,-0.8605093359947205,1.0173416137695312
102,19756,19750,-0.05522085353732109,0.2928127944469452,0.9643158912658691,-1.6691970825195312,1.7297546863555908,-0.7466756105422974,1.7970002889633179,3.8926429748535156,0.29219695925712585,-0.5794140696525574,-0.7971985340118408,1.0365608930587769
103,19766,19760,0.12055425345897675,0.09898458421230316,0.894576907157898,-2.4811737537384033,-3.2173147201538086,-1.1843528747558594,1.797141671180725,3.8952860832214355,0.29316458106040955,-0.4172474443912506,-0.8825656175613403,1.0161324739456177
104,19776,19770,0.0958046242594719,0.30189067125320435,0.9625303745269775,-1.5581005811691284,-6.48917818069458,-0.9548759460449219,1.8016085624694824,3.8956544399261475,0.29420003294944763,-0.9004876017570496,-0.9819285273551941,1.0251708030700684
105,19786,19780,0.12005434930324554,0.11908283829689026,0.9660063982009888,-0.20875342190265656,-9.030841827392578,-1.0276662111282349,1.8015213012695312,3.896383762359619,0.2968338131904602,-0.7742342352867126,-1.0258934497833252,1.0083532333374023
106,19796,19790,0.15236935019493103,-0.09448534995317459,0.8749303221702576,2.2521209716796875,-10.87807559967041,-0.8075461983680725,1.8037774562835693,3.8957061767578125,0.2976565659046173,-0.7952637672424316,-0.912433385848999,1.0300555229187012
107,19806,19800,0.05095130577683449,-0.18762317299842834,0.8373213410377502,2.2281086444854736,-11.53172779083252,-0.9787160158157349,1.8031589984893799,3.8952741622924805,0.29857584834098816,-0.554571807384491,-0.9263683557510376,1.0066137313842773
108,19816,19810,-0.0006471588276326656,-0.14794184267520905,0.807857871055603,1.9594662189483643,-13.705317497253418,-0.2748854458332062,1.8037201166152954,3.897106409072876,0.30107375979423523,-0.4690132141113281,-1.0030250549316406,0.9836364984512329
109,19826,19820,0.018851563334465027,-0.10561580955982208,0.8290162086486816,0.4417383372783661,-10.693953514099121,-0.8166160583496094,1.802435040473938,3.8978023529052734,0.30166539549827576,-0.2781154215335846,-0.9966305494308472,0.9703569412231445
110,19836,19830,-0.04614095389842987,0.04608525335788727,0.9405586123466492,1.3416253328323364,-10.613125801086426,-0.5850613117218018,1.802880048751831,3.8989882469177246,0.3021264970302582,-0.12330734729766846,-1.0006487369537354,0.9624858498573303
111,19846,19840,-0.051073167473077774,0.3312096893787384,0.9026381969451904,1.9419931173324585,-10.817728042602539,-1.2753779888153076,1.8030568361282349,3.8993802070617676,0.30089235305786133,-0.033693600445985794,-0.9116309285163879,0.9727355241775513
112,19856,19850,-0.054108183830976486,0.4640754163265228,0.8733665347099304,1.1355314254760742,-6.214701175689697,-1.819433331489563,1.8028382062911987,3.8995418548583984,0.3010832369327545,0.12618368864059448,-0.9019586443901062,0.9589850902557373
113,19866,19860,-0.06101749464869499,0.34862053394317627,0.9246473908424377,2.727039098739624,-3.4191813468933105,-0.2533082664012909,1.8034002780914307,3.899327039718628,0.3011637032032013,0.22255946695804596,-0.8959420919418335,0.9374012351036072
114,19876,19870,0.0285048671066761,0.08267104625701904,0.9534755945205688,3.933265447616577,-2.895033836364746,0.32382065057754517,1.8039517402648926,3.8993325233459473,0.3041483461856842,0.19182373583316803,-0.8595102429389954,0.9410812258720398
115,19886,19880,0.12622883915901184,-0.04105846956372261,0.954606294631958,4.331081867218018,-5.877305507659912,0.11630879342556,1.805192470550537,3.899507522583008,0.304233580827713,0.15651501715183258,-0.8001420497894287,0.952721893787384
116,19896,19890,0.11040913313627243,0.03229202330112457,0.8543705940246582,3.129046678543091,-6.926238059997559,-0.8610405921936035,1.8056650161743164,3.899446487426758,0.3042697012424469,0.22212602198123932,-0.8227413892745972,0.9516561031341553
117,19906,19900,-0.004712710622698069,-0.18930870294570923,0.866483211517334,0.7817478775978088,-5.659879207611084,0.13452619314193726,1.805964469909668,3.899778127670288,0.3041575253009796,0.30734309554100037,-0.787763237953186,0.9448117017745972
118,19916,19910,0.14489588141441345,-0.24225063621997833,0.879177987575531,0.9448992609977722,-4.9925856590271,-0.12390673905611038,1.807530164718628,3.900442123413086,0.3041730225086212,0.29289674758911133,-0.7982844114303589,0.9479445219039917
119,19926,19920,0.17729035019874573,-0.1941554993391037,0.881581723690033,0.839927613735199,-3.8257863521575928,0.21677038073539734,1.8073655366897583,3.899876594543457,0.30377197265625,0.3566912114620209,-0.7992281913757324,0.9479925036430359
120,19936,19930,-0.11197603493928909,0.0009328777086921036,1.0176231861114502,0.7557240724563599,6.254395008087158,0.19742204248905182,1.808672308921814,3.900315046310425,0.3032449185848236,0.3683236539363861,-0.7947255969047546,0.9522972702980042
121,19946,19940,-0.16466093063354492,0.16473788022994995,1.01273512840271,2.0471253395080566,13.000997543334961,-0.11068146675825119,1.80830717086792,3.9010815620422363,0.3005424439907074,0.33092525601387024,-0.8585621118545532,0.9536095857620239
122,19956,19950,-0.1380096822977066,0.522016704082489,1.0934600830078125,2.488307476043701,14.714242935180664,0.22208456695079803,1.8091557025909424,3.9015650749206543,0.2999193072319031,0.17362576723098755,-0.815468966960907,0.9494951963424683
123,19966,19960,0.004646093584597111,0.4190661609172821,1.0119214057922363,4.693304061889648,11.468046188354492,0.2619526982307434,1.8089632987976074,3.9020237922668457,0.2993983030319214,0.07211252301931381,-0.754144549369812,0.9444516897201538
124,19976,19970,-0.03815547004342079,0.295123815536499,1.1074576377868652,6.2384772300720215,11.502593040466309,1.0254088640213013,1.8086711168289185,3.9031243324279785,0.2996393144130707,-0.07003415375947952,-0.7431782484054565,0.9450129866600037
125,19986,19980,-0.03537917137145996,0.161552295088768,1.0568820238113403,6.892469882965088,9.0582914352417,0.9120202660560608,1.8084381818771362,3.903447389602661,0.2993268370628357,-0.18731331825256348,-0.7047549486160278,0.952964186668396
126,19996,19990,-0.0063847084529697895,0.056520942598581314,1.0533210039138794,5.618516445159912,2.3259923458099365,1.4496312141418457,1.8089693784713745,3.903625965118408,0.2990822196006775,-0.2613532245159149,-0.6518344283103943,0.9585438966751099
127,20006,20000,0.026473375037312508,0.08879152685403824,1.056046485900879,4.949681758880615,-1.6203069686889648,1.741644263267517,1.808793067932129,3.9034838676452637,0.2989707291126251,-0.2422310709953308,-0.5373125672340393,0.9671949744224548
128,20016,20010,-0.040056467056274414,0.11744599044322968,1.1138733625411987,4.0180487632751465,-0.4385405480861664,0.5694860219955444,1.8091058731079102,3.904275417327881,0.2985365688800812,-0.1641610562801361,-0.5209255218505859,0.9782271981239319
129,20026,20020,-0.04460322856903076,0.09242046624422073,1.0046626329421997,3.340524196624756,-0.6598824262619019,1.1254048347473145,1.8086317777633667,3.904552936553955,0.29854434728622437,-0.09395887702703476,-0.5129788517951965,0.9795055389404297
130,20036,20030,-0.009609805420041084,0.27526551485061646,1.0120954513549805,4.026717662811279,-2.048733711242676,1.4122475385665894,1.807739496231079,3.90617036819458,0.2986140251159668,-0.019958792254328728,-0.4308023154735565,0.987095057964325
131,20046,20040,-0.02402317337691784,0.2912018597126007,1.029976487159729,3.6729860305786133,1.7118380069732666,1.5987344980239868,1.8075125217437744,3.9077751636505127,0.29768893122673035,-0.03488337621092796,-0.5071749687194824,1.000622034072876
132,20056,20050,0.05886409059166908,-0.13014020025730133,0.9134089350700378,3.3599352836608887,10.23184585571289,0.759216845035553,1.8079637289047241,3.9080684185028076,0.2976512014865875,-0.038188520818948746,-0.41864144802093506,1.0152510404586792
133,20066,20060,0.07625868916511536,0.04945867881178856,0.9503601789474487,2.7261745929718018,11.139664649963379,0.6515767574310303,1.8082373142242432,3.910478353500366,0.2975104749202728,-0.15753653645515442,-0.4899483919143677,1.021598219871521
134,20076,20070,0.05664367973804474,0.051128268241882324,1.076711893081665,4.369046688079834,14.420702934265137,0.4718102514743805,1.8086376190185547,3.9099955558776855,0.2941482365131378,-0.30406421422958374,-0.3251471221446991,1.0332913398742676
135,20086,20080,0.028288623318076134,0.012183834798634052,0.9522458910942078,4.8355207443237305,14.055188179016113,0.27355480194091797,1.809651255607605,3.910902500152588,0.29381442070007324,-0.4820571839809418,-0.30519676208496094,1.0392212867736816
136,20096,20090,0.028009891510009766,0.3598645329475403,0.9401060342788696,4.442074775695801,6.6803998947143555,0.13513989746570587,1.8102766275405884,3.9107894897460938,0.2934471368789673,-0.6465082764625549,-0.27476441860198975,1.0428239107131958
137,20106,20100,0.03530420362949371,0.28499993681907654,1.0202170610427856,5.531697750091553,3.979367256164551,-0.11614126712083817,1.8098307847976685,3.9107866287231445,0.28905194997787476,-0.6366761922836304,-0.17266659438610077,1.0438326597213745
138,20116,20110,0.045673370361328125,0.007711929269134998,0.9706223011016846,2.9026906490325928,-0.19221638143062592,0.9801057577133179,1.8096089363098145,3.912097930908203,0.28839951753616333,-0.6521763205528259,-0.14670364558696747,1.0440505743026733
139,20126,20120,-0.03958083689212799,0.1317831128835678,1.131718635559082,2.787809133529663,-1.8716410398483276,0.1769818216562271,1.8097705841064453,3.9129765033721924,0.2877472937107086,-0.6933673024177551,-0.139496847987175,1.0494993925094604
140,20136,20130,-0.004364577122032642,0.05192521959543228,1.0126668214797974,1.5793358087539673,3.7015390396118164,-0.02464861050248146,1.8101863861083984,3.9144222736358643,0.2871069312095642,-0.7042264342308044,-0.21400967240333557,1.0482447147369385
141,20146,20140,-0.024883655831217766,0.196397066116333,1.0347610712051392,2.8797717094421387,2.6836416721343994,-0.5759280323982239,1.810774803161621,3.9147891998291016,0.28544434905052185,-0.7495525479316711,-0.2118353694677353,1.0453652143478394
142,20156,20150,0.06743570417165756,0.055139172822237015,0.9856898784637451,6.0762834548950195,0.9429202675819397,-0.85997074842453,1.8105844259262085,3.915295362472534,0.2848491072654724,-0.7129566669464111,-0.10782881081104279,1.0468826293945312
143,20166,20160,0.07330090552568436,0.031011849641799927,1.0027769804000854,7.048908233642578,-0.4244174659252167,-1.360803484916687,1.8099333047866821,3.9142262935638428,0.28433987498283386,-0.6715888977050781,-0.048815734684467316,1.046381950378418
144,20176,20170,0.02474752999842167,-0.07703080773353577,0.988831639289856,7.633048057556152,3.6547138690948486,-0.8466746211051941,1.8111547231674194,3.9150075912475586,0.28461864590644836,-0.7826119661331177,0.10621533542871475,1.0454347133636475
145,20186,20180,-0.003962430637329817,-0.09386149793863297,1.049084186553955,5.945639610290527,0.7502179741859436,-0.6052918434143066,1.8110661506652832,3.91603946685791,0.2840869128704071,-0.8429173231124878,0.17986434698104858,1.0301581621170044
146,20196,20190,-0.0016866927035152912,-0.07062338292598724,1.0905983448028564,3.8784897327423096,3.05722713470459,-0.3965456783771515,1.81087327003479,3.9171910285949707,0.2835922837257385,-0.8628542423248291,0.23207861185073853,1.027186393737793
147,20206,20200,0.02597109228372574,0.012461957521736622,1.0035940408706665,1.0355664491653442,-2.2472105026245117,-0.888992190361023,1.8108336925506592,3.9184842109680176,0.2835144102573395,-0.8242727518081665,0.2482287734746933,1.022287130355835
148,20216,20210,0.016322335228323936,0.005147235468029976,0.9761520624160767,-1.7006597518920898,-1.7285428047180176,-0.5239946842193604,1.8101325035095215,3.91964054107666,0.28316730260849,-0.741857647895813,0.29214346408843994,1.019018292427063
149,20226,20220,-0.005816809367388487,0.10119713842868805,1.0750709772109985,-1.4039796590805054,0.8499302864074707,-2.0771470069885254,1.8113194704055786,3.9197375774383545,0.2827216684818268,-0.8145169615745544,0.2917815148830414,1.0084389448165894
150,20236,20230,-0.05415577068924904,0.04945596680045128,1.0974012613296509,-0.7105202078819275,-1.8667265176773071,-0.7481385469436646,1.8132917881011963,3.920971393585205,0.2822050452232361,-0.9764927625656128,0.2981874942779541,0.9831030368804932
151,20246,20240,-0.02332204021513462,0.12534815073013306,1.1466786861419678,-0.483570396900177,-0.6735516786575317,-0.762654721736908,1.8119230270385742,3.921055793762207,0.28194543719291687,-0.8675845265388489,0.31019583344459534,0.9842898845672607
152,20256,20250,-0.05430961772799492,-0.05318630114197731,1.045972466468811,1.6308274269104004,-1.3937993049621582,-1.2785941362380981,1.811395525932312,3.9216086864471436,0.2819138765335083,-0.7752146124839783,0.2475784420967102,0.976326584815979
153,20266,20260,0.013198059983551502,-0.007102862931787968,1.047432541847229,2.7071142196655273,-8.628823280334473,-0.963648796081543,1.8122423887252808,3.9222514629364014,0.281830370426178,-0.8344742655754089,0.2979542016983032,0.9649422764778137
154,20276,20270,-0.011572407558560371,-0.051630448549985886,1.0831023454666138,2.282341480255127,0.38698530197143555,-1.158716082572937,1.8132898807525635,3.923093318939209,0.28150784969329834,-0.8396621346473694,0.2901076674461365,0.94554603099823
155,20286,20280,-0.01326758787035942,0.026964465156197548,1.0744140148162842,0.9352564811706543,-0.2531203031539917,-1.137747883796692,1.8134920597076416,3.9243788719177246,0.2816081643104553,-0.7602923512458801,0.27315568923950195,0.9345526695251465
156,20296,20290,0.008900100365281105,-0.012511339969933033,1.0218621492385864,2.1293692588806152,2.9654433727264404,-1.5088087320327759,1.8135039806365967,3.924370527267456,0.28181275725364685,-0.7086968421936035,0.31822669506073,0.9329793453216553
157,20306,20300,0.004871664568781853,0.13629844784736633,1.0548521280288696,1.880703330039978,-0.43105706572532654,-1.2993534803390503,1.8135426044464111,3.9250500202178955,0.28160977363586426,-0.8322341442108154,0.3737925887107849,0.9139743447303772
158,20316,20310,-0.041091833263635635,0.03142201155424118,1.0366569757461548,-0.5014887452125549,-4.27915620803833,-1.0537971258163452,1.8138086795806885,3.924513816833496,0.28189560770988464,-0.7452450394630432,0.4240853488445282,0.9112434387207031
159,20326,20320,0.05176251009106636,-0.19709771871566772,1.0023266077041626,-1.6748900413513184,-2.708571195602417,-2.012007236480713,1.8155710697174072,3.9254708290100098,0.282102108001709,-0.8376143574714661,0.4367315173149109,0.8896987438201904
160,20336,20330,0.02854553982615471,-0.10372772067785263,0.9667282104492188,-2.089977264404297,-4.654150009155273,-2.0927703380584717,1.8158173561096191,3.926032304763794,0.2825033962726593,-0.681839644908905,0.4224728047847748,0.8844236135482788
161,20346,20340,-0.007641905918717384,0.07223978638648987,1.0803775787353516,-2.4385762214660645,-2.574669599533081,-1.9764940738677979,1.8163225650787354,3.9267804622650146,0.281860888004303,-0.6039158701896667,0.32596254348754883,0.8593217134475708
162,20356,20350,-0.028789307922124863,-0.030436711385846138,1.00457763671875,-2.8889548778533936,-1.777990698814392,-1.9679127931594849,1.8175445795059204,3.9282073974609375,0.2819642424583435,-0.7114991545677185,0.3102448582649231,0.8289574980735779
163,20366,20360,0.028522463515400887,0.01857498101890087,0.9954504370689392,-2.0665929317474365,2.5281267166137695,-1.893397569656372,1.8182532787322998,3.9286704063415527,0.28212282061576843,-0.7348846793174744,0.2827029526233673,0.806509256362915
164,20376,20370,0.05480267107486725,-0.1481451392173767,1.0050379037857056,0.06088460236787796,-0.3386360704898834,-1.3234336376190186,1.8196524381637573,3.9298315048217773,0.2817559242248535,-0.6194374561309814,0.34958723187446594,0.8258451223373413
165,20386,20380,0.07656314224004745,-0.028899118304252625,0.9955719709396362,-0.18846525251865387,-10.506158828735352,-1.058784008026123,1.8196207284927368,3.9316630363464355,0.2819262146949768,-0.5606417655944824,0.35334184765815735,0.816002368927002
166,20396,20390,0.02405494824051857,0.009104041382670403,0.9941215515136719,0.45259830355644226,-2.2490744590759277,-2.4771366119384766,1.820300579071045,3.931936740875244,0.28216978907585144,-0.4301091730594635,0.35822364687919617,0.8067950010299683
167,20406,20400,-0.046763841062784195,-0.01560602243989706,0.9816566705703735,-1.0828150510787964,0.8356387615203857,-2.6042075157165527,1.8221817016601562,3.933241605758667,0.280474454164505,-0.695478081703186,0.28689655661582947,0.754193902015686
168,20416,20410,-0.032627467066049576,0.012386953458189964,1.0305942296981812,-2.7475826740264893,3.045538902282715,-2.3489136695861816,1.8225443363189697,3.933469772338867,0.28052666783332825,-0.5987007021903992,0.278212308883667,0.7382853627204895
169,20426,20420,0.019030576571822166,-0.03672388941049576,0.9574175477027893,-3.158383846282959,6.595921039581299,-2.49807071685791,1.821832537651062,3.9337127208709717,0.28081464767456055,-0.6061877012252808,0.25088974833488464,0.717160165309906
170,20436,20430,0.011214385740458965,-0.08189559727907181,0.9972259998321533,-0.11173062771558762,-1.8258241415023804,-1.704085350036621,1.8227856159210205,3.9335269927978516,0.2808988392353058,-0.6161940097808838,0.23080486059188843,0.6967718601226807
171,20446,20440,0.053820401430130005,0.09921649098396301,1.0360240936279297,-0.1149236336350441,-4.334540843963623,-2.2589924335479736,1.8234984874725342,3.934054136276245,0.2796103060245514,-0.46570250391960144,0.23532187938690186,0.6915411949157715
172,20456,20450,-0.06687340885400772,0.21296145021915436,1.041969895362854,-1.016746163368225,-3.784169912338257,-2.016589641571045,1.8234752416610718,3.934795618057251,0.279800146818161,-0.514682412147522,0.3246684968471527,0.6705559492111206
173,20466,20460,-0.03159478306770325,0.14012597501277924,1.064052700996399,-0.3133413791656494,-5.525767803192139,-1.27601158618927,1.8247063159942627,3.9337644577026367,0.2798926830291748,-0.40099725127220154,0.3231624662876129,0.6574586629867554
174,20476,20470,-0.014309567399322987,0.14396485686302185,1.1600470542907715,-0.8680376410484314,-4.591118335723877,-1.0095466375350952,1.8260799646377563,3.93469500541687,0.2800820767879486,-0.37022823095321655,0.316464900970459,0.6342244744300842
175,20486,20480,-0.005712160374969244,-0.04184531420469284,0.9949933290481567,-2.767709493637085,1.1735281944274902,-1.64927339553833,1.8258516788482666,3.935124158859253,0.2803637385368347,-0.2822544276714325,0.22820666432380676,0.6243335008621216
176,20496,20490,-0.013675040565431118,0.14396058022975922,1.0411468744277954,-3.5594077110290527,-2.376394033432007,-1.7999441623687744,1.8266587257385254,3.935251235961914,0.28067806363105774,-0.27659037709236145,0.1988791525363922,0.6149779558181763
177,20506,20500,-0.09437812864780426,0.23066702485084534,1.0932029485702515,-2.046447992324829,0.4001665413379669,-1.60921049118042,1.8288183212280273,3.935896158218384,0.28100091218948364,-0.48005378246307373,0.23239466547966003,0.582848310470581
178,20516,20510,-0.04828944057226181,0.14370569586753845,1.0277388095855713,-1.952659010887146,-0.36051055788993835,-1.6675403118133545,1.8293077945709229,3.9349653720855713,0.28145357966423035,-0.450249046087265,0.3477019667625427,0.5787426829338074
179,20526,20520,0.01864483579993248,-0.024724259972572327,0.9562366604804993,-3.636526107788086,0.944251537322998,-1.9515743255615234,1.8299531936645508,3.934962034225464,0.28197312355041504,-0.4145943224430084,0.30182671546936035,0.5627616047859192
180,20536,20530,-0.021318858489394188,0.11794250458478928,1.1166430711746216,-4.503314018249512,-6.001977920532227,-0.962103545665741,1.829851508140564,3.93499755859375,0.2805975675582886,-0.38095563650131226,0.23081502318382263,0.5466419458389282
181,20546,20540,-0.042363982647657394,0.12868672609329224,1.077123999595642,-3.9923815727233887,-4.18813419342041,-1.0314487218856812,1.8298252820968628,3.934257745742798,0.28116101026535034,-0.21669869124889374,0.2981860637664795,0.5542483329772949
182,20556,20550,-0.006643369793891907,-0.0304652601480484,0.9698580503463745,-3.7948684692382812,-3.5860984325408936,-2.1418585777282715,1.830430507659912,3.9351894855499268,0.28167062997817993,-0.21453526616096497,0.2126305252313614,0.5390243530273438
183,20566,20560,-0.12366391718387604,0.20016568899154663,1.1193379163742065,-2.4152021408081055,1.1606495380401611,-1.3225226402282715,1.8315231800079346,3.9361233711242676,0.2821585536003113,-0.2740493714809418,0.1318017989397049,0.5206835865974426
184,20576,20570,-0.013387775979936123,-0.10193082690238953,0.9116404056549072,-6.071444034576416,-2.719787359237671,-1.0180902481079102,1.8318603038787842,3.9362330436706543,0.28345686197280884,-0.1559825986623764,0.1339409053325653,0.532052218914032
185,20586,20580,0.01408306322991848,0.19132505357265472,0.9402989149093628,-5.157627582550049,-0.5833338499069214,-1.6398204565048218,1.8320128917694092,3.9380922317504883,0.2840278446674347,-0.11017084866762161,0.019801899790763855,0.5281350016593933
186,20596,20590,0.0055924453772604465,0.01018508616834879,0.9882547855377197,-4.1824421882629395,1.988203763961792,-2.269263744354248,1.8330607414245605,3.937544822692871,0.2845199406147003,-0.18278034031391144,0.06694566458463669,0.5138023495674133
187,20606,20600,-0.010089612565934658,-0.02924324758350849,0.9668818116188049,-0.6214732527732849,3.6784915924072266,-2.0621838569641113,1.8327974081039429,3.9382119178771973,0.2835046648979187,-0.12473659962415695,-0.021799426525831223,0.4932868480682373
188,20616,20610,0.02286003902554512,-0.04626752808690071,1.0087966918945312,-1.4314647912979126,0.8654659986495972,-1.700737714767456,1.832911729812622,3.937993288040161,0.2838858366012573,-0.2497919499874115,0.000773607287555933,0.46403977274894714
189,20626,20620,0.03755743429064751,0.32534658908843994,0.946549654006958,-0.8072501420974731,-7.550714015960693,-1.190442442893982,1.8349608182907104,3.9373011589050293,0.28407350182533264,-0.3239646553993225,0.03624410182237625,0.4352421462535858
190,20636,20630,-0.06767304241657257,0.2862580716609955,1.0832041501998901,-1.0007050037384033,-5.742452621459961,-1.4694401025772095,1.8345882892608643,3.937049627304077,0.2817271947860718,-0.17043080925941467,-0.006223641335964203,0.42680513858795166
191,20646,20640,-0.06757845729589462,0.03493000939488411,1.0544347763061523,-1.4469220638275146,2.4385249614715576,-1.3991461992263794,1.8358598947525024,3.9372522830963135,0.28188273310661316,-0.19039250910282135,-0.05988987162709236,0.40535038709640503
192,20656,20650,0.0821986123919487,-0.13098777830600739,0.9666363596916199,-5.228280067443848,-0.060945071280002594,-1.5778298377990723,1.8356916904449463,3.936565637588501,0.28214502334594727,-0.1766352504491806,-0.05406729504466057,0.3878016471862793
193,20666,20660,-0.008522641845047474,-0.07000801712274551,0.9912675619125366,-2.997459888458252,-0.19538259506225586,-2.5736844539642334,1.836130976676941,3.9358718395233154,0.28234532475471497,-0.08793280273675919,-0.15848161280155182,0.36729151010513306
194,20676,20670,-0.006955117918550968,-0.10513400286436081,0.9158738851547241,-3.5726263523101807,-3.1717164516448975,-1.3887056112289429,1.8381003141403198,3.936809539794922,0.2841767966747284,-0.30663836002349854,-0.24327966570854187,0.3308783769607544
195,20686,20680,-0.046035297214984894,0.2239455282688141,1.0622379779815674,-2.7899069786071777,-0.005250879097729921,-1.406575083732605,1.8383291959762573,3.9366531372070312,0.2845217287540436,-0.18693894147872925,-0.3164351284503937,0.3267500698566437
196,20696,20690,0.0077536278404295444,-0.1411622017621994,0.9646129012107849,-0.48113304376602173,-3.3275465965270996,-2.057581663131714,1.8390687704086304,3.936760187149048,0.2847343981266022,-0.0785842314362526,-0.3587247431278229,0.3175811469554901
197,20706,20700,-0.028693238273262978,-0.11215387284755707,0.9884642362594604,1.9738905429840088,-0.5510698556900024,-2.2893764972686768,1.8372747898101807,3.9362738132476807,0.28381940722465515,0.044950418174266815,-0.290581613779068,0.2960120439529419
198,20716,20710,0.012777717784047127,0.028011221438646317,0.9908335208892822,3.6876235008239746,2.7087395191192627,-2.551985740661621,1.8376654386520386,3.9351463317871094,0.28396451473236084,0.06610924005508423,-0.19081519544124603,0.26364460587501526
199,20726,20720,0.007597677409648895,-0.08494412899017334,1.0000077486038208,2.4548163414001465,0.4739746153354645,-1.1665022373199463,1.8382688760757446,3.935128927230835,0.28412050008773804,-0.24347853660583496,-0.15592922270298004,0.23421786725521088
200,20736,20730,-0.004360485821962357,0.014182742685079575,1.0539335012435913,2.6168859004974365,-2.9005799293518066,-0.9179902076721191,1.8419742584228516,3.934481382369995,0.28411340713500977,-0.16706502437591553,-0.2136951982975006,0.22301797568798065
201,20746,20740,-0.024006927385926247,-0.08975639939308167,0.9359097480773926,-2.4018137454986572,4.189220905303955,-1.6714098453521729,1.8415206670761108,3.9350955486297607,0.2844357192516327,-0.09413433820009232,-0.21530365943908691,0.19959275424480438
202,20756,20750,0.023316124454140663,-0.003920260351151228,0.9349402189254761,-3.4075076580047607,2.324103832244873,-1.1598708629608154,1.841016173362732,3.934144973754883,0.2847462594509125,-0.051073018461465836,-0.18847441673278809,0.18286460638046265
203,20766,20760,0.02802434004843235,-0.169817253947258,0.9830623865127563,-3.257664442062378,-1.0994505882263184,-1.2792502641677856,1.8423607349395752,3.934213161468506,0.2848753333091736,-0.27005186676979065,-0.25635167956352234,0.17465946078300476
204,20776,20770,0.031158404424786568,-0.052427761256694794,0.9618287086486816,-1.851973295211792,-0.6864078044891357,-0.7471498250961304,1.8450349569320679,3.934628963470459,0.28264889121055603,-0.22284471988677979,-0.3266999125480652,0.15081265568733215
205,20786,20780,0.010864860378205776,0.1459774523973465,1.0220493078231812,-0.687508761882782,-0.4282017946243286,-0.8465901613235474,1.8457133769989014,3.9344518184661865,0.282615602016449,-0.09968288242816925,-0.35562777519226074,0.13948635756969452
206,20796,20790,-0.04487384483218193,0.018605245277285576,1.0307222604751587,0.7630515694618225,0.9881630539894104,-0.6814183592796326,1.8454532623291016,3.934605360031128,0.28269901871681213,0.014839022420346737,-0.3601331114768982,0.13012084364891052
207,20806,20800,0.05261886864900589,-0.10515695065259933,1.0278390645980835,1.9479329586029053,-0.26060476899147034,-0.18470916152000427,1.8463644981384277,3.935370445251465,0.2816973626613617,-0.12694306671619415,-0.3424456715583801,0.14343096315860748
208,20816,20810,-0.025830958038568497,-0.08194241672754288,1.0002939701080322,2.030825614929199,1.1212737560272217,-0.27496424317359924,1.8478182554244995,3.935427188873291,0.2816495895385742,-0.09143286943435669,-0.31737473607063293,0.14882749319076538
209,20826,20820,0.04828190803527832,0.04271135851740837,1.026266098022461,2.836569309234619,3.4349205493927,-1.4481743574142456,1.849163293838501,3.935753345489502,0.28161516785621643,-0.15416911244392395,-0.28636300563812256,0.1517813801765442
210,20836,20830,-0.03523464500904083,0.14897605776786804,1.1098414659500122,2.4815635681152344,1.7772233486175537,-0.8277795910835266,1.8504606485366821,3.935631275177002,0.2827409505844116,-0.09937621653079987,-0.2383885234594345,0.15014132857322693
211,20846,20840,0.060313984751701355,-0.008190445601940155,0.9677957892417908,0.6909123659133911,1.3724445104599,-0.35920944809913635,1.8515011072158813,3.936387300491333,0.2829090356826782,-0.10258429497480392,-0.2027461677789688,0.1400919407606125
212,20856,20850,-0.02176477015018463,-0.015473169274628162,1.0332354307174683,-0.0017773801228031516,0.9447231292724609,-0.14755842089653015,1.8521147966384888,3.9369876384735107,0.2830205261707306,-0.06440997868776321,-0.19224593043327332,0.14783582091331482
213,20866,20860,0.012718934565782547,0.008158328011631966,1.0365803241729736,0.039685893803834915,-4.857665061950684,0.3466477394104004,1.8523846864700317,3.9363696575164795,0.28349030017852783,-0.22329457104206085,-0.19820117950439453,0.16344687342643738
214,20876,20870,-0.13361598551273346,0.11467678099870682,1.058525800704956,-1.0223332643508911,-1.175402045249939,-0.7129155397415161,1.854709267616272,3.9377024173736572,0.2836013436317444,-0.0951826199889183,-0.20758913457393646,0.16434144973754883
215,20886,20880,-0.009442147798836231,0.1311688870191574,1.0605500936508179,-2.3838746547698975,-7.410167217254639,0.2810565233230591,1.8541462421417236,3.938246011734009,0.2839885652065277,-0.06564503163099289,-0.2226099967956543,0.1812264621257782
216,20896,20890,-0.01358791720122099,-0.026736635714769363,1.0591703653335571,1.0386481285095215,0.7815316915512085,-0.3549809753894806,1.854927897453308,3.939152956008911,0.2843444049358368,0.061073992401361465,-0.23457035422325134,0.18717607855796814
217,20906,20900,-0.02713199146091938,0.02206091396510601,1.104299545288086,1.5070101022720337,3.6301016807556152,-0.16318829357624054,1.855105996131897,3.9401626586914062,0.2846590280532837,0.10364314913749695,-0.2975039482116699,0.1910218745470047
218,20916,20910,0.0007547693094238639,-0.07349052280187607,0.9753299355506897,2.0390286445617676,4.900907516479492,0.024674085900187492,1.855258584022522,3.940930128097534,0.2851358950138092,-0.120697520673275,-0.26186174154281616,0.18600775301456451
219,20926,20920,0.009811910800635815,-0.009910916909575462,0.9532204270362854,4.042174816131592,-2.377366781234741,0.1384076029062271,1.8576109409332275,3.94085955619812,0.28551191091537476,-0.18330368399620056,-0.20613504946231842,0.18922507762908936
220,20936,20930,-0.09230879694223404,-0.08892475068569183,0.9506518244743347,4.149703025817871,4.637450695037842,0.3523672819137573,1.858229398727417,3.939952850341797,0.2850651741027832,-0.1549662947654724,-0.15045098960399628,0.1816311627626419
221,20946,20940,0.016186341643333435,-0.21752959489822388,0.8848126530647278,3.3984320163726807,6.8022308349609375,-0.8623504042625427,1.8589038848876953,3.9402472972869873,0.28544482588768005,-0.2228977233171463,-0.08926013857126236,0.2197619527578354
222,20956,20950,0.00964393187314272,0.15477751195430756,0.9648935198783875,4.226997375488281,-0.3271811008453369,-0.203863263130188,1.8604933023452759,3.9415090084075928,0.2857201397418976,-0.21443533897399902,-0.12441036850214005,0.21300072968006134
223,20966,20960,0.05206626281142235,0.004878593143075705,0.8995532989501953,1.088026762008667,-0.1379416584968567,-0.22837182879447937,1.860221028327942,3.942298412322998,0.2864297032356262,-0.136012002825737,-0.08204899728298187,0.20973725616931915
224,20976,20970,0.055154334753751755,-0.16107138991355896,0.8911749124526978,-0.5258497595787048,-2.089841604232788,0.7438395619392395,1.8596309423446655,3.94281005859375,0.286648690700531,-0.27346158027648926,-0.07427047193050385,0.22347724437713623
225,20986,20980,0.04066048189997673,-0.06428856402635574,0.9981516599655151,-1.6528072357177734,6.4142842292785645,-0.6888416409492493,1.860778570175171,3.9431819915771484,0.28659868240356445,-0.1800074279308319,-0.08673600852489471,0.2522154748439789
226,20996,20990,0.03777344152331352,0.1370735466480255,1.030824899673462,-1.1453598737716675,-1.3601982593536377,-1.0320627689361572,1.8610388040542603,3.9440977573394775,0.2867427468299866,-0.13148126006126404,-0.1050427034497261,0.2582019865512848
227,21006,21000,0.010237524285912514,-0.0005416134372353554,0.993266224861145,1.305214285850525,6.202991485595703,-0.6033539175987244,1.8606137037277222,3.9446463584899902,0.28366217017173767,-0.2575162947177887,-0.10868846625089645,0.2506808936595917
228,21016,21010,0.09457680583000183,-0.042301032692193985,0.9197996258735657,1.410200595855713,0.13679030537605286,-0.39251548051834106,1.8619619607925415,3.9446794986724854,0.2834600806236267,-0.19085468351840973,-0.09541106224060059,0.23686054348945618
229,21026,21020,-0.008087115362286568,-0.0048648943193256855,0.9802136421203613,1.280670404434204,-0.8852258920669556,-0.4411899447441101,1.861668586730957,3.9447414875030518,0.2833668291568756,-0.32851454615592957,-0.14807476103305817,0.242579385638237
230,21036,21030,-0.036793649196624756,-0.03811590000987053,1.015040397644043,1.8699151277542114,2.2578537464141846,-0.5029616951942444,1.8633811473846436,3.946108341217041,0.282948762178421,-0.24031728506088257,-0.10638439655303955,0.24921812117099762
231,21046,21040,0.013409897685050964,-0.023990891873836517,0.9839864373207092,2.7792863845825195,1.6775270700454712,-0.11365227401256561,1.8629623651504517,3.946038007736206,0.28285911679267883,-0.24965746700763702,-0.14130957424640656,0.24696162343025208
232,21056,21050,-0.03178432956337929,0.038956355303525925,1.075972557067871,2.461256980895996,1.6212496757507324,-0.620821475982666,1.863146424293518,3.947100877761841,0.2826637923717499,-0.4034107029438019,-0.08723777532577515,0.28319934010505676
233,21066,21060,-0.0014254903653636575,0.01568453013896942,1.045108437538147,3.292581081390381,0.2884255349636078,-0.7210733294487,1.865328311920166,3.9478471279144287,0.28291183710098267,-0.30732104182243347,-0.034569866955280304,0.30917274951934814
234,21076,21070,-0.018169164657592773,-0.05072801932692528,1.0224944353103638,2.732119083404541,0.8273048400878906,-1.0945483446121216,1.8653398752212524,3.9497830867767334,0.28296899795532227,-0.24603073298931122,0.02520691603422165,0.3254324495792389
235,21086,21080,0.012506227940320969,-0.051250822842121124,1.0094506740570068,2.680415391921997,-1.749703049659729,-0.6028493046760559,1.8651483058929443,3.9495625495910645,0.2829769551753998,-0.3178589940071106,0.08098292350769043,0.3243217170238495
236,21096,21090,-0.021884389221668243,0.02804555557668209,1.0794897079467773,-1.2503708600997925,-1.2476667165756226,0.6397548913955688,1.8659266233444214,3.9501397609710693,0.2848950922489166,-0.20155328512191772,0.036645181477069855,0.3091159164905548
237,21106,21100,-0.07664455473423004,0.18658368289470673,1.100197672843933,-1.5785974264144897,-2.5990803241729736,-1.1511259078979492,1.8658101558685303,3.950336217880249,0.2850719392299652,-0.3336043357849121,0.040998462587594986,0.3172178864479065
238,21116,21110,0.01994958147406578,-0.02902301959693432,1.012691617012024,-1.5938568115234375,-0.7181265354156494,-0.8925603032112122,1.867614984512329,3.950634002685547,0.28515246510505676,-0.22075816988945007,0.03541359677910805,0.28390777111053467
239,21126,21120,-0.08994092047214508,0.017617184668779373,1.0535037517547607,-1.3369964361190796,1.3584262132644653,-1.2214938402175903,1.8691658973693848,3.9515163898468018,0.2858319878578186,-0.17549186944961548,0.008755907416343689,0.30918776988983154
240,21136,21130,-0.0890476331114769,0.12631438672542572,1.1550629138946533,0.058128293603658676,-3.253969192504883,-0.1101093515753746,1.8693333864212036,3.9512152671813965,0.2869848608970642,-0.18487492203712463,-0.008530542254447937,0.30661457777023315
241,21146,21140,-0.051545094698667526,0.029543379321694374,1.0308887958526611,1.0733345746994019,0.6973376870155334,-0.41029980778694153,1.8692102432250977,3.952439546585083,0.2869839072227478,-0.1689189374446869,0.007036358583718538,0.3020542562007904
242,21156,21150,-0.007248956710100174,-0.0459158681333065,0.9546483159065247,2.3088858127593994,-3.031677007675171,-0.022468598559498787,1.8691883087158203,3.95224666595459,0.2874567210674286,-0.33437463641166687,0.033567991107702255,0.3139989674091339
243,21166,21160,0.038112204521894455,-0.21006937325000763,0.9589319825172424,2.335599899291992,-0.5616480708122253,-0.9791353344917297,1.8722752332687378,3.9529614448547363,0.2912246286869049,-0.23820997774600983,-0.0001969537406694144,0.31515735387802124
244,21176,21170,0.11386778205633163,-0.26501068472862244,0.9232520461082458,2.3026185035705566,5.076709747314453,-0.6810608506202698,1.8720300197601318,3.9537370204925537,0.29191699624061584,-0.3098885715007782,0.04656430333852768,0.3208342492580414
245,21186,21180,0.04978546127676964,-0.12396237999200821,0.905415952205658,1.20570969581604,-2.140665054321289,-0.6025927662849426,1.8725039958953857,3.9540531635284424,0.29189956188201904,-0.3759804368019104,0.005272744223475456,0.33669382333755493
246,21196,21190,0.10268102586269379,0.021890264004468918,0.9263946413993835,0.4225511848926544,-4.190723896026611,-1.10165274143219,1.8736519813537598,3.956096649169922,0.29225364327430725,-0.23994992673397064,0.03030547685921192,0.33897683024406433
247,21206,21200,0.03815484419465065,-0.10227016359567642,0.9075047373771667,1.0687490701675415,-3.3068273067474365,-1.287168264389038,1.8743245601654053,3.9561636447906494,0.2932031452655792,-0.106352798640728,0.06331242620944977,0.32950061559677124
248,21216,21210,0.024573946371674538,-0.04966984689235687,0.9568408727645874,0.3050849139690399,2.0201058387756348,-2.0242674350738525,1.8738462924957275,3.95613956451416,0.2932843267917633,-0.15713806450366974,0.0952930897474289,0.29424574971199036
249,21226,21220,0.14309145510196686,-0.21148788928985596,1.052506685256958,1.5926650762557983,3.145848512649536,-1.8146705627441406,1.8748421669006348,3.955632209777832,0.2935642898082733,-0.22046254575252533,0.12178914994001389,0.27433502674102783
250,21236,21230,0.09336155652999878,-0.15777428448200226,0.9569429159164429,2.3883180618286133,5.274808883666992,-2.2668652534484863,1.8763667345046997,3.9555397033691406,0.29458698630332947,-0.22123906016349792,0.1420324295759201,0.2536754608154297
251,21246,21240,0.09072396159172058,-0.047756679356098175,0.8940946459770203,-0.19485488533973694,1.6189650297164917,-2.436293601989746,1.8773150444030762,3.955601692199707,0.2949764132499695,-0.25372517108917236,0.15838508307933807,0.22918610274791718
252,21256,21250,0.030568169429898262,-0.02317930944263935,0.9995935559272766,0.9485020637512207,1.2971011400222778,-1.5220022201538086,1.8782496452331543,3.955608606338501,0.2953261435031891,-0.17866015434265137,0.1701444834470749,0.22958619892597198
253,21266,21260,0.017863616347312927,-0.009320384822785854,0.961781919002533,-0.9948469996452332,7.006494522094727,-2.4953453540802,1.878650426864624,3.956411600112915,0.29990410804748535,-0.1175682544708252,0.17398595809936523,0.2188153862953186
254,21276,21270,0.04563155770301819,-0.08449787646532059,0.9670349359512329,-3.0735905170440674,-0.2569223940372467,-2.1463136672973633,1.8784440755844116,3.956615447998047,0.30048036575317383,-0.39977315068244934,0.13509942591190338,0.18748363852500916
255,21286,21280,-0.02857031114399433,-0.12141449749469757,0.9367299675941467,-2.2122108936309814,-0.20438887178897858,-2.6163411140441895,1.8812068700790405,3.9569435119628906,0.3008688986301422,-0.3840515613555908,0.08795255422592163,0.18137744069099426
256,21296,21290,0.09435276687145233,0.03190400078892708,1.0090181827545166,0.28417322039604187,3.784041404724121,-3.1015594005584717,1.8819060325622559,3.9576735496520996,0.30354440212249756,-0.38254207372665405,0.14010226726531982,0.16539637744426727
257,21306,21300,0.03631024435162544,0.0341251976788044,0.9855771064758301,0.110104039311409,0.007408687379211187,-3.6111555099487305,1.8821567296981812,3.9572830200195312,0.3041495680809021,-0.28461945056915283,0.13895085453987122,0.17108376324176788
258,21316,21310,-0.020323682576417923,0.019472213461995125,1.001159429550171,-0.09905099123716354,-2.376613140106201,-3.384767770767212,1.8823944330215454,3.95778226852417,0.30483478307724,-0.3132994771003723,0.14558379352092743,0.12227713316679001
259,21326,21320,-0.028777435421943665,0.07335473597049713,1.0853830575942993,0.3439571261405945,-0.06489627063274384,-2.990598678588867,1.8827632665634155,3.957451581954956,0.30533137917518616,-0.2510624825954437,0.1496690958738327,0.08858074992895126
260,21336,21330,0.03095890022814274,0.08042456954717636,0.9637319445610046,-0.2745100259780884,-2.409810781478882,-3.053696393966675,1.883433222770691,3.957557439804077,0.30651435256004333,-0.1462976336479187,0.0796867087483406,0.08064240217208862
261,21346,21340,-0.0566830188035965,0.09162312000989914,1.02748441696167,-2.3302805423736572,11.811519622802734,-3.2133400440216064,1.8832263946533203,3.959078311920166,0.30724796652793884,-0.47453799843788147,0.06676558405160904,0.047287438064813614
262,21356,21350,0.07942601293325424,0.9053223729133606,1.0154091119766235,-0.4409009516239166,1.7566518783569336,-3.151611089706421,1.886997938156128,3.958866834640503,0.30768299102783203,-0.4239014983177185,0.1282459795475006,0.017551187425851822
263,21366,21360,-0.024694757536053658,1.4523173570632935,1.107370138168335,-1.0678393840789795,-4.341578960418701,-3.96431565284729,1.8875137567520142,3.9587950706481934,0.31009623408317566,-0.3718743920326233,0.10811599344015121,-0.021661365404725075
264,21376,21370,-0.06199495121836662,0.541220486164093,1.0313804149627686,0.49647441506385803,-6.0638556480407715,-3.671415090560913,1.8878968954086304,3.958674669265747,0.3109334111213684,-0.17440074682235718,0.11497729271650314,-0.05261193588376045
265,21386,21380,-0.006227028556168079,-0.020589679479599,0.9948026537895203,-0.4647124409675598,-0.7393349409103394,-4.220098972320557,1.8876736164093018,3.9585959911346436,0.31194058060646057,-0.16186602413654327,0.04073331877589226,-0.09289603680372238
266,21396,21390,0.006848745048046112,-0.06450606137514114,1.0216102600097656,-0.7775753140449524,-0.7515849471092224,-3.839360237121582,1.888485074043274,3.959233283996582,0.3145526647567749,-0.3352118730545044,0.046931978315114975,-0.14304353296756744
267,21406,21400,-0.03872130811214447,0.20556068420410156,1.0610883235931396,-0.9016368389129639,-1.166579008102417,-2.980375289916992,1.8909542560577393,3.959120035171509,0.315449595451355,-0.2114095240831375,0.11651267856359482,-0.15725737810134888
268,21416,21410,-0.01723824441432953,0.8590268492698669,0.936270534992218,-1.332472324371338,-0.2815786302089691,-3.718886375427246,1.8911585807800293,3.958909749984741,0.31661030650138855,-0.18766844272613525,0.11241237074136734,-0.1954604536294937
269,21426,21420,-0.09444224834442139,0.7338878512382507,1.0657672882080078,0.5715041160583496,4.9252448081970215,-3.8990402221679688,1.8917591571807861,3.9592666625976562,0.3167548179626465,-0.09135906398296356,0.08994308859109879,-0.19667531549930573
270,21436,21430,0.03053758107125759,0.07947888970375061,0.9456942081451416,-0.47277674078941345,0.31421756744384766,-3.4340834617614746,1.891973614692688,3.9597811698913574,0.31784820556640625,-0.045112427324056625,0.08401159197092056,-0.25054070353507996
271,21446,21440,0.11728562414646149,-0.14470577239990234,0.8829320073127747,-1.6455967426300049,1.358696460723877,-3.5407791137695312,1.8922520875930786,3.9597160816192627,0.3189736306667328,-0.12036924064159393,0.06259968876838684,-0.2821289300918579
272,21456,21450,-0.003997435327619314,-0.03681926801800728,0.9483444094657898,-0.7288185954093933,-2.714989185333252,-3.7893223762512207,1.8945144414901733,3.9610390663146973,0.3200007975101471,-0.042895954102277756,0.030701864510774612,-0.25298112630844116
273,21466,21460,0.034132346510887146,0.07364664226770401,0.833541989326477,1.0285550355911255,-0.8058846592903137,-4.600287914276123,1.8947359323501587,3.961599349975586,0.3217260539531708,-0.1319812685251236,0.01537754014134407,-0.29471996426582336
274,21476,21470,0.08805233240127563,-0.12605662643909454,0.7227891683578491,1.8719482421875,-0.6704926490783691,-4.865812301635742,1.8963896036148071,3.9620208740234375,0.3226109743118286,-0.1563214510679245,0.014213518239557743,-0.31062018871307373
275,21486,21480,0.026301758363842964,-0.044873613864183426,0.7331069707870483,-2.8198697566986084,4.760943412780762,-5.844135284423828,1.8975547552108765,3.962491512298584,0.32332471013069153,-0.10263220965862274,0.0019009889801964164,-0.3573366105556488
276,21496,21490,-0.12398260831832886,0.1911940574645996,0.99273681640625,-0.5586650371551514,3.551543951034546,-4.890173435211182,1.897513747215271,3.963106155395508,0.32526323199272156,-0.21487538516521454,-0.04934939369559288,-0.39514604210853577
277,21506,21500,-0.047601860016584396,0.076805979013443,0.9677785038948059,-0.8136339783668518,4.496924877166748,-4.806493282318115,1.8988412618637085,3.9631433486938477,0.3256860673427582,-0.2060040831565857,-0.059066273272037506,-0.4339132010936737
278,21516,21510,0.03119538724422455,-0.019848201423883438,0.9024189114570618,0.5334877371788025,2.3849239349365234,-4.454704761505127,1.8987681865692139,3.9638166427612305,0.32611432671546936,-0.19397597014904022,0.01592591032385826,-0.49500977993011475
279,21526,21520,0.01564217358827591,-0.03488630801439285,0.8854249715805054,-0.3452950417995453,3.6987855434417725,-4.059526443481445,1.8986644744873047,3.9630353450775146,0.32537057995796204,-0.23653292655944824,0.018320605158805847,-0.5092836618423462
280,21536,21530,-0.1403024047613144,0.32972902059555054,0.981916606426239,2.0447494983673096,-1.4325404167175293,-4.681497097015381,1.899775505065918,3.9632599353790283,0.325568288564682,-0.2752532362937927,0.023150157183408737,-0.5394123792648315
281,21546,21540,-0.11399868875741959,0.10721799731254578,0.9486297965049744,-0.6412436962127686,3.930698871612549,-5.024190902709961,1.9000550508499146,3.9634206295013428,0.3256947994232178,-0.16379250586032867,0.05542639642953873,-0.572016716003418
282,21556,21550,-0.08720361441373825,0.2193901240825653,0.9387107491493225,0.5107161402702332,-3.731489896774292,-4.480921745300293,1.899003028869629,3.96372652053833,0.3257891535758972,-0.18855273723602295,0.05820653587579727,-0.5827478766441345
283,21566,21560,-0.2249797135591507,0.28853222727775574,1.1126327514648438,1.4513959884643555,4.764858722686768,-5.121451377868652,1.8996469974517822,3.9647138118743896,0.3248231112957001,-0.33576440811157227,0.0995258241891861,-0.6323768496513367
284,21576,21570,-0.0853484496474266,0.20444722473621368,1.0938925743103027,1.6929826736450195,5.278748035430908,-4.3935394287109375,1.9015247821807861,3.965186834335327,0.32471445202827454,-0.3338659107685089,0.12238702178001404,-0.6393824815750122
285,21586,21580,0.03890995681285858,0.04405030980706215,0.9443209171295166,0.3264382481575012,7.706998348236084,-4.7133402824401855,1.902192234992981,3.9655044078826904,0.3248322308063507,-0.42885586619377136,0.04923974722623825,-0.6730267405509949
286,21596,21590,0.09082702547311783,0.046794593334198,0.8898760676383972,0.029452141374349594,1.3980778455734253,-4.667628765106201,1.9031116962432861,3.9667093753814697,0.3211609423160553,-0.4253048598766327,-0.024051673710346222,-0.7117190361022949
287,21606,21600,-0.028572358191013336,0.05960806459188461,0.9864118099212646,0.019267072901129723,2.7434632778167725,-5.752879619598389,1.904032588005066,3.967928409576416,0.3210412263870239,-0.29434677958488464,-0.008830760605633259,-0.6741084456443787
288,21616,21610,0.07931628078222275,-0.019793089479207993,0.9269221425056458,0.7237211465835571,-0.9731292724609375,-5.966803073883057,1.9037965536117554,3.9697165489196777,0.3208448588848114,-0.3369348347187042,0.01034485548734665,-0.6897858381271362
289,21626,21620,-0.11829157173633575,0.0403861477971077,1.0466314554214478,2.056159734725952,-2.149085283279419,-6.063446998596191,1.9055068492889404,3.971066951751709,0.31906697154045105,-0.3326500356197357,0.0419221855700016,-0.7232784628868103
290,21636,21630,-0.09527359157800674,0.1663047820329666,1.1110210418701172,3.0070619583129883,-1.7251602411270142,-5.481712818145752,1.907323956489563,3.971001625061035,0.31859201192855835,-0.22475296258926392,0.0924835130572319,-0.8032390475273132
291,21646,21640,-0.03864652290940285,0.02903023548424244,1.0035169124603271,3.5283560752868652,-0.3801887631416321,-4.864267349243164,1.9074069261550903,3.9702911376953125,0.31828585267066956,-0.21658988296985626,0.15111902356147766,-0.8563288450241089
292,21656,21650,-0.008392712101340294,-0.02298603020608425,0.9765490293502808,1.176815152168274,6.098276138305664,-5.452539443969727,1.907914161682129,3.9695112705230713,0.3179449141025543,-0.2837660014629364,0.19495685398578644,-0.917828381061554
293,21666,21660,0.05802507698535919,0.14076752960681915,1.0323437452316284,1.3256808519363403,4.112317085266113,-4.2910475730896,1.908988356590271,3.9697132110595703,0.31900280714035034,-0.2850373387336731,0.21040573716163635,-0.9535005688667297
294,21676,21670,-0.09110625088214874,0.7951515316963196,1.0528864860534668,-0.10251747816801071,0.9199127554893494,-4.023902893066406,1.909359335899353,3.9706687927246094,0.31881263852119446,-0.4113694429397583,0.2171216905117035,-0.9565437436103821
295,21686,21680,-0.008099178783595562,0.44135376811027527,1.022386908531189,-2.4852287769317627,1.166111946105957,-4.4186201095581055,1.9110745191574097,3.9708733558654785,0.31855714321136475,-0.4183289110660553,0.18419378995895386,-1.0137475728988647
296,21696,21690,-0.0710471048951149,0.06910943984985352,1.0667637586593628,-2.5889008045196533,3.5168933868408203,-4.114834308624268,1.9113495349884033,3.9708640575408936,0.31614264845848083,-0.3678446412086487,0.1371484100818634,-1.0350157022476196
297,21706,21700,-0.09496622532606125,0.10782595723867416,1.0596652030944824,-2.637826919555664,2.6089026927948,-4.009881496429443,1.9108411073684692,3.9707045555114746,0.3159548044204712,-0.49077826738357544,0.16394668817520142,-1.087775468826294
298,21716,21710,0.008036655373871326,-0.1330300122499466,0.9164503216743469,-2.073929786682129,-0.2393970787525177,-3.463839054107666,1.9124109745025635,3.970444917678833,0.3156760036945343,-0.49415209889411926,0.12210962176322937,-1.1264835596084595
299,21726,21720,-0.048657990992069244,0.14950941503047943,1.0522816181182861,-1.2230660915374756,0.7937538623809814,-3.9916598796844482,1.9127470254898071,3.97090482711792,0.3139161765575409,-0.5934890508651733,0.08849140256643295,-1.1254056692123413
300,21736,21730,-0.08756804466247559,0.11281364411115646,1.053102731704712,0.35133296251296997,-1.01693856716156,-3.7113285064697266,1.9144351482391357,3.971498489379883,0.31356656551361084,-0.5841565132141113,0.08671785891056061,-1.1780202388763428
301,21746,21740,0.021902363747358322,0.0069795940071344376,0.9541870355606079,0.508723258972168,-5.065248012542725,-3.655663251876831,1.9153516292572021,3.971005916595459,0.31332898139953613,-0.42260855436325073,0.09088144451379776,-1.1978732347488403
302,21756,21750,0.03462229296565056,-0.0674721971154213,0.9552987813949585,0.5391162037849426,-7.397665023803711,-3.199695110321045,1.9148770570755005,3.9712331295013428,0.3101619482040405,-0.443219929933548,0.020003968849778175,-1.2624592781066895
303,21766,21760,-0.08280406147241592,-0.029220987111330032,1.0300058126449585,1.0321123600006104,-6.295973300933838,-3.293299913406372,1.9171825647354126,3.9719879627227783,0.30964401364326477,-0.31069809198379517,0.03985889256000519,-1.265749216079712
304,21776,21770,-0.014831017702817917,-0.08614061772823334,0.9921191334724426,1.5059581995010376,-4.4298014640808105,-2.690526247024536,1.9171727895736694,3.9714953899383545,0.3092271089553833,-0.20470035076141357,0.14034892618656158,-1.305490255355835
305,21786,21780,-0.0458204559981823,-0.0599474161863327,1.0157698392868042,1.8839783668518066,0.5560094118118286,-3.2777762413024902,1.9178242683410645,3.9716129302978516,0.30883339047431946,-0.31186339259147644,0.16698220372200012,-1.355534553527832
306,21796,21790,-0.031457241624593735,0.11622259765863419,1.0339280366897583,0.06706792861223221,0.5147463083267212,-2.986281156539917,1.9190386533737183,3.9708914756774902,0.30592653155326843,-0.23267540335655212,0.1757681667804718,-1.353867769241333
307,21806,21800,0.00446666032075882,0.3383947014808655,0.9774949550628662,-1.8565785884857178,-0.6321325898170471,-2.350424289703369,1.9187183380126953,3.9712467193603516,0.3054414391517639,-0.3456050455570221,0.13817551732063293,-1.3796828985214233
308,21816,21810,-0.02455979585647583,0.17628411948680878,1.0917959213256836,-1.4422731399536133,1.7996171712875366,-2.7218778133392334,1.9206607341766357,3.9715163707733154,0.30477604269981384,-0.275806188583374,0.11170841753482819,-1.392821192741394
309,21826,21820,-0.010421147570014,-0.025931857526302338,1.0041550397872925,-1.5476467609405518,-0.6100342869758606,-1.9756931066513062,1.9207324981689453,3.9716975688934326,0.29971078038215637,-0.41373923420906067,0.07650512456893921,-1.3722715377807617
310,21836,21830,0.0030872200150042772,0.07243309170007706,1.0148541927337646,-1.5569199323654175,-0.36306577920913696,-2.7375905513763428,1.9229943752288818,3.9728260040283203,0.2988201081752777,-0.3682843744754791,0.044464655220508575,-1.4128748178482056
311,21846,21840,-0.026921609416604042,0.03318249061703682,1.074749231338501,-0.042188599705696106,-2.5671184062957764,-3.1109225749969482,1.9232728481292725,3.9730224609375,0.29809045791625977,-0.3031328618526459,0.043294526636600494,-1.4089041948318481
312,21856,21850,-0.02248586341738701,-0.19799508154392242,0.971554696559906,-0.2812958359718323,-5.819305896759033,-2.438995122909546,1.923673391342163,3.9730944633483887,0.29458004236221313,-0.2482125610113144,0.021184880286455154,-1.4546014070510864
313,21866,21860,0.06711579859256744,-0.2366301268339157,1.08041250705719,2.4582347869873047,-5.173781871795654,-2.8492963314056396,1.9242024421691895,3.9729244709014893,0.29370737075805664,-0.0726807489991188,0.019146393984556198,-1.4687201976776123
314,21876,21870,-0.0045868949964642525,-0.007165875285863876,1.0965980291366577,3.0345005989074707,-3.846181869506836,-1.7778204679489136,1.9238797426223755,3.972278118133545,0.2929295599460602,-0.07159935683012009,0.08214613795280457,-1.5060055255889893
315,21886,21880,-0.018177777528762817,-0.03361252695322037,1.0167425870895386,2.4352188110351562,-1.9236146211624146,-1.7189701795578003,1.924567461013794,3.9724879264831543,0.29213425517082214,-0.019466867670416832,0.12762697041034698,-1.4786503314971924
316,21896,21890,-0.039951492100954056,-0.14927437901496887,0.9799932241439819,1.1943765878677368,-1.4293462038040161,-1.0621930360794067,1.925122857093811,3.9738476276397705,0.2896674871444702,0.0857284739613533,0.07261434942483902,-1.4728957414627075
317,21906,21900,-0.08379530161619186,-0.13796977698802948,1.0469352006912231,-0.20583845674991608,2.493624448776245,-1.615808367729187,1.9250726699829102,3.9746625423431396,0.28893065452575684,0.013333424925804138,0.09258444607257843,-1.470923662185669
318,21916,21910,-0.03510124981403351,-0.21661359071731567,1.0511420965194702,0.21196432411670685,4.03734016418457,-2.0892598628997803,1.9262651205062866,3.9748291969299316,0.28809499740600586,-0.11429154872894287,0.08564209192991257,-1.4818838834762573
319,21926,21920,-0.004023902118206024,-0.04833182692527771,1.1099522113800049,-0.3367089033126831,5.2805328369140625,-2.7161917686462402,1.927751064300537,3.97456693649292,0.28864753246307373,-0.24533550441265106,0.091718390583992,-1.4769713878631592
320,21936,21930,0.028863530606031418,0.0008856754866428673,1.0677731037139893,2.1130552291870117,0.9263433814048767,-1.828145146369934,1.9290618896484375,3.9759297370910645,0.2880081832408905,-0.15348684787750244,0.1945582628250122,-1.4865013360977173
321,21946,21940,-0.02599528059363365,0.006833778228610754,1.0196216106414795,1.446933388710022,-0.20768336951732635,-2.013155937194824,1.928183913230896,3.974885940551758,0.2876407206058502,-0.07242453843355179,0.1357167512178421,-1.4875253438949585
322,21956,21950,-0.010438276454806328,0.030247744172811508,1.060032844543457,0.350055992603302,-6.525925636291504,-1.7336469888687134,1.9282662868499756,3.97574782371521,0.2847774922847748,-0.3016011416912079,0.15454937517642975,-1.4911723136901855
323,21966,21960,0.0018291068263351917,0.01119217835366726,1.1205949783325195,-1.2423886060714722,-2.795833110809326,-1.4121370315551758,1.9311001300811768,3.9761762619018555,0.28404414653778076,0.1988537460565567,0.21230414509773254,-1.4838804006576538
324,21976,21970,-0.04311000555753708,-0.11066889762878418,1.1361775398254395,-0.32011789083480835,-1.5290066003799438,-1.738560438156128,1.927415132522583,3.9748287200927734,0.28422826528549194,-0.010494397021830082,0.19632993638515472,-1.524948239326477
325,21986,21980,-0.03513408452272415,-0.019544096663594246,1.0849711894989014,-1.1182764768600464,2.513721227645874,-1.7490876913070679,1.9297159910202026,3.975522994995117,0.2839193344116211,0.04127320274710655,0.17263655364513397,-1.5382651090621948
326,21996,21990,-0.005739178974181414,-0.013821532018482685,1.0158920288085938,-4.473817825317383,4.581832408905029,-1.7465938329696655,1.9293512105941772,3.9750144481658936,0.2859324514865875,0.08085772395133972,0.11641228199005127,-1.5248336791992188
327,22006,22000,0.015738235786557198,-0.06809116899967194,1.081512212753296,-3.3742077350616455,3.542128086090088,-0.87184077501297,1.9295990467071533,3.9760820865631104,0.28600597381591797,-0.06761474162340164,0.0502559170126915,-1.5332056283950806
328,22016,22010,0.03393828868865967,-0.02873935177922249,1.0282236337661743,-5.326766490936279,-0.8535364866256714,-0.27841833233833313,1.9309446811676025,3.976506471633911,0.2859767973423004,-0.19099874794483185,-0.0027264005038887262,-1.501341462135315
329,22026,22020,0.024237889796495438,-0.12493925541639328,1.0994081497192383,-0.12970785796642303,4.844139099121094,-1.9214904308319092,1.9321503639221191,3.976006031036377,0.2835988998413086,-0.13532188534736633,0.04698191583156586,-1.5385775566101074
330,22036,22030,0.008464936167001724,-0.10369212925434113,1.1435847282409668,1.3378063440322876,3.174271583557129,-1.1703976392745972,1.932077169418335,3.976166248321533,0.28371661901474,-0.15023860335350037,0.11541315168142319,-1.5443811416625977
331,22046,22040,0.031049348413944244,-0.06809541583061218,1.0574829578399658,1.3355227708816528,3.217397928237915,-1.1020112037658691,1.9320813417434692,3.9754340648651123,0.2838268280029297,-0.07983005046844482,0.1100321039557457,-1.5153714418411255
332,22056,22050,-0.07129166275262833,0.009661810472607613,1.0494651794433594,1.348457932472229,0.7322976589202881,-0.6679134964942932,1.932430624961853,3.9757769107818604,0.2830513119697571,-0.040051672607660294,0.12016652524471283,-1.5263702869415283
333,22066,22060,-0.039618004113435745,-0.07626054435968399,1.047072410583496,0.3374897241592407,2.400731086730957,-0.6893943548202515,1.9323829412460327,3.976452112197876,0.2833358347415924,-0.20247416198253632,0.11984679847955704,-1.4830242395401
334,22076,22070,-0.04416275396943092,-0.09189989417791367,1.030287265777588,-2.4618184566497803,2.5300533771514893,-1.4231789112091064,1.93454909324646,3.9767465591430664,0.28353965282440186,-0.14257022738456726,0.09033778309822083,-1.4722599983215332
335,22086,22080,0.01514272391796112,-0.0037492166738957167,0.9465799927711487,-3.5479226112365723,0.11055652052164078,-0.6253551840782166,1.9347851276397705,3.977354049682617,0.28393256664276123,-0.0818844735622406,0.045972563326358795,-1.481581449508667
336,22096,22090,-0.006518338806927204,0.06551548838615417,1.0459754467010498,-3.8237462043762207,1.177432894706726,-0.47053271532058716,1.9350415468215942,3.9775593280792236,0.2843138873577118,-0.18528442084789276,-0.0157989040017128,-1.4904903173446655
337,22106,22100,-0.011696164496243,0.030121581628918648,1.0776753425598145,-2.7485151290893555,3.2470877170562744,-0.34418416023254395,1.9363644123077393,3.9779131412506104,0.28458258509635925,-0.11224393546581268,-0.08346953243017197,-1.503337025642395
338,22116,22110,0.01950005814433098,-0.019375141710042953,1.0160435438156128,-1.0282632112503052,1.9861241579055786,-0.026624243706464767,1.9367424249649048,3.9779245853424072,0.28501206636428833,-0.22681507468223572,-0.04558117315173149,-1.4901237487792969
339,22126,22120,0.023583466187119484,-0.11702287197113037,0.9892792701721191,0.36792486906051636,2.428882360458374,-0.33039435744285583,1.9380444288253784,3.9772896766662598,0.2846970558166504,-0.17984539270401,-0.06746391206979752,-1.4777272939682007
340,22136,22130,0.009835904464125633,-0.28235161304473877,0.9138964414596558,1.3808088302612305,2.2103402614593506,-0.20440131425857544,1.9379593133926392,3.9780433177948,0.28513163328170776,-0.13311032950878143,-0.07145269215106964,-1.4626656770706177
341,22146,22140,0.09059545397758484,-0.0526643767952919,0.9882362484931946,1.258397102355957,0.7756454944610596,-0.2984355092048645,1.9380894899368286,3.9775543212890625,0.28553614020347595,-0.26713433861732483,0.014003024436533451,-1.4477055072784424
342,22156,22150,-0.0015651186695322394,0.10117210447788239,1.0118836164474487,0.967553973197937,1.9958722591400146,-0.293573260307312,1.9392602443695068,3.9779343605041504,0.2855163812637329,-0.36862802505493164,0.02750375121831894,-1.4764893054962158
343,22166,22160,0.0221568513661623,0.05797821283340454,1.0189809799194336,0.04759876802563667,3.177860736846924,-0.3321464955806732,1.9402002096176147,3.977783203125,0.2857167720794678,-0.3185247480869293,0.024794917553663254,-1.4283157587051392
344,22176,22170,-0.05085326358675957,-0.10449451208114624,0.9864001870155334,-3.6553597450256348,2.297658920288086,-0.07249321043491364,1.9399560689926147,3.9778623580932617,0.2860884666442871,-0.26823005080223083,-0.011136950924992561,-1.428130030632019
345,22186,22180,-0.02865425869822502,-0.10720445215702057,0.9695218801498413,-5.269035339355469,0.392178475856781,0.23788335919380188,1.9398176670074463,3.978848934173584,0.2853173613548279,-0.5792842507362366,-0.07865365594625473,-1.3979177474975586
346,22196,22190,0.09386800974607468,-0.03476583585143089,0.9927629232406616,-6.190934658050537,1.1501798629760742,-0.12059920281171799,1.9427937269210815,3.9783284664154053,0.2853269577026367,-0.4913739860057831,-0.1704915165901184,-1.3913761377334595
347,22206,22200,0.0886501893401146,-0.2306404411792755,0.8827826380729675,-4.207857131958008,-0.3101036548614502,0.09130530804395676,1.9427664279937744,3.9795596599578857,0.28565075993537903,-0.43338021636009216,-0.25300973653793335,-1.3955966234207153
348,22216,22210,0.05022111162543297,-0.10037452727556229,0.9994399547576904,-1.4517866373062134,-3.200667142868042,-0.028481556102633476,1.9425938129425049,3.979990005493164,0.2859211564064026,-0.41273513436317444,-0.08116910606622696,-1.346027135848999
349,22226,22220,0.017476271837949753,-0.05406296253204346,0.9916335344314575,1.2758299112319946,-3.3007938861846924,-0.19676339626312256,1.9431564807891846,3.978633165359497,0.28511688113212585,-0.5083479881286621,-0.11109646409749985,-1.3356393575668335
350,22236,22230,-0.015992015600204468,-0.014570715837180614,1.0653141736984253,1.5267796516418457,-1.5619391202926636,-0.22158578038215637,1.9449745416641235,3.9790384769439697,0.2850643992424011,-0.43540307879447937,-0.11738213151693344,-1.3007887601852417
351,22246,22240,-0.02347291074693203,0.03070133738219738,1.0688762664794922,0.22163140773773193,0.193964883685112,-0.49027514457702637,1.9455595016479492,3.9792253971099854,0.2852071225643158,-0.5288571119308472,-0.19463220238685608,-1.2747688293457031
352,22256,22250,-0.0410468615591526,0.11537288874387741,1.0473129749298096,-0.9575919508934021,0.7689462900161743,-1.0301642417907715,1.947568655014038,3.9803640842437744,0.2905930280685425,-0.4051080048084259,-0.19678844511508942,-1.267226219177246
353,22266,22260,-0.0034327819012105465,0.027620069682598114,1.0195928812026978,-3.2406251430511475,1.1053329706192017,-1.3878943920135498,1.947218894958496,3.980377197265625,0.2912130653858185,-0.29806146025657654,-0.22874371707439423,-1.2671172618865967
354,22276,22270,0.027009548619389534,-0.3268434703350067,0.9120053052902222,-2.175079822540283,-0.9105719923973083,-0.8582034111022949,1.94749116897583,3.980867385864258,0.29183390736579895,-0.361706018447876,-0.27181270718574524,-1.254482388496399
355,22286,22280,-0.044470470398664474,0.04463101923465729,1.1106648445129395,0.34800514578819275,-1.4869227409362793,-1.2196016311645508,1.9488401412963867,3.9817192554473877,0.2914978265762329,-0.41471728682518005,-0.29697829484939575,-1.2235230207443237
356,22296,22290,-0.04013938084244728,0.06685245037078857,1.0312061309814453,2.039551019668579,-1.1188998222351074,-0.990056574344635,1.949992299079895,3.9820075035095215,0.29195937514305115,-0.28726866841316223,-0.28566575050354004,-1.2133649587631226
357,22306,22300,-0.047121983021497726,-0.007466527167707682,1.0536060333251953,3.8827221393585205,-2.1572248935699463,-0.7382334470748901,1.9495264291763306,3.9828543663024902,0.292612761259079,-0.24410033226013184,-0.2457534223794937,-1.199540615081787
358,22316,22310,-0.01910564675927162,0.019962482154369354,1.0480397939682007,4.4186811447143555,-0.1112983450293541,-1.4693961143493652,1.9498285055160522,3.9825801849365234,0.29321399331092834,-0.36718088388442993,-0.1904667317867279,-1.1838302612304688
359,22326,22320,-0.023461073637008667,0.09183181077241898,1.0261324644088745,3.252817392349243,0.5133230090141296,-1.3532768487930298,1.9518698453903198,3.9827733039855957,0.294765442609787,-0.24970205128192902,-0.12900476157665253,-1.195135235786438
360,22336,22330,-0.047871239483356476,-0.09563146531581879,0.9477682113647461,1.5650843381881714,0.17764845490455627,-1.2732983827590942,1.951442003250122,3.982489585876465,0.295553982257843,-0.3678017854690552,-0.1617012768983841,-1.2013046741485596
361,22346,22340,0.019131409004330635,-0.2592063546180725,0.9620205163955688,-2.569295883178711,0.7600520253181458,-1.865702748298645,1.953908085823059,3.983969211578369,0.296184778213501,-0.34086453914642334,-0.15704458951950073,-1.1422926187515259
362,22356,22350,0.04236574470996857,0.00906603503972292,0.9995408058166504,-1.9014514684677124,-1.314531922340393,-1.7026780843734741,1.954527497291565,3.9848320484161377,0.2999158203601837,-0.3819213807582855,-0.10966642200946808,-1.1420612335205078
363,22366,22360,-0.0013060644268989563,0.9335600733757019,0.9438852071762085,-0.08784787356853485,-2.3765552043914795,-2.085801362991333,1.9557156562805176,3.9844934940338135,0.3007211685180664,-0.2605571150779724,-0.20701496303081512,-1.145358681678772
364,22376,22370,-0.05391908437013626,0.5293335914611816,1.0070900917053223,1.6549489498138428,0.18891993165016174,-2.4807021617889404,1.955847978591919,3.9855034351348877,0.30166685581207275,-0.22349697351455688,-0.1976429522037506,-1.1297733783721924
365,22386,22380,-0.04072520509362221,0.04073181003332138,0.989018440246582,2.103017568588257,-3.863518476486206,-1.2193396091461182,1.9566948413848877,3.9858217239379883,0.30482548475265503,-0.25274384021759033,-0.17086026072502136,-1.1668742895126343
366,22396,22390,0.004964950028806925,0.11576656997203827,1.093749761581421,3.595970630645752,-2.9265174865722656,-0.7629345655441284,1.957814335823059,3.9855737686157227,0.30572646856307983,-0.18229366838932037,-0.12885522842407227,-1.182444453239441
367,22406,22400,-0.058306511491537094,0.14429786801338196,1.0440740585327148,3.5407607555389404,-1.0613148212432861,-1.4621163606643677,1.9585274457931519,3.9854631423950195,0.3067578971385956,-0.1908205896615982,-0.15015044808387756,-1.1704862117767334
368,22416,22410,-0.05548468977212906,0.23282557725906372,1.0023025274276733,0.7433227300643921,0.15872254967689514,-2.152055263519287,1.9600516557693481,3.985400915145874,0.3068150281906128,-0.21743012964725494,-0.10419460386037827,-1.2015117406845093
369,22426,22420,-0.15459677577018738,0.49758273363113403,0.9910104274749756,2.2001640796661377,1.1139366626739502,-2.060924530029297,1.96159827709198,3.9856014251708984,0.3077459931373596,-0.4054829180240631,-0.06213848292827606,-1.230852484703064
370,22436,22430,-0.06118922308087349,0.8828110694885254,1.0101665258407593,0.9297224879264832,0.6830227971076965,-1.7159053087234497,1.9646797180175781,3.9853572845458984,0.30850815773010254,-0.34649163484573364,-0.038064442574977875,-1.243532657623291
371,22446,22440,-0.04615199938416481,0.26484355330467224,1.0063737630844116,2.075115203857422,-0.7439977526664734,-1.764334797859192,1.9652398824691772,3.9849448204040527,0.30954986810684204,-0.20304548740386963,-0.0065740919671952724,-1.2735583782196045
372,22456,22450,-0.0542510561645031,-0.14157173037528992,0.9524821639060974,1.5238977670669556,-1.7765803337097168,-1.530610203742981,1.964978814125061,3.984724998474121,0.3122234642505646,-0.28304073214530945,0.026552962139248848,-1.2831401824951172
373,22466,22460,-0.02221524901688099,-0.19419720768928528,0.8622733354568481,1.1591860055923462,-3.97336483001709,-1.444055199623108,1.9661154747009277,3.9847021102905273,0.3130703866481781,-0.2619059681892395,-0.01701333560049534,-1.2320061922073364
374,22476,22470,-0.023495476692914963,-0.2118944674730301,0.8283641338348389,0.42545467615127563,-3.8283042907714844,-1.639788031578064,1.9664126634597778,3.9861388206481934,0.3140020966529846,-0.09053223580121994,0.007677516434341669,-1.2527155876159668
375,22486,22480,0.015085129998624325,-0.16683392226696014,0.8594220876693726,-0.07982253283262253,-6.329416275024414,-1.3959239721298218,1.966321349143982,3.986736536026001,0.3173230290412903,-0.05429117754101753,0.022668812423944473,-1.2306537628173828
376,22496,22490,0.048424284905195236,-0.14527685940265656,0.816527247428894,1.342405080795288,-7.250888824462891,-2.1266841888427734,1.9670242071151733,3.9866886138916016,0.31811895966529846,0.00038755760760977864,0.03870522603392601,-1.27459716796875
377,22506,22500,-0.020802004262804985,-0.021539831534028053,0.9422380328178406,1.8156064748764038,-8.47572135925293,-1.8756457567214966,1.9680850505828857,3.986114025115967,0.3187862038612366,-0.01451040804386139,-0.01481604389846325,-1.2993100881576538
378,22516,22510,0.08435569703578949,-0.152121901512146,0.8749919533729553,1.3406633138656616,-5.400788307189941,-1.6041656732559204,1.9699903726577759,3.9862284660339355,0.322004497051239,0.05957167223095894,0.01877894438803196,-1.3438342809677124
379,22526,22520,0.09232047200202942,-0.11705509573221207,0.855760395526886,2.6365203857421875,-4.299261569976807,-1.5528709888458252,1.9712163209915161,3.98636794090271,0.3226962983608246,0.09675625711679459,-0.014092765748500824,-1.358120322227478
380,22536,22530,0.02476871944963932,-0.04640335962176323,0.913649320602417,4.036263942718506,-1.6747621297836304,-1.2635914087295532,1.9731147289276123,3.9871602058410645,0.32331162691116333,0.2549557089805603,0.046729203313589096,-1.3502951860427856
381,22546,22540,0.03462684154510498,-0.045410916209220886,0.9143645167350769,4.8164896965026855,-0.48358070850372314,-1.349233865737915,1.9730312824249268,3.9868710041046143,0.32394489645957947,0.2170058637857437,0.046862803399562836,-1.3165767192840576
382,22556,22550,0.06710189580917358,-0.1375880390405655,0.8628897070884705,3.6790225505828857,1.0362882614135742,-1.9200785160064697,1.9745286703109741,3.988086223602295,0.3265087306499481,0.23246091604232788,0.129092276096344,-1.3418128490447998
383,22566,22560,0.05758242309093475,-0.20803068578243256,0.9091247916221619,3.012317180633545,0.23068426549434662,-1.224299430847168,1.975566029548645,3.987639904022217,0.32699212431907654,0.2380286157131195,0.19976399838924408,-1.3355985879898071
384,22576,22570,0.11090531200170517,-0.13149555027484894,1.0068129301071167,2.5795743465423584,-1.2909858226776123,-1.9562369585037231,1.97565495967865,3.98807430267334,0.32742708921432495,0.24358275532722473,0.17411933839321136,-1.3426190614700317
385,22586,22580,0.07034411281347275,-0.03916143625974655,0.9542381763458252,0.4107655882835388,1.6240845918655396,-2.524432897567749,1.9762085676193237,3.9889273643493652,0.3290165960788727,0.15238623321056366,0.20821748673915863,-1.332664966583252
386,22596,22590,0.04522867128252983,0.1995663344860077,0.938608705997467,0.5344104170799255,-2.7078492641448975,-1.8130598068237305,1.978055715560913,3.9887330532073975,0.3293212652206421,0.25496482849121094,0.2341478168964386,-1.333158016204834
387,22606,22600,0.07965310662984848,0.051364973187446594,0.8745209574699402,-0.12251690030097961,-2.66103196144104,-2.613612174987793,1.9778223037719727,3.989407777786255,0.32973846793174744,0.28171342611312866,0.24909357726573944,-1.3287211656570435
388,22616,22610,0.08722440153360367,-0.014615959487855434,0.9017595648765564,-0.3859475553035736,-3.70965576171875,-2.5512185096740723,1.9785466194152832,3.988980770111084,0.32997021079063416,0.285787969827652,0.2515566945075989,-1.3530991077423096
389,22626,22620,0.05177902430295944,-0.017525646835565567,0.9375542998313904,1.2405236959457397,-2.6702871322631836,-1.1225676536560059,1.9797074794769287,3.9895434379577637,0.330035537481308,0.07273520529270172,0.26849624514579773,-1.4238057136535645
390,22636,22630,0.03444289043545723,0.05163898319005966,1.0075680017471313,1.0081145763397217,0.48482179641723633,-1.6798290014266968,1.9820281267166138,3.9891626834869385,0.3299170732498169,0.10245446860790253,0.2730550467967987,-1.3923617601394653
391,22646,22640,0.15180355310440063,0.09257983416318893,0.9640658497810364,1.185013771057129,-1.037056565284729,-1.3489714860916138,1.9828673601150513,3.9891912937164307,0.329949289560318,0.1170634850859642,0.2935533821582794,-1.409581184387207
392,22656,22650,0.11083460599184036,-0.08972390741109848,0.860676109790802,0.09743426740169525,-1.571028232574463,-2.494567394256592,1.9823176860809326,3.98907470703125,0.32641535997390747,0.21556653082370758,0.3135230243206024,-1.4187421798706055
393,22666,22660,-0.05583156645298004,0.09626881778240204,0.9892058372497559,1.2700215578079224,-4.469086647033691,-1.6819546222686768,1.98312509059906,3.9895050525665283,0.32612380385398865,0.2547825276851654,0.25364381074905396,-1.4461463689804077
394,22676,22670,0.029168162494897842,-0.05400174856185913,0.9119940400123596,-0.49980729818344116,-0.3486867845058441,-2.09334135055542,1.9832936525344849,3.989858388900757,0.3258547782897949,0.4081396758556366,0.2825358808040619,-1.4353716373443604
395,22686,22680,-0.005886109080165625,-0.07732484489679337,0.9739884734153748,-0.9308752417564392,0.9367576241493225,-1.5532526969909668,1.9865882396697998,3.989368200302124,0.3243529498577118,0.14996671676635742,0.2826513946056366,-1.4947410821914673
396,22696,22690,0.02744722180068493,0.04414858669042587,1.0554533004760742,-0.7264862060546875,1.7804571390151978,-1.7949728965759277,1.9863694906234741,3.9892661571502686,0.32394614815711975,0.1998511701822281,0.2716018557548523,-1.5630509853363037
397,22706,22700,-0.015581028535962105,0.047900017350912094,0.9642161726951599,-0.06995765119791031,1.1258832216262817,-1.3673218488693237,1.9864857196807861,3.9886057376861572,0.3235107958316803,0.23937177658081055,0.26220595836639404,-1.577502965927124
398,22716,22710,-0.06722835451364517,0.9153853058815002,1.1165430545806885,1.4620766639709473,-0.31504344940185547,-1.3771216869354248,1.986029863357544,3.9860997200012207,0.3240218460559845,0.22113560140132904,0.3435806930065155,-1.6475738286972046
399,22726,22720,-0.09630019217729568,0.7624790072441101,1.020904779434204,0.3543022572994232,0.5471291542053223,-1.2131426334381104,1.9866273403167725,3.9877517223358154,0.3236541450023651,0.2349146604537964,0.28540530800819397,-1.6416442394256592
400,22736,22730,-0.13344115018844604,0.24707475304603577,1.1233359575271606,-0.051546886563301086,2.9142870903015137,-2.072951078414917,1.9887558221817017,3.9874913692474365,0.3232234716415405,0.08969973027706146,0.2906864583492279,-1.648594617843628
401,22746,22740,-0.08333098888397217,-0.060975294560194016,1.016663670539856,-0.6025729775428772,3.5386507511138916,-1.758989930152893,1.9891242980957031,3.988020181655884,0.326064795255661,0.16079778969287872,0.2848091125488281,-1.6387602090835571
402,22756,22750,-0.034636929631233215,0.33237969875335693,1.0336525440216064,-1.2588725090026855,3.7556796073913574,-2.2419331073760986,1.9890772104263306,3.988551139831543,0.326079785823822,0.22885270416736603,0.2712952494621277,-1.6345380544662476
403,22766,22760,0.04614168778061867,0.039838697761297226,0.9427593946456909,-0.9302018880844116,2.8384532928466797,-2.1680359840393066,1.990349531173706,3.9880104064941406,0.32600176334381104,0.11391280591487885,0.2529510259628296,-1.7127879858016968
404,22776,22770,-0.050467658787965775,-0.011112900450825691,0.9869028329849243,-0.7657345533370972,1.4736567735671997,-1.5831451416015625,1.9923079013824463,3.987781524658203,0.325900137424469,0.01575484313070774,0.23892280459403992,-1.7274653911590576
405,22786,22780,-0.02600657194852829,0.46634426712989807,1.0395033359527588,-0.3679508566856384,-0.8494218587875366,-1.4089590311050415,1.9922285079956055,3.9873762130737305,0.32385361194610596,0.07032787054777145,0.2330651730298996,-1.763633131980896
406,22796,22790,-0.042560551315546036,0.4066689610481262,1.034105896949768,-0.09054750204086304,-1.9333230257034302,-1.3390460014343262,1.992377519607544,3.9879181385040283,0.3237873315811157,0.16367897391319275,0.23242908716201782,-1.7736996412277222
407,22806,22800,-0.1126120537519455,0.5077303051948547,1.0659271478652954,1.081723690032959,-0.7360516786575317,-1.7469526529312134,1.994104266166687,3.987794876098633,0.3236332833766937,0.1238420382142067,0.2295355349779129,-1.7653833627700806
408,22816,22810,-0.0639401227235794,0.7478576898574829,1.1399575471878052,1.3906766176223755,-0.5013197064399719,-0.8343536853790283,1.9956737756729126,3.9878711700439453,0.32228273153305054,0.05321221426129341,0.243313729763031,-1.7593286037445068
409,22826,22820,-0.0008769765263423324,0.3569837808609009,0.9578431844711304,-0.8625071048736572,-0.1973363608121872,-1.4862593412399292,1.995477318763733,3.988301992416382,0.32230818271636963,0.12570005655288696,0.26352575421333313,-1.7662787437438965
410,22836,22830,-0.0748724639415741,0.8530722260475159,1.099863886833191,-1.0865041017532349,0.37105506658554077,-2.1347508430480957,1.9959429502487183,3.988280773162842,0.322364866733551,0.20534658432006836,0.2538723647594452,-1.7886378765106201
411,22846,22840,-0.10122658312320709,0.31405526399612427,1.0761977434158325,-1.206654667854309,1.701874852180481,-1.5700626373291016,1.9975773096084595,3.988402843475342,0.32013311982154846,0.14425159990787506,0.2331749051809311,-1.8444615602493286
412,22856,22850,-0.15887297689914703,-0.03745346888899803,1.1105417013168335,-0.6089947819709778,4.017343044281006,-1.4160712957382202,1.9994171857833862,3.9862515926361084,0.3200685977935791,0.08888179808855057,0.3638465106487274,-1.848264217376709
413,22866,22860,-0.04458020627498627,-0.06107853725552559,0.9587185382843018,-1.500074863433838,5.639449119567871,-1.9344042539596558,1.9997519254684448,3.986872673034668,0.3201918303966522,0.14369060099124908,0.3365881145000458,-1.8469908237457275
414,22876,22870,-0.07026518881320953,0.24332669377326965,0.9626036882400513,-2.1055328845977783,5.130154609680176,-0.952375054359436,2.000469446182251,3.9873855113983154,0.32029828429222107,0.14822928607463837,0.30053892731666565,-1.800682783126831
415,22886,22880,-0.011709914542734623,0.4707046449184418,0.8626692891120911,-3.383291721343994,3.3029751777648926,-2.207026243209839,2.0024921894073486,3.987450122833252,0.32547736167907715,-0.002556775463744998,0.2210749238729477,-1.7881025075912476
416,22896,22890,0.03788559511303902,0.5330752730369568,0.9910958409309387,-3.2453150749206543,1.0355219841003418,-2.248229503631592,2.0034115314483643,3.9887115955352783,0.32568293809890747,-0.027847470715641975,0.18992964923381805,-1.8157055377960205
417,22906,22900,0.0730213075876236,0.07528914511203766,0.9463468194007874,-2.3855412006378174,-0.24802379310131073,-2.4158565998077393,2.0030226707458496,3.988617181777954,0.3259288966655731,0.12739437818527222,0.2570107877254486,-1.7437046766281128
418,22916,22910,0.017454832792282104,-0.054211001843214035,0.91251540184021,-2.3315634727478027,-0.9433375000953674,-2.744500160217285,2.002953052520752,3.988457202911377,0.3212575316429138,0.12170065194368362,0.2397855967283249,-1.7852401733398438
419,22926,22920,0.02761683613061905,-0.023996582254767418,0.9482681751251221,-1.618556261062622,-0.45081570744514465,-2.2640841007232666,2.0045883655548096,3.9897408485412598,0.3209829330444336,-0.019494526088237762,0.08806915581226349,-1.771909236907959
420,22936,22930,0.08697647601366043,0.12696753442287445,0.919272780418396,0.7675573229789734,-6.403759956359863,-1.9237746000289917,2.005687952041626,3.9891974925994873,0.32061415910720825,-0.041087452322244644,0.06699716299772263,-1.8178118467330933
421,22946,22940,-0.08118835091590881,0.525826632976532,0.9910945296287537,0.5587688684463501,0.8378180861473083,-1.4446988105773926,2.0055112838745117,3.989837646484375,0.31849363446235657,0.10011439025402069,0.06572554260492325,-1.8431649208068848
422,22956,22950,4.802513649337925e-05,1.0011200904846191,1.040534496307373,1.4668251276016235,1.7087068557739258,-1.388588786125183,2.0061490535736084,3.989898204803467,0.3180326223373413,0.06761714071035385,0.07072789967060089,-1.8360806703567505
423,22966,22960,-0.07132971286773682,0.5782175064086914,1.1200288534164429,1.6061294078826904,3.362514019012451,-1.7182228565216064,2.006143569946289,3.990006685256958,0.31768637895584106,0.1166708692908287,0.08973413705825806,-1.8744230270385742
424,22976,22970,-0.048324450850486755,0.006803239695727825,0.9710346460342407,1.1619994640350342,5.236751079559326,-1.3884907960891724,2.008232593536377,3.989295244216919,0.31726500391960144,-0.030389107763767242,0.11303843557834625,-1.8658391237258911
425,22986,22980,-0.04918339103460312,0.3320309817790985,0.9771868586540222,-0.187399759888649,4.392054080963135,-1.3471386432647705,2.0097973346710205,3.988852024078369,0.3167278468608856,-0.21304984390735626,0.12420446425676346,-1.93119215965271
426,22996,22990,-0.04238887503743172,0.45999279618263245,0.9797855019569397,0.09356549382209778,1.57595694065094,-1.3141065835952759,2.010211944580078,3.9892220497131348,0.3164142966270447,-0.19986671209335327,0.11477691680192947,-1.941882610321045
427,23006,23000,0.033543430268764496,-0.03532576560974121,0.9772566556930542,-0.7872327566146851,2.4873900413513184,-1.9840388298034668,2.0099904537200928,3.9882123470306396,0.3160753846168518,-0.16320018470287323,0.1768321394920349,-1.9976462125778198
428,23016,23010,-0.04745384678244591,-0.06336957216262817,1.0419005155563354,0.4893941879272461,-0.24790893495082855,-0.7376744747161865,2.0109126567840576,3.987704038619995,0.3104371130466461,-0.0905008390545845,0.160170316696167,-2.0543315410614014
429,23026,23020,-0.005501041654497385,-0.08901312202215195,0.9607429504394531,0.8119900226593018,1.8612691164016724,-0.5767543911933899,2.0106453895568848,3.9872422218322754,0.30974704027175903,-0.09071726351976395,0.16162829101085663,-2.032754898071289
430,23036,23030,0.006466335617005825,-0.015163930132985115,0.974068284034729,-0.12947708368301392,-1.6989651918411255,0.29754558205604553,2.011434316635132,3.987190008163452,0.30902746319770813,-0.17154031991958618,0.15009647607803345,-1.990820288658142
431,23046,23040,0.07183999568223953,-0.04847434163093567,0.9951727986335754,-0.8472702503204346,-1.2982627153396606,-0.045204129070043564,2.01289963722229,3.9882519245147705,0.30686891078948975,-0.23120184242725372,0.13350233435630798,-1.9700511693954468
432,23056,23050,-0.010985149070620537,-0.004962622653692961,0.9917900562286377,-3.319169044494629,-3.169271230697632,0.5930885076522827,2.013749122619629,3.9883742332458496,0.30596333742141724,-0.2039594054222107,0.0912981852889061,-1.9595574140548706
433,23066,23060,-0.01619028113782406,0.010360455140471458,1.0495575666427612,-2.7886719703674316,-1.9635248184204102,-0.2320249378681183,2.014221429824829,3.988839864730835,0.30515536665916443,-0.18364019691944122,0.06641653925180435,-1.9625493288040161
434,23076,23070,-0.014121332205832005,0.10510221868753433,1.0336143970489502,-1.5066313743591309,0.0415271557867527,0.10312789678573608,2.0145950317382812,3.987668991088867,0.3038748800754547,-0.06830412894487381,0.13284434378147125,-1.9066288471221924
435,23086,23080,0.0068227737210690975,0.09997888654470444,1.080169677734375,-0.5254384875297546,4.21599006652832,-0.27532798051834106,2.014317035675049,3.98785138130188,0.303143173456192,-0.18458378314971924,0.16887885332107544,-1.9012293815612793
436,23096,23090,0.023840406909585,0.048145100474357605,1.03531014919281,-1.6528199911117554,-3.1170365810394287,0.1979946792125702,2.0156354904174805,3.987603187561035,0.30234506726264954,-0.11661570519208908,0.2030378133058548,-1.91267991065979
437,23106,23100,-0.010135979391634464,-0.1381169855594635,1.0477824211120605,-1.495103120803833,2.2001233100891113,0.6474844217300415,2.014552116394043,3.986518383026123,0.3017214238643646,-0.2570391595363617,0.1511176973581314,-1.8826864957809448
438,23116,23110,-0.07616425305604935,-0.13176177442073822,0.9904123544692993,-1.7232725620269775,5.453029155731201,0.4846150577068329,2.016634464263916,3.9869117736816406,0.2993525266647339,-0.2130584418773651,0.10268086940050125,-1.7824307680130005
439,23126,23120,-0.037130240350961685,-0.03781157732009888,1.032749056816101,-4.92138671875,3.5421180725097656,-0.24726562201976776,2.017047882080078,3.9886815547943115,0.2987099289894104,-0.20731642842292786,0.18727950751781464,-1.7634202241897583
440,23136,23130,-0.02949712611734867,-0.18207387626171112,0.9912258982658386,-5.241663455963135,1.9026869535446167,-0.06076723337173462,2.0173022747039795,3.9874517917633057,0.29803916811943054,-0.3268836736679077,0.07717426866292953,-1.741178035736084
441,23146,23140,-0.02300221659243107,-0.04555908218026161,1.030677318572998,-5.087639331817627,-1.0056800842285156,-0.42505788803100586,2.0187199115753174,3.9883170127868652,0.29484301805496216,-0.3533364534378052,0.02498464658856392,-1.741204857826233
442,23156,23150,-0.02756129391491413,0.04989197850227356,1.117441177368164,-2.4886412620544434,-1.9775919914245605,-1.406158685684204,2.017742156982422,3.9884519577026367,0.29411208629608154,-0.23603717982769012,0.03681425005197525,-1.711303472518921
443,23166,23160,-0.017601685598492622,-0.02639409527182579,0.9662588238716125,-2.4843199253082275,-0.3466276526451111,-0.6319775581359863,2.018320322036743,3.9878294467926025,0.2934194505214691,-0.2866310477256775,-0.046962250024080276,-1.7889623641967773
444,23176,23170,-0.03511083498597145,-0.04846281558275223,1.0191853046417236,-2.075256824493408,-0.07658044993877411,-0.1614094376564026,2.0190958976745605,3.9877450466156006,0.29204946756362915,-0.2782159745693207,-0.0725703164935112,-1.7254084348678589
445,23186,23180,0.018847011029720306,-0.03879690170288086,1.0367177724838257,-0.1641073226928711,-0.5416225790977478,0.23172929883003235,2.0195460319519043,3.98819899559021,0.2913326621055603,-0.24481043219566345,-0.13166998326778412,-1.7008979320526123
446,23196,23190,-0.038230620324611664,0.026152420789003372,1.103436827659607,0.12770423293113708,1.0300803184509277,-0.49950963258743286,2.0199992656707764,3.9882030487060547,0.29061654210090637,-0.2985994815826416,-0.0340111218392849,-1.6679232120513916
447,23206,23200,-0.02584191784262657,-0.026001136749982834,1.0895875692367554,-0.42785176634788513,1.251761794090271,-0.3947349488735199,2.021440029144287,3.987107276916504,0.2899225354194641,-0.4440512955188751,0.009771804325282574,-1.6955293416976929
448,23216,23210,-0.01626688987016678,0.01610751263797283,1.122391939163208,-0.7064735889434814,2.5570051670074463,-0.8188657760620117,2.0234553813934326,3.98691987991333,0.2875189185142517,-0.3478621244430542,-0.03713180869817734,-1.6626708507537842
449,23226,23220,-0.012139483354985714,-0.05295606330037117,1.0605556964874268,-3.3137929439544678,0.040231652557849884,-0.25025948882102966,2.0238192081451416,3.9873533248901367,0.28707990050315857,-0.3688703775405884,-0.05021996423602104,-1.6441847085952759
450,23236,23230,0.06256673485040665,-0.1693955510854721,1.029536485671997,-4.332648277282715,-2.0547566413879395,-0.4220489263534546,2.0261905193328857,3.9868435859680176,0.2864081561565399,-0.4220172166824341,-0.12833283841609955,-1.581870198249817
451,23246,23240,-0.0477987565100193,-0.02675764262676239,1.088912844657898,-4.304256916046143,-3.6662003993988037,-0.8256478309631348,2.0257151126861572,3.987927198410034,0.28599148988723755,-0.3558255434036255,-0.15243399143218994,-1.5704115629196167
452,23256,23250,-0.03705987706780434,0.006880883127450943,1.1268911361694336,-4.342270851135254,-6.466483116149902,-0.7841371297836304,2.025137186050415,3.987452268600464,0.2860739231109619,-0.25643056631088257,-0.255668967962265,-1.58245849609375
453,23266,23260,-0.027311529964208603,-0.059661030769348145,1.0618438720703125,-5.238914966583252,-3.498940944671631,-1.1714260578155518,2.026154041290283,3.988677501678467,0.2856508195400238,-0.19874735176563263,-0.29957297444343567,-1.5686404705047607
454,23276,23270,0.00919464509934187,-0.17653411626815796,1.0500210523605347,-2.664032459259033,-6.0096282958984375,0.4733900725841522,2.0247316360473633,3.9886720180511475,0.285837858915329,-0.03115425445139408,-0.3287622928619385,-1.5295697450637817
455,23286,23280,0.041903141885995865,-0.23855146765708923,0.9937183260917664,0.2408873587846756,-3.4183812141418457,-0.17583802342414856,2.0289738178253174,3.98779034614563,0.28555071353912354,-0.3069600462913513,-0.2822108864784241,-1.4339874982833862
456,23296,23290,0.03897213190793991,-0.08333287388086319,0.9556983709335327,0.1357426941394806,-0.5383422374725342,-1.368199110031128,2.029400110244751,3.9889254570007324,0.28554290533065796,-0.275023490190506,-0.27984529733657837,-1.445210576057434
457,23306,23300,-0.011485449969768524,-0.009304952807724476,1.0566110610961914,1.4729700088500977,-0.4073142409324646,-0.6540673971176147,2.030853271484375,3.9877827167510986,0.28531593084335327,-0.21090488135814667,-0.30698734521865845,-1.5067172050476074
458,23316,23310,-0.029774492606520653,0.10614627599716187,1.1230725049972534,-0.037721067667007446,-4.399412155151367,0.4909539222717285,2.0308704376220703,3.987536668777466,0.28623172640800476,-0.20211434364318848,-0.2610704004764557,-1.4338923692703247
459,23326,23320,-0.10659576952457428,0.15603455901145935,1.2056481838226318,-3.2627315521240234,-0.19005675613880157,0.5504809617996216,2.032186269760132,3.988243579864502,0.28621017932891846,-0.15979747474193573,-0.2593314051628113,-1.384760856628418
460,23336,23330,-0.016116689890623093,-0.030506564304232597,1.0353732109069824,-3.862713098526001,0.14996378123760223,0.2101595550775528,2.03222393989563,3.9891674518585205,0.286497563123703,-0.09000630676746368,-0.3156270384788513,-1.3446816205978394
461,23346,23340,0.0025415802374482155,-0.09027714282274246,0.9186762571334839,-4.669315814971924,0.3115828037261963,-0.33097824454307556,2.033216953277588,3.989621162414551,0.2874771058559418,-0.09768681973218918,-0.3616478145122528,-1.2881790399551392
462,23356,23350,-0.04596581310033798,0.1364631950855255,1.0626410245895386,-2.849107503890991,0.040410298854112625,-1.0058817863464355,2.0332512855529785,3.9902851581573486,0.2879612147808075,-0.12167146056890488,-0.4250333309173584,-1.2713364362716675
463,23366,23360,-0.08603522926568985,0.17746295034885406,1.0542243719100952,-1.7009638547897339,-0.5491893291473389,-0.0011521977139636874,2.0351767539978027,3.9904634952545166,0.2882033884525299,-0.011724923737347126,-0.48313096165657043,-1.2753108739852905
464,23376,23370,-0.04370955377817154,0.03586152195930481,1.023315191268921,1.387809157371521,-3.3623807430267334,1.4051167964935303,2.0342509746551514,3.9902586936950684,0.2904191315174103,-0.18321608006954193,-0.35332927107810974,-1.238676905632019
465,23386,23380,-0.01993037946522236,-0.10415838658809662,0.9325356483459473,3.3670670986175537,-3.49053955078125,1.886254906654358,2.036281108856201,3.9894015789031982,0.2908577024936676,-0.152366042137146,-0.3369293212890625,-1.2098166942596436
466,23396,23390,-0.010110227391123772,0.027642231434583664,1.0531567335128784,3.0565567016601562,-0.18802039325237274,1.727006196975708,2.0366404056549072,3.98941707611084,0.291398823261261,-0.06556001305580139,-0.3112926185131073,-1.1568044424057007
467,23406,23400,0.02842223085463047,0.07409012317657471,1.0079481601715088,3.032085418701172,-3.9182310104370117,1.953784704208374,2.0365450382232666,3.9894027709960938,0.29200953245162964,-0.11992297321557999,-0.2982766032218933,-1.0946178436279297
468,23416,23410,-0.05080750212073326,0.006188885308802128,1.0497698783874512,0.5988442301750183,-2.509669780731201,0.9703224897384644,2.038660764694214,3.989687204360962,0.29586291313171387,0.053055647760629654,-0.2969437539577484,-1.0748014450073242
469,23426,23420,-0.06150278449058533,0.023898769170045853,1.0113844871520996,-2.409837245941162,-0.16218702495098114,0.8255271911621094,2.038620948791504,3.989152669906616,0.2967566251754761,0.0692259818315506,-0.2968912720680237,-1.0832200050354004
470,23436,23430,0.05325838550925255,0.0237306896597147,0.9884982109069824,-4.267190456390381,-3.5116357803344727,1.383256196975708,2.0392072200775146,3.989928960800171,0.2975980341434479,0.13755430281162262,-0.3355214595794678,-1.107369065284729
471,23446,23440,-0.07289808988571167,0.2613135576248169,1.0652685165405273,-3.205167531967163,-0.5070231556892395,2.2047741413116455,2.0395891666412354,3.988746166229248,0.29721489548683167,0.03057892620563507,-0.3451164662837982,-1.0425955057144165
472,23456,23450,-0.03422059118747711,-0.10181763023138046,0.9273364543914795,-2.414515972137451,0.5618589520454407,2.134486436843872,2.0413920879364014,3.9885737895965576,0.29785698652267456,0.06977007538080215,-0.4179968535900116,-1.0551484823226929
473,23466,23460,-0.023059502243995667,-0.026143105700612068,1.0305241346359253,-1.9182864427566528,2.062471628189087,2.10690975189209,2.0418331623077393,3.9884042739868164,0.29865652322769165,0.1677934229373932,-0.3966211676597595,-1.0552042722702026
474,23476,23470,0.013042702339589596,0.08849722892045975,0.9099131226539612,-0.6439009308815002,2.5135152339935303,2.2184998989105225,2.041217088699341,3.987396478652954,0.3009381890296936,0.1484363079071045,-0.41544049978256226,-1.0213593244552612
475,23486,23480,-0.08948461711406708,0.681114912033081,1.0918267965316772,1.098824143409729,3.72287654876709,2.1323938369750977,2.0440027713775635,3.987553834915161,0.3015609383583069,-0.013130241073668003,-0.45946791768074036,-1.0044593811035156
476,23496,23490,-0.07014131546020508,0.09544458240270615,0.9060259461402893,2.17413067817688,1.2719683647155762,2.4816746711730957,2.0440046787261963,3.9877047538757324,0.30240127444267273,-0.02735426463186741,-0.45083943009376526,-0.9311582446098328
477,23506,23500,-0.09394758194684982,-0.020579205825924873,0.9556241035461426,2.774003505706787,-5.09807825088501,2.484299898147583,2.044828176498413,3.9877095222473145,0.3060334026813507,0.036339666694402695,-0.42471370100975037,-0.8983829617500305
478,23516,23510,-0.061965033411979675,0.01268269494175911,0.9138150215148926,1.6057453155517578,-2.369515895843506,2.2290866374969482,2.045311689376831,3.988248109817505,0.3069397211074829,0.09463577717542648,-0.3972819745540619,-0.8651639819145203
