,timestamp_start,timestamp_end,acc.x,acc.y,acc.z,gyro.x,gyro.y,gyro.z,stateEstimate.x,stateEstimate.y,stateEstimate.z,stabilizer.pitch,stabilizer.roll,stabilizer.yaw
0,31188,31184,0.027623184025287628,-0.07681897282600403,1.0176492929458618,-3.0963168144226074,0.9086071252822876,-0.315929651260376,1.983613133430481,4.072131156921387,0.1850995570421219,0.9530757665634155,0.7676272988319397,3.529381275177002
1,31198,31194,-0.015181364491581917,-0.1747923195362091,1.0035746097564697,-3.055664539337158,0.7995448708534241,-0.5695250034332275,1.9823718070983887,4.073855876922607,0.18716584146022797,0.8826382160186768,0.7530974745750427,3.511248826980591
2,31208,31204,-0.06264524906873703,-0.038637615740299225,1.0177687406539917,-3.342216968536377,1.0067287683486938,-0.37220361828804016,1.9822773933410645,4.074723243713379,0.19013187289237976,1.1146234273910522,0.7310376167297363,3.537773370742798
3,31218,31214,0.020878296345472336,-0.021362081170082092,1.0019515752792358,-3.8837454319000244,1.7334082126617432,-0.8109432458877563,1.9812819957733154,4.074853897094727,0.1921783983707428,1.1351972818374634,0.6932723522186279,3.5376384258270264
4,31228,31224,-0.009777354076504707,0.0656573697924614,1.009017825126648,-3.3620266914367676,2.806529998779297,-1.2240781784057617,1.9807238578796387,4.074592113494873,0.19421826303005219,1.42100989818573,0.7303549647331238,3.5632927417755127
5,31238,31234,0.06356025487184525,-0.06640368700027466,0.9770687222480774,-2.10286545753479,4.794688701629639,-1.3463724851608276,1.9783964157104492,4.073555946350098,0.19579684734344482,1.415411114692688,0.7024783492088318,3.555811643600464
6,31248,31244,0.008649484254419804,-0.05509144440293312,1.0086697340011597,-2.9816102981567383,12.585258483886719,-0.9666754603385925,1.9767403602600098,4.0736403465271,0.1967698335647583,-0.004317720886319876,0.672508180141449,3.352346658706665
7,31258,31254,0.048637595027685165,-0.06073370948433876,1.0143227577209473,-4.582671165466309,18.43501853942871,-0.411224901676178,1.9853739738464355,4.073184490203857,0.2020341157913208,0.030741011723876,0.5383501052856445,3.3861680030822754
8,31268,31264,0.08719256520271301,-0.13229244947433472,1.0279324054718018,-5.610321044921875,13.693921089172363,-0.284059077501297,1.983534574508667,4.0709075927734375,0.20507660508155823,-0.15251290798187256,0.467780202627182,3.3902745246887207
9,31278,31274,0.07830622792243958,-0.11738098412752151,1.0295861959457397,-5.914348125457764,3.587482452392578,-1.0429024696350098,1.9837907552719116,4.074134349822998,0.20752698183059692,-0.11483386904001236,0.38807645440101624,3.4021613597869873
10,31288,31284,0.0016958415508270264,5.224940468906425e-05,1.0130984783172607,-3.8878273963928223,-6.889305114746094,-1.0912413597106934,1.9826571941375732,4.076902866363525,0.21006640791893005,-0.21621781587600708,0.33478209376335144,3.3757379055023193
11,31298,31294,0.031061965972185135,-0.03227587789297104,0.9923441410064697,-1.307528018951416,-17.210628509521484,-1.5160834789276123,1.984389305114746,4.0788187980651855,0.21220797300338745,-0.06036445498466492,0.0981030985713005,3.3634510040283203
12,31308,31304,0.04493807628750801,-0.004481462761759758,0.9483227133750916,1.4141651391983032,-21.41737937927246,-1.5678988695144653,1.9832123517990112,4.07975435256958,0.2124127298593521,1.9002362489700317,0.30413517355918884,3.538356065750122
13,31318,31314,0.011046353727579117,-0.02943432331085205,0.9993460774421692,3.5341479778289795,-22.694320678710938,-2.5535528659820557,1.9701474905014038,4.077638149261475,0.2169889360666275,2.8333535194396973,-0.20976360142230988,3.6207962036132812
14,31328,31324,0.014280763454735279,0.0009339339449070394,0.9842753410339355,4.750857830047607,-10.0418701171875,-2.538475751876831,1.9620622396469116,4.081342697143555,0.21483710408210754,2.6108171939849854,-0.03483466058969498,3.547964096069336
15,31338,31334,0.001406081602908671,-0.027135014533996582,1.0092346668243408,4.914332866668701,11.544926643371582,-2.5205395221710205,1.9628984928131104,4.079916000366211,0.22100405395030975,2.336949586868286,0.12591241300106049,3.482820510864258
16,31348,31344,-0.0014957851963117719,-0.03976234793663025,1.0437862873077393,5.501275062561035,42.65995407104492,-2.662285327911377,1.9614372253417969,4.077551364898682,0.2195298969745636,2.1799628734588623,0.07234351336956024,3.4816811084747314
17,31358,31354,-0.012441473081707954,-0.03222651779651642,1.0107769966125488,5.053463935852051,61.79500961303711,-3.082943916320801,1.9590073823928833,4.07403039932251,0.2221585214138031,1.5092054605484009,0.2984079122543335,3.408418655395508
18,31368,31364,0.01849520206451416,0.016934555023908615,0.9996484518051147,4.487544536590576,69.67374420166016,-3.130599021911621,1.959428071975708,4.070034980773926,0.22559402883052826,0.7251426577568054,0.3488660454750061,3.370431900024414
19,31378,31374,0.005308105144649744,-0.005057027563452721,0.9911109209060669,2.426147699356079,61.77355194091797,-3.297592878341675,1.9599852561950684,4.069956302642822,0.22564004361629486,0.2655631899833679,0.4546307623386383,3.3453524112701416
20,31388,31384,-0.010168436914682388,0.016115562990307808,0.9501175284385681,0.8536511063575745,42.55232620239258,-3.2585790157318115,1.957203984260559,4.070436954498291,0.22774448990821838,-0.5257521867752075,0.52632737159729,3.307173490524292
21,31398,31394,0.009334352798759937,0.1023814007639885,0.9413807988166809,-0.39673054218292236,19.259492874145508,-3.770958662033081,1.9570950269699097,4.07019567489624,0.22980159521102905,-1.203433871269226,0.637141227722168,3.26114559173584
22,31408,31404,-0.014102598652243614,0.052939966320991516,0.9747745990753174,-1.2389640808105469,-2.7445411682128906,-3.7610411643981934,1.9576685428619385,4.068283557891846,0.23039506375789642,-1.5542157888412476,0.6362659931182861,3.2217934131622314
23,31418,31414,-0.0063588619232177734,-0.006946838926523924,0.9720312356948853,-2.088684558868408,-20.118501663208008,-3.4428513050079346,1.9566012620925903,4.067241668701172,0.23212431371212006,-1.5526206493377686,0.6226292252540588,3.1888468265533447
24,31428,31424,0.03026173822581768,-0.034267447888851166,0.9351786375045776,-3.0548489093780518,-28.43292808532715,-3.5046486854553223,1.9546445608139038,4.065648078918457,0.23401327431201935,-1.371559977531433,0.7450751066207886,3.1644396781921387
25,31438,31434,0.008892624638974667,-0.011542454361915588,0.9769322872161865,-3.53365159034729,-27.442310333251953,-3.2329156398773193,1.9515630006790161,4.06144905090332,0.23572252690792084,-1.2186065912246704,0.7618892788887024,3.1221020221710205
26,31448,31444,0.06088864803314209,-0.09278764575719833,0.9476479887962341,-5.768354415893555,-17.799598693847656,-2.8026723861694336,1.952450156211853,4.06166934967041,0.23609283566474915,-1.0156375169754028,0.6732322573661804,3.0697975158691406
27,31458,31454,0.03148943930864334,-0.04335197061300278,0.9691809415817261,-9.280426025390625,-5.772030830383301,-3.2810311317443848,1.952431559562683,4.062389373779297,0.2377273589372635,-0.8143311738967896,0.5498549938201904,3.0269370079040527
28,31468,31464,-0.01181858591735363,0.01631750538945198,1.0063716173171997,-10.4998197555542,3.6583364009857178,-3.1531119346618652,1.9511306285858154,4.062175750732422,0.23937739431858063,-1.0887929201126099,0.46382978558540344,2.9613828659057617
29,31478,31474,-0.022726790979504585,-0.10648475587368011,1.0240734815597534,-9.822747230529785,10.917101860046387,-3.5138967037200928,1.9529898166656494,4.06143856048584,0.24112960696220398,-1.1738144159317017,0.35945814847946167,2.922889232635498
30,31488,31484,0.007526105269789696,-0.11847488582134247,0.9981889724731445,-7.725687503814697,11.657423973083496,-4.046329975128174,1.9522253274917603,4.061442852020264,0.24258172512054443,-1.2560397386550903,0.19595521688461304,2.8783793449401855
31,31498,31494,0.018824923783540726,-0.03819917514920235,0.9664342403411865,-4.559751987457275,4.9706130027771,-4.50221586227417,1.952227234840393,4.061911106109619,0.24419580399990082,-1.099475622177124,0.5219765305519104,2.942213773727417
32,31508,31504,0.07453690469264984,0.006650695577263832,0.9140227437019348,-1.19614839553833,-4.685710430145264,-4.304408550262451,1.9500789642333984,4.05658483505249,0.24249954521656036,-1.3977783918380737,-0.05414487421512604,2.773191452026367
33,31518,31514,0.025956040248274803,0.00013529973512049764,0.9859232306480408,1.5000431537628174,-15.795527458190918,-3.90535044670105,1.951660394668579,4.060815811157227,0.2443302869796753,-1.0401298999786377,0.09175138175487518,2.7862799167633057
34,31528,31524,0.020246563479304314,-0.008779322728514671,0.9905802011489868,4.620031356811523,-20.98345375061035,-3.5391595363616943,1.9488216638565063,4.061357498168945,0.24610689282417297,-1.4477431774139404,0.34084707498550415,2.768819808959961
35,31538,31534,0.09196259081363678,-0.12637005746364594,0.95944744348526,4.8759870529174805,-20.603866577148438,-3.352126359939575,1.9532413482666016,4.058867454528809,0.24708327651023865,-1.0660309791564941,0.5913447737693787,2.7903454303741455
36,31548,31544,0.08807536959648132,-0.20782510936260223,0.941318154335022,-0.4048973619937897,-20.10409927368164,-3.940074920654297,1.9514706134796143,4.056342601776123,0.2484094351530075,-0.9906149506568909,0.7258540391921997,2.767080545425415
37,31558,31554,0.04243628680706024,-0.2415437251329422,0.9615728855133057,-9.106507301330566,-16.745716094970703,-4.466066360473633,1.950247883796692,4.051494121551514,0.24936291575431824,-0.7844697833061218,0.6049871444702148,2.697218656539917
38,31568,31564,-0.006494937930256128,-0.02398393489420414,1.0047444105148315,-16.62403106689453,-13.371236801147461,-5.134758949279785,1.9462239742279053,4.044826507568359,0.2507076561450958,-0.5472360849380493,0.5145173072814941,2.650193691253662
39,31578,31574,-0.017722390592098236,-0.034473493695259094,0.9672881960868835,-21.671794891357422,-9.858894348144531,-4.704866886138916,1.9460296630859375,4.043656349182129,0.2516302466392517,-0.4441370368003845,0.3093807101249695,2.5845744609832764
40,31588,31584,-0.03410308063030243,0.015448621474206448,0.9968737959861755,-22.27241325378418,-7.352921962738037,-4.735809803009033,1.9460620880126953,4.04219388961792,0.2527700364589691,-0.3941923677921295,-0.10309132188558578,2.4928383827209473
41,31598,31594,0.0979127585887909,-0.10172124207019806,0.9843103885650635,-17.854604721069336,-4.708414077758789,-4.307008266448975,1.946574330329895,4.044355392456055,0.2539839744567871,-0.3087256848812103,-0.18872308731079102,2.4743459224700928
42,31608,31604,0.023292740806937218,-0.03433086350560188,1.013513445854187,-11.01407527923584,-3.976234197616577,-5.0562849044799805,1.9464235305786133,4.043194770812988,0.25438690185546875,-0.4010540544986725,-0.283641517162323,2.4426074028015137
43,31618,31614,-0.07779201865196228,0.13099879026412964,0.9926223754882812,-1.504622220993042,-5.388615131378174,-4.232117652893066,1.9473876953125,4.041293621063232,0.25539249181747437,-0.25054189562797546,-0.4095219671726227,2.397940158843994
44,31628,31624,-0.022811802104115486,0.0034940612968057394,0.975199282169342,3.05717396736145,-9.633417129516602,-3.5280935764312744,1.9469050168991089,4.041853427886963,0.2565317749977112,-0.14310042560100555,-0.4099337160587311,2.3624107837677
45,31638,31634,-0.008836931549012661,0.020263999700546265,1.013282299041748,4.397557735443115,-9.956053733825684,-4.074099540710449,1.947141170501709,4.042125225067139,0.25742098689079285,-0.1673598289489746,-0.3460809886455536,2.330167770385742
46,31648,31644,-0.02328798547387123,0.06981952488422394,0.9694096446037292,0.41153091192245483,-10.643682479858398,-3.8035194873809814,1.9482414722442627,4.043327331542969,0.25842028856277466,0.05676952004432678,-0.36213064193725586,2.280465841293335
47,31658,31654,-0.03870699554681778,0.03520879149436951,1.0052131414413452,-3.536386489868164,-12.309231758117676,-4.238068580627441,1.9470059871673584,4.044284343719482,0.259520947933197,0.14488816261291504,-0.4233759641647339,2.2348878383636475
48,31668,31664,-0.11558873951435089,-0.0008699506870470941,1.099545955657959,-7.414667129516602,-11.908692359924316,-4.143741607666016,1.947524905204773,4.044369697570801,0.26056233048439026,0.09808101505041122,-0.39656782150268555,2.202894687652588
49,31678,31674,-0.10036015510559082,-0.024919992312788963,1.0893821716308594,-10.093757629394531,-5.571103572845459,-4.393651485443115,1.9493736028671265,4.04381799697876,0.260342538356781,0.3245501220226288,-0.5849929451942444,2.1489508152008057
50,31688,31684,-0.11027548462152481,-0.0029312632977962494,1.1151275634765625,-9.41191291809082,-4.952322006225586,-4.302135467529297,1.9482121467590332,4.0439229011535645,0.26148349046707153,0.3309084475040436,-0.7853925228118896,2.1033360958099365
51,31698,31694,0.006384413223713636,0.025954782962799072,0.9814801812171936,-5.269856929779053,-4.176440715789795,-3.9296789169311523,1.9482923746109009,4.043956279754639,0.2626470923423767,0.3270193338394165,-0.8711851835250854,2.063217878341675
52,31708,31704,0.08870323747396469,0.04965953156352043,0.9447590112686157,0.5173105001449585,-4.579361915588379,-3.9266653060913086,1.9476642608642578,4.042019367218018,0.26385363936424255,0.39516809582710266,-0.8893190622329712,2.024155616760254
53,31718,31714,0.007124103605747223,0.010958977974951267,0.9913184642791748,5.615137100219727,-6.267673969268799,-3.6966712474823,1.9477593898773193,4.042049407958984,0.2650788128376007,0.46331357955932617,-0.8930957317352295,1.9834966659545898
54,31728,31724,0.02419408969581127,0.05842597410082817,0.9675374031066895,9.061976432800293,-8.327391624450684,-3.0133652687072754,1.9472371339797974,4.040740013122559,0.2662303149700165,0.6428791880607605,-0.814818263053894,1.937590479850769
55,31738,31734,0.07983489334583282,0.02088944800198078,0.9788151383399963,8.930588722229004,-7.723606109619141,-2.7738873958587646,1.946237325668335,4.040842056274414,0.26862627267837524,0.6737377643585205,-0.6986402869224548,1.9138082265853882
56,31748,31744,0.16878020763397217,-0.05139525979757309,0.9159775972366333,6.589274883270264,-9.312215805053711,-3.040287494659424,1.9468073844909668,4.0412116050720215,0.26981431245803833,0.7066885828971863,-0.669593095779419,1.8919509649276733
57,31758,31754,0.01128467544913292,-0.10665109753608704,0.9819399118423462,1.8072255849838257,-8.65945053100586,-3.0767924785614014,1.9467768669128418,4.042090892791748,0.27096104621887207,0.7581343054771423,-0.6032861471176147,1.867465615272522
58,31768,31764,0.010552125051617622,-0.0812288150191307,0.9621103405952454,-1.5677145719528198,-6.363248348236084,-3.594228506088257,1.9466303586959839,4.042628288269043,0.2720998227596283,0.7915690541267395,-0.7488459944725037,1.8469904661178589
59,31778,31774,0.040578484535217285,-0.18389259278774261,0.9397287964820862,-4.717470645904541,-4.873963356018066,-3.625237464904785,1.9470298290252686,4.045134544372559,0.2734487056732178,0.9536513686180115,-0.7845110297203064,1.8039439916610718
60,31788,31784,-0.002353101735934615,-0.05653358995914459,0.999460756778717,-3.5404083728790283,-3.8811757564544678,-3.7525808811187744,1.946348786354065,4.045803546905518,0.27450597286224365,0.9302616715431213,-0.7639294266700745,1.7729122638702393
61,31798,31794,0.01612122543156147,-0.049904994666576385,0.9722257256507874,0.8999314308166504,-2.925041437149048,-3.8459997177124023,1.9473620653152466,4.0435004234313965,0.27552691102027893,1.0426541566848755,-0.7976422309875488,1.726600170135498
62,31808,31804,0.044683996587991714,-0.07919175922870636,0.9351645112037659,6.303678035736084,-1.6743029356002808,-3.5474328994750977,1.9460893869400024,4.041906356811523,0.27665063738822937,1.049119472503662,-0.7590295672416687,1.6865993738174438
63,31818,31814,0.033755943179130554,-0.031728267669677734,0.9647795557975769,9.891383171081543,-2.456847906112671,-3.2151856422424316,1.9464757442474365,4.042856693267822,0.27764639258384705,1.1285698413848877,-0.6443962454795837,1.6353906393051147
64,31828,31824,-0.0049171969294548035,-0.008282816968858242,1.007460355758667,9.935216903686523,-0.5161901116371155,-2.5975239276885986,1.9452781677246094,4.041103363037109,0.278556227684021,1.1914629936218262,-0.7176490426063538,1.6163570880889893
65,31838,31834,-0.0011356089962646365,0.016741542145609856,0.9997889995574951,8.551398277282715,0.9158263802528381,-2.865192174911499,1.9445701837539673,4.042424201965332,0.2779046893119812,1.1487793922424316,-0.5449963212013245,1.5876723527908325
66,31848,31844,0.014146517962217331,-0.013720567338168621,1.0026284456253052,5.3709025382995605,2.082746982574463,-2.836594343185425,1.9443506002426147,4.041342258453369,0.2787521183490753,1.1592243909835815,-0.41347843408584595,1.553956151008606
67,31858,31854,0.013706168159842491,-0.014151109382510185,0.994600236415863,3.464059352874756,3.136423349380493,-2.6636931896209717,1.9432333707809448,4.040286540985107,0.2795163094997406,1.14323091506958,-0.40433627367019653,1.5320909023284912
68,31868,31864,-0.011022367514669895,-0.06761488318443298,1.0002821683883667,0.9201528429985046,3.4877443313598633,-2.6564433574676514,1.9429823160171509,4.041425704956055,0.2804199755191803,1.1116796731948853,-0.344777375459671,1.4971263408660889
69,31878,31874,0.02575056627392769,-0.16460856795310974,0.9822748899459839,-0.580694317817688,3.8354387283325195,-2.777420997619629,1.9416754245758057,4.039242744445801,0.2813681960105896,1.1471506357192993,-0.32646095752716064,1.4634212255477905
70,31888,31884,0.003833773313090205,-0.009358548559248447,0.9854171276092529,-1.3324558734893799,3.6250429153442383,-2.5316507816314697,1.9411143064498901,4.039000988006592,0.2821566164493561,1.163428544998169,-0.40973180532455444,1.4423447847366333
71,31898,31894,-0.004216936416924,0.06780605018138885,0.9669286012649536,-0.20084863901138306,3.344252586364746,-1.9265174865722656,1.9404851198196411,4.0398454666137695,0.2829078733921051,1.107309341430664,-0.4073971211910248,1.4164260625839233
72,31908,31904,-0.0019159303046762943,0.17786827683448792,0.9823492169380188,1.468269944190979,3.958771228790283,-2.0964651107788086,1.9403053522109985,4.039000034332275,0.28368085622787476,1.0512429475784302,-0.3865228295326233,1.394605040550232
73,31918,31914,0.03905298188328743,-0.05305517092347145,0.9684478044509888,4.368281364440918,4.942146301269531,-1.3622539043426514,1.9409446716308594,4.039662837982178,0.28441616892814636,1.0572714805603027,-0.256448358297348,1.3527148962020874
74,31928,31924,-0.012073568999767303,-0.07674452662467957,0.978848397731781,6.013451099395752,4.504612922668457,-1.4891403913497925,1.939766764640808,4.039906024932861,0.28510189056396484,1.1216950416564941,-0.24966301023960114,1.3352313041687012
75,31938,31934,-0.011514617130160332,-0.03238742798566818,0.9603303074836731,5.102202415466309,5.268601894378662,-0.7739759683609009,1.9379500150680542,4.040111064910889,0.28775542974472046,0.7945587635040283,-0.15046517550945282,1.3339067697525024
76,31948,31944,-0.006577982567250729,0.12569878995418549,0.9938930869102478,2.5565311908721924,6.683055877685547,-0.9161921143531799,1.940828800201416,4.03982400894165,0.2886519730091095,0.633961021900177,-0.22859099507331848,1.3503484725952148
77,31958,31954,0.011091883294284344,0.11149744689464569,1.0038344860076904,0.8338404297828674,5.924867630004883,-1.0522074699401855,1.9418710470199585,4.039709091186523,0.2894088923931122,0.5551021695137024,-0.25262776017189026,1.348331093788147
78,31968,31964,-0.01203132327646017,-0.020472442731261253,0.9572502374649048,-0.46861371397972107,3.050948143005371,-1.1572283506393433,1.9421225786209106,4.040796756744385,0.28733086585998535,0.49547746777534485,-0.22307544946670532,1.334662914276123
79,31978,31974,-0.006627128925174475,-0.1395571231842041,0.9602981209754944,0.2255910485982895,-1.1872049570083618,-1.3623026609420776,1.9413031339645386,4.038238048553467,0.2878745496273041,0.48692047595977783,-0.280241996049881,1.3260819911956787
80,31988,31984,-0.0010215205838903785,0.01629776321351528,0.9933087229728699,1.7972056865692139,-4.876284599304199,-1.0549914836883545,1.9414196014404297,4.039120197296143,0.2883962094783783,0.6147716045379639,-0.2400507777929306,1.3002853393554688
81,31998,31994,0.03296961262822151,-0.02351093851029873,0.9380103349685669,4.014619827270508,-6.4088239669799805,-0.8001213073730469,1.9392832517623901,4.03820276260376,0.2889869511127472,0.6997808814048767,-0.17595939338207245,1.2824900150299072
82,32008,32004,0.03775850683450699,-0.029473843052983284,0.9441419839859009,6.309847354888916,-5.156278133392334,-0.5112857222557068,1.9388463497161865,4.03688907623291,0.29123079776763916,0.7863050103187561,-0.15538690984249115,1.2741355895996094
83,32018,32014,0.023144030943512917,-0.007263608276844025,0.9775087237358093,6.638199806213379,-0.8930026888847351,-0.02591669373214245,1.9377400875091553,4.037761211395264,0.29174908995628357,0.7590898275375366,-0.10860292613506317,1.2726491689682007
84,32028,32024,0.019705133512616158,-0.008742907084524632,0.9875369668006897,5.011836051940918,4.623208999633789,-0.2630702257156372,1.93790864944458,4.038426399230957,0.292248398065567,0.7430407404899597,-0.06446222215890884,1.2738527059555054
85,32038,32034,0.006887090392410755,-0.006707672495394945,1.0304166078567505,3.5249903202056885,7.662662029266357,-0.40814265608787537,1.937487006187439,4.038074970245361,0.2933252155780792,0.7312367558479309,0.03712918981909752,1.264363408088684
86,32048,32044,-0.011352604255080223,-0.016273727640509605,1.006466269493103,1.5242141485214233,8.996184349060059,-0.42294278740882874,1.9358407258987427,4.036801338195801,0.293830543756485,0.5959861278533936,0.02925138734281063,1.2663718461990356
87,32058,32054,-0.02797551080584526,0.0395970344543457,1.0239204168319702,0.3194299638271332,7.735472679138184,-0.7494387030601501,1.9361495971679688,4.036919593811035,0.2943775951862335,0.534683108329773,0.07469440996646881,1.2591148614883423
88,32068,32064,-0.0025508487597107887,0.041982151567935944,1.0241312980651855,0.23927585780620575,5.730251789093018,-0.509105920791626,1.935520887374878,4.038159370422363,0.29635438323020935,0.491045743227005,0.027700373902916908,1.2546992301940918
89,32078,32074,-0.009647243656218052,0.07875747978687286,0.997452974319458,1.3118243217468262,2.4546847343444824,-0.26066166162490845,1.9346095323562622,4.038168430328369,0.2969945967197418,0.4809543192386627,0.06420423835515976,1.245953917503357
90,32088,32084,0.006820794194936752,-0.049504898488521576,0.987912654876709,3.094088315963745,0.5381376147270203,0.29934796690940857,1.9337745904922485,4.038093090057373,0.2976718544960022,0.43233686685562134,0.11803542822599411,1.2401175498962402
91,32098,32094,0.05614291504025459,-0.006396550685167313,0.9433319568634033,3.881469964981079,-0.8809792399406433,0.34855061769485474,1.9340516328811646,4.038199424743652,0.29833972454071045,0.41048571467399597,0.18651001155376434,1.2409894466400146
92,32108,32104,0.0641549751162529,-0.014013316482305527,0.9275904893875122,4.606590270996094,-0.6077273488044739,0.5766319632530212,1.9343537092208862,4.0384416580200195,0.3016737401485443,0.40708068013191223,0.19141681492328644,1.248355507850647
93,32118,32114,0.03808639198541641,-0.02929532527923584,0.9757264852523804,3.4377663135528564,1.5946942567825317,0.565333366394043,1.933997392654419,4.039229393005371,0.30250224471092224,0.3906492590904236,0.27923890948295593,1.2516610622406006
94,32128,32124,-0.01201095711439848,-0.017408372834324837,1.0227810144424438,0.8281506299972534,5.338870048522949,0.4037601351737976,1.934467077255249,4.038536548614502,0.3032208979129791,0.4786774516105652,0.2538805305957794,1.262375831604004
95,32138,32134,-0.009694637730717659,0.002980161691084504,0.9851465821266174,-1.2765252590179443,13.359403610229492,0.18466387689113617,1.9325860738754272,4.039077281951904,0.3076900541782379,0.46458351612091064,0.19643378257751465,1.2700424194335938
96,32148,32144,0.04551618546247482,-0.06790278106927872,0.9296423196792603,-4.571831703186035,21.537939071655273,-0.22368405759334564,1.9326239824295044,4.040363788604736,0.3086496591567993,0.14646969735622406,0.17239272594451904,1.2674591541290283
97,32158,32154,0.06374229490756989,0.15450918674468994,0.8870475888252258,-2.3234455585479736,27.08928108215332,0.07099368423223495,1.934213638305664,4.040731906890869,0.3095281422138214,0.31286460161209106,0.13420704007148743,1.2803269624710083
98,32168,32164,0.06478088349103928,0.18818898499011993,0.9242367744445801,-0.4407757520675659,28.582414627075195,0.24397702515125275,1.9298624992370605,4.042416095733643,0.309167742729187,-0.07502391934394836,0.12748456001281738,1.2786062955856323
99,32178,32174,-0.034687984734773636,-0.027816662564873695,1.0437445640563965,2.146235466003418,29.210803985595703,0.021496620029211044,1.9299448728561401,4.042412281036377,0.30988675355911255,-0.2237805277109146,0.16539859771728516,1.2885881662368774
100,32188,32184,0.0020539937540888786,0.008330038748681545,0.9874377846717834,2.6061978340148926,28.30232048034668,0.39705586433410645,1.9274178743362427,4.042420864105225,0.3105088472366333,-0.547469973564148,0.14454016089439392,1.2896718978881836
101,32198,32194,0.11850941181182861,0.019087407737970352,0.8777183294296265,3.3278746604919434,21.810317993164062,0.3337514102458954,1.9270987510681152,4.044250011444092,0.31105896830558777,-1.0237131118774414,0.14077775180339813,1.2856882810592651
102,32208,32204,0.037314292043447495,-0.00482573639601469,0.9431226849555969,3.4488306045532227,17.16522789001465,0.23198634386062622,1.928876280784607,4.0449395179748535,0.31372153759002686,-1.2341595888137817,0.22298413515090942,1.2942804098129272
103,32218,32214,0.02247525379061699,-0.016398385167121887,0.9477432370185852,3.3538320064544678,11.829560279846191,0.3533313572406769,1.9284530878067017,4.0448760986328125,0.31426987051963806,-1.129992127418518,0.22415046393871307,1.304546594619751
104,32228,32224,0.017189234495162964,-0.010072655975818634,0.9521353244781494,3.4288415908813477,6.581002235412598,0.2657526433467865,1.926045298576355,4.045346736907959,0.31501370668411255,-1.339038610458374,0.1526467502117157,1.29244863986969
105,32238,32234,0.004755381494760513,0.01344781368970871,0.9521834850311279,2.4299023151397705,5.541928768157959,0.07088423520326614,1.9255141019821167,4.047968864440918,0.31729134917259216,-1.4124513864517212,0.23115003108978271,1.299570083618164
106,32248,32244,0.009291157126426697,-0.0036298935301601887,0.9412798285484314,2.0643370151519775,6.167516231536865,-0.1723928451538086,1.9253326654434204,4.047602653503418,0.31785327196121216,-1.554382562637329,0.2175983190536499,1.2892054319381714
107,32258,32254,0.03235664591193199,-0.035252414643764496,0.9109814763069153,2.071106195449829,8.050618171691895,-0.36136293411254883,1.9257316589355469,4.048283576965332,0.31831270456314087,-1.708423376083374,0.27988603711128235,1.2900794744491577
108,32268,32264,0.03904791176319122,-0.038574494421482086,0.9147163033485413,1.94086492061615,9.532514572143555,-0.5230939388275146,1.9263756275177002,4.047119140625,0.3185791075229645,-1.7289137840270996,0.33674049377441406,1.296460747718811
109,32278,32274,0.013112684711813927,0.06839969009160995,0.9244409799575806,1.947142243385315,10.027902603149414,-0.7781991958618164,1.9251115322113037,4.045406341552734,0.3190121352672577,-1.935679316520691,0.383830726146698,1.2922524213790894
110,32288,32284,0.03804360330104828,0.046497102826833725,0.9640911817550659,2.53043794631958,8.239166259765625,-1.0874943733215332,1.9255765676498413,4.045831680297852,0.31929412484169006,-2.0285236835479736,0.4389607012271881,1.2935317754745483
111,32298,32294,0.013708190061151981,0.022812997922301292,0.9721483588218689,2.9331839084625244,5.940214157104492,-0.7882744669914246,1.924749493598938,4.04503870010376,0.316124826669693,-2.1637513637542725,0.4947225749492645,1.288898229598999
112,32308,32304,0.013550003059208393,0.011341327801346779,0.955681324005127,1.5408251285552979,2.896064281463623,-1.2661762237548828,1.9252362251281738,4.044814109802246,0.3161001205444336,-2.241670846939087,0.46310052275657654,1.2627137899398804
113,32318,32314,0.02369793690741062,-0.01323024369776249,0.941384494304657,0.9926762580871582,-2.4218430519104004,-0.4556772708892822,1.9258906841278076,4.045368671417236,0.31611907482147217,-2.168639898300171,0.4977332651615143,1.263832926750183
114,32328,32324,0.04469434171915054,0.05657177418470383,0.9506877064704895,-0.5821115374565125,-6.158783435821533,-0.25670355558395386,1.924776315689087,4.04428243637085,0.3161671459674835,-2.1043436527252197,0.5070026516914368,1.2650264501571655
115,32338,32334,-0.10176696628332138,-0.030673358589410782,1.0454730987548828,-3.8840110301971436,-2.2104086875915527,-0.5093931555747986,1.9237605333328247,4.043989181518555,0.31330031156539917,-2.0592072010040283,0.47114241123199463,1.2564274072647095
116,32348,32344,0.07259640097618103,-0.10514871776103973,0.9307469129562378,-4.475439548492432,-0.6015910506248474,-0.3318914771080017,1.9239016771316528,4.044029235839844,0.31304869055747986,-2.0598552227020264,0.4051024317741394,1.24701726436615
117,32358,32354,0.10157717764377594,-0.12294839322566986,0.9016799926757812,-3.6206793785095215,2.3656036853790283,-0.13136932253837585,1.9240105152130127,4.044437408447266,0.31278690695762634,-2.155710458755493,0.34966763854026794,1.2322758436203003
118,32368,32364,0.005162815097719431,-0.07867146283388138,0.9804202914237976,-2.7411324977874756,2.438228130340576,-0.045049309730529785,1.924222707748413,4.044582843780518,0.3105744421482086,-2.173487424850464,0.30674898624420166,1.2276983261108398
119,32378,32374,0.0235641747713089,-0.13542917370796204,0.96861732006073,-0.5730161070823669,3.560986280441284,-0.09113636612892151,1.924040675163269,4.0430989265441895,0.3100973963737488,-2.208648920059204,0.2930372357368469,1.2299507856369019
120,32388,32384,0.04174107313156128,-0.307553768157959,0.9733856320381165,1.0698233842849731,1.6069531440734863,-0.3459797501564026,1.9242188930511475,4.04260778427124,0.30959588289260864,-2.221435546875,0.31321296095848083,1.2355746030807495
121,32398,32394,-0.00863438006490469,0.09465080499649048,1.0205079317092896,1.871826410293579,-0.16856808960437775,-0.7760657072067261,1.9248026609420776,4.042510509490967,0.3096265494823456,-2.199773073196411,0.269522488117218,1.212170958518982
122,32408,32404,-0.05897290259599686,0.04646006599068642,1.0407265424728394,1.784733533859253,-2.1079049110412598,-0.6147172451019287,1.9247819185256958,4.043179035186768,0.3091267943382263,-2.1479194164276123,0.31525272130966187,1.215043306350708
123,32418,32414,0.014710460789501667,-0.0593683123588562,0.9818844199180603,1.893651008605957,-2.4494309425354004,-0.47405141592025757,1.9237703084945679,4.042080402374268,0.3081907331943512,-2.1591856479644775,0.3554767370223999,1.2152016162872314
124,32428,32424,0.019525358453392982,0.03346855938434601,1.019592046737671,0.7591544985771179,-3.758810043334961,-0.6600670218467712,1.9241642951965332,4.041028022766113,0.308176189661026,-2.1495323181152344,0.4600197374820709,1.2415138483047485
125,32438,32434,0.025446023792028427,-0.0027165396604686975,0.9970139265060425,-0.5322984457015991,-3.863319158554077,-0.673905074596405,1.9238556623458862,4.040395736694336,0.30495068430900574,-2.041102647781372,0.4570099711418152,1.2360410690307617
126,32448,32444,0.0038657027762383223,0.045358434319496155,1.034380316734314,-2.3237292766571045,-4.159197807312012,-1.0934990644454956,1.922751545906067,4.039797306060791,0.3043411076068878,-2.0118727684020996,0.426995187997818,1.219667673110962
127,32458,32454,-0.024421894922852516,-0.10242119431495667,0.9938417673110962,-3.958901882171631,-4.7244462966918945,-1.2571624517440796,1.9230035543441772,4.039435863494873,0.3031143248081207,-1.8879083395004272,0.3669542670249939,1.201593041419983
128,32468,32464,-0.0002739551418926567,-0.04027901217341423,1.0230252742767334,-4.919108867645264,-2.6713366508483887,-1.5931099653244019,1.922304391860962,4.040138244628906,0.3054201006889343,-2.019683837890625,0.28993505239486694,1.1660559177398682
129,32478,32474,0.010818316601216793,0.02695164829492569,1.0642170906066895,-4.701158046722412,-3.757749557495117,-1.1428498029708862,1.9243216514587402,4.04049825668335,0.3049079477787018,-2.0578222274780273,0.20983250439167023,1.138332486152649
130,32488,32484,-0.005597097799181938,-0.016251549124717712,1.0534595251083374,-3.214852809906006,-3.699036121368408,-0.9418038129806519,1.9252549409866333,4.040460109710693,0.30442777276039124,-2.0047614574432373,0.15076805651187897,1.1224082708358765
131,32498,32494,0.02335113100707531,-0.002911002142354846,1.045823574066162,-0.5840045213699341,-5.952549934387207,-0.9735116362571716,1.9265245199203491,4.040709972381592,0.3020549714565277,-1.9241994619369507,0.13036014139652252,1.1146875619888306
132,32508,32504,-0.024591723456978798,0.010802218690514565,1.0826588869094849,2.523177146911621,-7.7453413009643555,-1.0603947639465332,1.926483154296875,4.040313243865967,0.3016532063484192,-1.8907757997512817,0.1595344841480255,1.1104254722595215
133,32518,32514,0.027184443548321724,-0.0012973130214959383,1.0261825323104858,4.0199384689331055,-10.431434631347656,-0.510772168636322,1.9273576736450195,4.039240837097168,0.3012484014034271,-1.6503843069076538,0.22298164665699005,1.1218829154968262
134,32528,32524,-0.02493712306022644,-0.01444379985332489,1.1179734468460083,4.366333484649658,-12.139220237731934,0.15890717506408691,1.9261661767959595,4.038782119750977,0.3036159873008728,-1.5431069135665894,0.2952442467212677,1.1294366121292114
135,32538,32534,0.06341726332902908,-0.11287190765142441,1.0168012380599976,2.5679028034210205,-9.682099342346191,0.3162609934806824,1.9268602132797241,4.038702487945557,0.3035832345485687,-1.6010953187942505,0.34920161962509155,1.1251180171966553
136,32548,32544,-0.021109564229846,0.04003281891345978,1.0614275932312012,-0.5205750465393066,-6.25221061706543,-0.08527558296918869,1.929119348526001,4.037420272827148,0.30347660183906555,-1.5503194332122803,0.3545563817024231,1.118767499923706
137,32558,32554,0.04729889705777168,-0.0916246771812439,0.9878823161125183,-3.610769748687744,-5.842861175537109,-0.8134321570396423,1.9303330183029175,4.038161754608154,0.3034784495830536,-1.437847375869751,0.3080086410045624,1.108139991760254
138,32568,32564,0.014956082217395306,-0.016800956800580025,0.9872767329216003,-5.276272773742676,-4.662013053894043,-1.0266270637512207,1.9305381774902344,4.038989543914795,0.30647432804107666,-1.5033082962036133,0.2266443371772766,1.0838987827301025
139,32578,32574,0.0498504601418972,-0.05065234377980232,0.9810877442359924,-3.7605457305908203,-9.366108894348145,-0.5593792796134949,1.9316831827163696,4.038813591003418,0.3066527545452118,-1.2713932991027832,0.15261608362197876,1.0800203084945679
140,32588,32584,-0.01370353065431118,-0.006712320260703564,1.0650057792663574,-2.019883394241333,-8.318588256835938,-0.6098426580429077,1.9307596683502197,4.038716793060303,0.30704885721206665,-1.421329140663147,0.18422931432724,1.0815175771713257
141,32598,32594,-0.0352984257042408,0.01589948683977127,1.1146528720855713,0.5141037702560425,-9.504164695739746,-0.6147553324699402,1.934098482131958,4.038151741027832,0.3070518970489502,-1.21329927444458,0.24967262148857117,1.0980135202407837
142,32608,32604,-0.020610492676496506,0.032730888575315475,1.0834596157073975,2.511000394821167,-9.885141372680664,-0.35118430852890015,1.9342801570892334,4.037417888641357,0.3074344992637634,-1.1743563413619995,0.2672899663448334,1.0916115045547485
143,32618,32614,0.012299926951527596,-0.03539789468050003,0.9971703886985779,2.8298542499542236,-11.239643096923828,0.060104429721832275,1.9365280866622925,4.0372514724731445,0.30778607726097107,-0.8858538866043091,0.29941612482070923,1.096889853477478
144,32628,32624,0.058308519423007965,-0.06558769196271896,0.9849416017532349,1.730214238166809,-11.589499473571777,0.2056795358657837,1.935927391052246,4.037281036376953,0.3082791268825531,-0.9210454225540161,0.2413102239370346,1.0793540477752686
145,32638,32634,0.07315466552972794,-0.06804487854242325,1.0112265348434448,-0.3457163870334625,-10.355705261230469,0.20558202266693115,1.9380784034729004,4.036866188049316,0.3086819350719452,-0.7826744914054871,0.3166903853416443,1.0934382677078247
146,32648,32644,0.019458269700407982,0.031247245147824287,1.0014625787734985,-2.883944511413574,-9.384142875671387,0.01863204687833786,1.93837308883667,4.0343098640441895,0.30913493037223816,-0.7270752787590027,0.2749633491039276,1.0900198221206665
147,32658,32654,-0.014848350547254086,0.027086183428764343,1.011475682258606,-4.403849124908447,-6.758110523223877,0.16395427286624908,1.93995201587677,4.035772800445557,0.3095237910747528,-0.7101873159408569,0.19821171462535858,1.0820205211639404
148,32668,32664,-0.029941372573375702,0.024277033284306526,1.013420581817627,-4.805869102478027,-6.011876583099365,-0.3179311752319336,1.9414809942245483,4.036242485046387,0.3081754744052887,-0.783290684223175,0.11358489096164703,1.072544813156128
149,32678,32674,-0.012920748442411423,0.1352490782737732,0.9729739427566528,-3.498997449874878,-5.943123817443848,-0.18114350736141205,1.943663477897644,4.036511421203613,0.3083866834640503,-0.6204142570495605,0.041311364620923996,1.068414330482483
150,32688,32684,0.020181406289339066,0.19324132800102234,0.9648565649986267,-1.707483172416687,-6.750435829162598,-0.08275986462831497,1.9437906742095947,4.037497520446777,0.30886244773864746,-0.4695880115032196,0.07005948573350906,1.0818047523498535
151,32698,32694,-0.04166695103049278,0.06730376929044724,1.0345869064331055,0.6725316047668457,-9.423023223876953,-0.2293422520160675,1.944355845451355,4.0358781814575195,0.31293052434921265,-0.5151934027671814,0.1349952518939972,1.083476185798645
152,32708,32704,-0.037760306149721146,-0.01075077336281538,1.0125198364257812,2.2084386348724365,-9.898756980895996,-0.5240575075149536,1.9462308883666992,4.035816669464111,0.3134043514728546,-0.3790211081504822,0.14846715331077576,1.0815263986587524
153,32718,32714,0.02832307107746601,-0.058066025376319885,0.9241310954093933,2.5121898651123047,-10.839021682739258,-0.5990312695503235,1.9473530054092407,4.035435676574707,0.31401070952415466,-0.08202245831489563,0.1728278398513794,1.0780324935913086
154,32728,32724,0.098535917699337,0.036259230226278305,0.9114501476287842,1.0024229288101196,-10.31859302520752,-0.884329617023468,1.9476251602172852,4.035702705383301,0.3139878809452057,-0.12019655853509903,0.18344388902187347,1.0640079975128174
155,32738,32734,0.008207336999475956,0.01572510227560997,0.9915327429771423,-1.5317213535308838,-8.724474906921387,-0.7873183488845825,1.9488110542297363,4.0349507331848145,0.31394001841545105,0.0029120976105332375,0.16028255224227905,1.0544142723083496
156,32748,32744,0.012026762589812279,0.003749488852918148,0.9760302901268005,-3.7700719833374023,-4.517992973327637,-1.4435644149780273,1.949268102645874,4.03403377532959,0.3143783509731293,0.14888010919094086,0.09869896620512009,1.0452395677566528
157,32758,32754,-0.16068035364151,0.043865736573934555,1.0066564083099365,-5.3369879722595215,-4.00604248046875,-0.36166709661483765,1.9493882656097412,4.034796237945557,0.314798504114151,-0.03867438808083534,0.08533328771591187,1.0309175252914429
158,32768,32764,-0.04117568954825401,-0.010302754119038582,0.9614819288253784,-5.279366970062256,-2.385159730911255,-0.19474299252033234,1.9544705152511597,4.034008502960205,0.31459417939186096,0.06823622435331345,0.055756907910108566,1.0269019603729248
159,32778,32774,0.006665567867457867,-0.05524906888604164,0.9388266801834106,-4.633162498474121,-1.6203278303146362,-0.5206107497215271,1.95493483543396,4.033756732940674,0.31496238708496094,0.2242414951324463,-0.045759499073028564,1.0156278610229492
160,32788,32784,0.046115852892398834,-0.13466237485408783,0.9351382851600647,-3.08561110496521,-3.059417724609375,-0.7161243557929993,1.9535372257232666,4.033276557922363,0.3151129484176636,0.13859720528125763,-0.04823744297027588,1.0092774629592896
161,32798,32794,0.01003518607467413,-0.016376517713069916,1.0000473260879517,-0.23645804822444916,-4.639236927032471,-0.8551055788993835,1.954498291015625,4.031754970550537,0.3159302771091461,0.25488153100013733,-0.013244272209703922,0.9972630739212036
162,32808,32804,-0.008860810659825802,0.0175238735973835,1.0009208917617798,1.3145586252212524,-4.529133319854736,-1.0057554244995117,1.9547020196914673,4.0313591957092285,0.3162529170513153,0.37006813287734985,-0.021838821470737457,0.9887680411338806
163,32818,32814,-0.006963418330997229,0.000312005024170503,0.9657996892929077,1.597432255744934,-3.577657461166382,-0.7554559111595154,1.9550812244415283,4.0303754806518555,0.31652742624282837,0.31224873661994934,-0.016840903088450432,0.9703077077865601
164,32828,32824,-3.3346120744681684e-06,0.029101984575390816,0.9855645895004272,0.5229343771934509,-1.7260901927947998,-0.8603340983390808,1.9568301439285278,4.029699325561523,0.32006242871284485,0.466799795627594,-0.0939612165093422,0.949220597743988
165,32838,32834,-0.028443824499845505,0.04897529259324074,1.0074797868728638,-0.8111087679862976,-0.3289428651332855,-0.544866681098938,1.9564851522445679,4.028743743896484,0.3205415904521942,0.27990224957466125,-0.031425997614860535,0.936322808265686
166,32848,32844,0.046250119805336,-0.05553601309657097,0.9610608816146851,-2.2400503158569336,0.5339939594268799,-0.3964313864707947,1.9588992595672607,4.027465343475342,0.3208369016647339,0.3879595100879669,-0.08239877969026566,0.935049831867218
167,32858,32854,0.02057337760925293,-0.053499359637498856,0.9535536766052246,-2.169816493988037,-0.8204957842826843,-0.8172835111618042,1.958005666732788,4.028063774108887,0.3213934302330017,0.49743416905403137,-0.130574032664299,0.9335299134254456
168,32868,32864,-0.001112671452574432,-0.020910732448101044,1.0024665594100952,-3.2878243923187256,-0.714847981929779,-0.9779837131500244,1.9577058553695679,4.028054237365723,0.32481178641319275,0.30444979667663574,-0.18758323788642883,0.9306384325027466
169,32878,32874,-0.0225591491907835,0.020297804847359657,1.0207065343856812,-1.626491665840149,-0.33457109332084656,-0.7492660880088806,1.9605708122253418,4.028312683105469,0.3252345621585846,0.4255905747413635,-0.07903897762298584,0.8867643475532532
170,32888,32884,0.02640489675104618,-0.13928665220737457,1.0068683624267578,-0.8618580102920532,-0.8504437804222107,-0.737514317035675,1.9603123664855957,4.025636672973633,0.3259310722351074,0.3903045356273651,-0.1177157461643219,0.8848661184310913
171,32898,32894,0.0051435125060379505,-0.06481241434812546,0.9628394246101379,0.4487638771533966,-0.465812623500824,-0.8849401473999023,1.9617962837219238,4.02570915222168,0.32592904567718506,0.42800429463386536,-0.1353914588689804,0.8777909278869629
172,32908,32904,0.01335139386355877,-0.032593801617622375,0.9383481740951538,0.8453928828239441,0.4544125497341156,-1.0714718103408813,1.9626610279083252,4.0256757736206055,0.3264426589012146,0.44680553674697876,-0.21628212928771973,0.8766027688980103
173,32918,32914,0.04689215123653412,-0.02082756906747818,0.9408802390098572,1.1079165935516357,0.8038179278373718,-1.4287853240966797,1.9633750915527344,4.025330543518066,0.326921671628952,0.45455503463745117,-0.20672710239887238,0.8543266654014587
174,32928,32924,0.13040734827518463,-0.0010075736790895462,0.9439560174942017,1.0567107200622559,2.7641777992248535,-1.3204363584518433,1.9641027450561523,4.025408744812012,0.3255543112754822,0.5165003538131714,-0.195366770029068,0.8372963666915894
175,32938,32934,0.1939774453639984,-0.0356982983648777,0.9469110369682312,2.2108354568481445,1.5541553497314453,-1.3508936166763306,1.9646283388137817,4.0253190994262695,0.32587891817092896,0.4378480315208435,-0.16826167702674866,0.8269996047019958
176,32948,32944,0.022388949990272522,-0.012137419544160366,0.9835127592086792,2.590791940689087,2.445411443710327,-1.2595200538635254,1.9654768705368042,4.025271892547607,0.32610154151916504,0.4163394272327423,-0.13371215760707855,0.8011544346809387
177,32958,32954,-0.02236991375684738,-0.0049198102205991745,0.9773056507110596,2.550933361053467,2.908106803894043,-1.1871002912521362,1.9666825532913208,4.024909496307373,0.32584038376808167,0.48590198159217834,-0.09567224979400635,0.7922123670578003
178,32968,32964,0.005352118983864784,0.0026453635655343533,0.9532958269119263,1.2343287467956543,3.3227250576019287,-1.0149976015090942,1.9670453071594238,4.024811744689941,0.32597169280052185,0.43810638785362244,-0.0737055093050003,0.782590389251709
179,32978,32974,0.003963660914450884,-0.07825998216867447,0.9385873675346375,-0.2824576199054718,3.8166697025299072,-0.8387441635131836,1.9678311347961426,4.024286270141602,0.3259944021701813,0.3731918931007385,-0.07612518221139908,0.7748073935508728
180,32988,32984,-0.030844667926430702,0.002546889940276742,0.9531442523002625,-2.553401231765747,1.1511141061782837,-0.5808698534965515,1.9692376852035522,4.02390193939209,0.3259667158126831,0.35584405064582825,-0.112676702439785,0.7633408904075623
181,32998,32994,-0.0060620601288974285,0.16693700850009918,0.9742358922958374,-3.1738686561584473,2.021655321121216,-0.6453408002853394,1.9699444770812988,4.024348735809326,0.3266294598579407,0.41674894094467163,-0.08984971046447754,0.7306255102157593
182,33008,33004,0.15333031117916107,0.053347062319517136,0.9533121585845947,-2.886497974395752,4.464052677154541,-0.5712404251098633,1.9699599742889404,4.022502899169922,0.32661113142967224,0.19413678348064423,-0.14955860376358032,0.7350545525550842
183,33018,33014,0.1599811315536499,0.0567152164876461,0.966927170753479,-1.2473143339157104,3.5505764484405518,-0.7057508826255798,1.9724230766296387,4.02286958694458,0.3264002799987793,0.2406599074602127,-0.1851729303598404,0.7466185092926025
184,33028,33024,0.01925715059041977,-0.009119284339249134,0.9470165967941284,0.04693987965583801,3.003448486328125,-1.1237870454788208,1.9721660614013672,4.024411678314209,0.326904833316803,0.27560895681381226,-0.1934531182050705,0.7381153106689453
185,33038,33034,0.00900130532681942,-0.03941519558429718,0.9529479146003723,0.326559454202652,3.090022325515747,-0.9568299651145935,1.9722062349319458,4.023637294769287,0.3268066644668579,0.15195517241954803,-0.19335933029651642,0.7181477546691895
186,33048,33044,0.011130535043776035,-0.007907540537416935,0.9831626415252686,1.8095451593399048,2.5550858974456787,-0.9355611205101013,1.9730427265167236,4.023741722106934,0.3266376852989197,0.04396820440888405,-0.24975796043872833,0.7087785005569458
187,33058,33054,0.020190950483083725,-0.0004977583885192871,0.9527387619018555,3.1649341583251953,1.8282102346420288,-0.5635449290275574,1.974339485168457,4.023005485534668,0.3281744122505188,0.09837766736745834,-0.20557351410388947,0.691677987575531
188,33068,33064,0.014606689102947712,-0.012723922729492188,0.955419659614563,3.486849546432495,-0.7053824663162231,-0.565152645111084,1.9743809700012207,4.021936893463135,0.32812175154685974,0.11067483574151993,-0.14551879465579987,0.6794853210449219
189,33078,33074,0.013055643998086452,-0.005512654781341553,0.9865561127662659,2.8001134395599365,-0.03363417461514473,-0.3761034309864044,1.9745427370071411,4.022528648376465,0.3279717266559601,0.19950582087039948,-0.09416794031858444,0.6745307445526123
190,33088,33084,0.019216470420360565,-0.0017207898199558258,0.9852222800254822,1.8784575462341309,0.21075056493282318,-0.25131770968437195,1.9739654064178467,4.022217273712158,0.3278338611125946,0.27156275510787964,-0.058882858604192734,0.6674351096153259
191,33098,33094,0.015443330630660057,-0.023914974182844162,0.9687928557395935,1.0059813261032104,1.354671597480774,-0.25827285647392273,1.9740382432937622,4.022126197814941,0.328742653131485,0.3240293860435486,-0.043089184910058975,0.6509385704994202
192,33108,33104,0.00370010151527822,-0.037025291472673416,0.9891941547393799,-0.5590583086013794,4.082042217254639,0.060422204434871674,1.9737213850021362,4.0220866203308105,0.32861340045928955,0.3342808783054352,-0.04468253254890442,0.6687526702880859
193,33118,33114,-0.010921529494225979,-0.0039578708820044994,1.0208039283752441,-2.63836407661438,7.546428203582764,-0.8181928396224976,1.9738129377365112,4.021405220031738,0.3284626603126526,0.21174702048301697,-0.0031461166217923164,0.6694758534431458
194,33128,33124,-0.010077823884785175,0.015089627355337143,1.0094879865646362,-1.9196840524673462,9.53931713104248,-0.7681318521499634,1.9747954607009888,4.021960735321045,0.3261159360408783,0.12941120564937592,-0.05078229680657387,0.6559818983078003
195,33138,33134,0.008520130068063736,0.11471407860517502,0.9720607399940491,-2.2392101287841797,10.751303672790527,-1.0131747722625732,1.974784016609192,4.022053241729736,0.32577255368232727,0.01502248179167509,-0.09139347076416016,0.6607233881950378
196,33148,33144,0.03331573307514191,-0.02959500253200531,0.9238234758377075,-1.0963298082351685,8.746313095092773,-1.077057123184204,1.9760123491287231,4.0210137367248535,0.3253757059574127,-0.07703474164009094,-0.12028083950281143,0.6202384829521179
197,33158,33154,0.027595866471529007,0.0005345942336134613,0.9665820002555847,0.0060782902874052525,8.062371253967285,-0.7503631711006165,1.9765121936798096,4.020363807678223,0.3233458995819092,-0.15479229390621185,0.02406919002532959,0.5971600413322449
198,33168,33164,-0.009568393230438232,0.05081111565232277,1.0194499492645264,0.4122609496116638,4.861790657043457,-0.32302016019821167,1.9767494201660156,4.018763542175293,0.3228701949119568,-0.18721280992031097,0.00951378419995308,0.5928723216056824
199,33178,33174,-0.035214316099882126,-0.09948299825191498,0.985164225101471,0.40303486585617065,2.784228563308716,-0.3818628191947937,1.9773534536361694,4.019117832183838,0.3224073648452759,-0.17592410743236542,0.006894982419908047,0.5957170724868774
200,33188,33184,-0.002660030033439398,0.003142771776765585,1.0242459774017334,-0.18222728371620178,1.32942795753479,-0.25489911437034607,1.9763754606246948,4.019229888916016,0.32060813903808594,-0.3048858940601349,-0.007756121922284365,0.6033341884613037
201,33198,33194,0.01212381012737751,0.06952597200870514,1.0334588289260864,-2.8466367721557617,1.3742213249206543,-0.5191418528556824,1.9774459600448608,4.0196003913879395,0.319993793964386,-0.41015297174453735,-0.0531637966632843,0.5961163640022278
202,33208,33204,0.022359589114785194,-0.004057054407894611,0.9977927207946777,-3.5344274044036865,1.7378255128860474,-0.793488085269928,1.9787940979003906,4.0193986892700195,0.3193267285823822,-0.4318978786468506,-0.11690975725650787,0.6024254560470581
203,33218,33214,-0.000676630181260407,-0.025262167677283287,0.9743690490722656,-4.283056735992432,2.375386953353882,-0.6496427059173584,1.979096531867981,4.019556522369385,0.3187705874443054,-0.45875823497772217,-0.11839669197797775,0.592700183391571
204,33228,33224,0.007119300775229931,0.011478479951620102,1.0182056427001953,-3.5182549953460693,1.9128683805465698,-0.6868840456008911,1.979435682296753,4.019295692443848,0.31570178270339966,-0.48696306347846985,-0.11636922508478165,0.5936749577522278
205,33238,33234,-0.03285040706396103,0.04707961529493332,1.0600157976150513,-1.5172189474105835,0.7585775852203369,-0.2566644549369812,1.9801039695739746,4.019622325897217,0.314973920583725,-0.4229360818862915,-0.16818979382514954,0.6148287057876587
206,33248,33244,0.0161734689027071,-0.014345464296638966,1.0108387470245361,-0.806956946849823,-0.2788292169570923,-0.42645373940467834,1.9800078868865967,4.019990921020508,0.31438854336738586,-0.42419251799583435,-0.12060397863388062,0.5949500799179077
207,33258,33254,0.009752266108989716,-0.04312047362327576,1.0323489904403687,-0.13401378691196442,1.6358379125595093,-0.8416746258735657,1.980701208114624,4.019484519958496,0.3128097951412201,-0.43367427587509155,-0.1463824212551117,0.6091486811637878
208,33268,33264,-0.004366991575807333,-0.3880021274089813,0.9777077436447144,-0.6685614585876465,0.8331030607223511,-0.5921957492828369,1.9816429615020752,4.019480228424072,0.31203100085258484,-0.3722611367702484,-0.09379976242780685,0.6130355596542358
209,33278,33274,-0.00021477314294315875,-0.5843030214309692,1.0849262475967407,-1.0213024616241455,2.9990830421447754,-1.042478084564209,1.98183274269104,4.019416332244873,0.31141653656959534,-0.4110560417175293,-0.13053373992443085,0.617943525314331
210,33288,33284,0.02496815100312233,-0.01792495884001255,0.983144998550415,-1.9926892518997192,3.0772180557250977,-0.6739039421081543,1.9823620319366455,4.019225597381592,0.3095102310180664,-0.47247201204299927,-0.17637960612773895,0.5987760424613953
211,33298,33294,0.04713498428463936,0.04386628046631813,0.991411566734314,-2.875548839569092,3.2618229389190674,-0.45948123931884766,1.9830694198608398,4.019350051879883,0.3088054060935974,-0.4414903223514557,-0.15836089849472046,0.5979965329170227
212,33308,33304,-0.039568159729242325,-0.05590895190834999,1.077222228050232,-2.3680782318115234,2.893054246902466,-0.4611574113368988,1.9835034608840942,4.019824981689453,0.30816546082496643,-0.5616992115974426,-0.21921797096729279,0.6254696846008301
213,33318,33314,0.03078223019838333,-0.017276080325245857,1.0308748483657837,-2.675332546234131,2.914123773574829,-0.9827882647514343,1.9848923683166504,4.020147323608398,0.3074409067630768,-0.5370577573776245,-0.278138130903244,0.608909547328949
214,33328,33324,0.061313606798648834,0.07242649793624878,1.063965082168579,-2.4388387203216553,1.3208415508270264,-0.6940432786941528,1.9845839738845825,4.019911289215088,0.3072942793369293,-0.5764424204826355,-0.25828492641448975,0.5998843908309937
215,33338,33334,0.04436405375599861,0.020087646320462227,1.0286808013916016,-2.3138320446014404,-0.5355731844902039,-0.6049421429634094,1.9851948022842407,4.018052577972412,0.30673882365226746,-0.4957456588745117,-0.3132982850074768,0.5922056436538696
216,33348,33344,0.07588915526866913,-0.039665017277002335,1.0530201196670532,-0.57830810546875,-1.4824180603027344,-0.8554590344429016,1.984877347946167,4.018757343292236,0.3063106834888458,-0.5589572787284851,-0.3441791236400604,0.5814112424850464
217,33358,33354,0.03139413148164749,-0.03171409294009209,1.0421680212020874,-0.09971795976161957,-0.6497452259063721,-0.7730902433395386,1.986301302909851,4.0195841789245605,0.3038506507873535,-0.5317239761352539,-0.35739415884017944,0.5858904123306274
218,33368,33364,-0.022803137078881264,0.004162933211773634,1.0605723857879639,0.6994457840919495,0.743391752243042,-0.9724409580230713,1.986968755722046,4.019440650939941,0.3033252954483032,-0.5986256003379822,-0.35789793729782104,0.5891735553741455
219,33378,33374,0.026806095615029335,-0.04884705692529678,1.0089499950408936,1.609462857246399,1.6884095668792725,-0.7705888748168945,1.988564372062683,4.0200066566467285,0.30279767513275146,-0.6102821826934814,-0.3447933793067932,0.5910614132881165
220,33388,33384,-0.03413210064172745,0.024919826537370682,1.0669394731521606,1.31098473072052,1.9004285335540771,-0.7437242269515991,1.9900071620941162,4.019867897033691,0.3025828003883362,-0.546187162399292,-0.3306763470172882,0.5898146033287048
221,33398,33394,0.028761915862560272,-0.02788119949400425,1.0163711309432983,1.2920700311660767,0.42034995555877686,-1.192743182182312,1.9899117946624756,4.02012825012207,0.30224987864494324,-0.5521722435951233,-0.3143695294857025,0.5802691578865051
222,33408,33404,0.09610578417778015,0.0003594910667743534,1.057855248451233,1.403472661972046,0.6606236696243286,-0.7086162567138672,1.9906134605407715,4.020166873931885,0.30191493034362793,-0.6317630410194397,-0.296463280916214,0.576295018196106
223,33418,33414,0.26170599460601807,-0.06396931409835815,1.049937129020691,1.6770685911178589,2.2028956413269043,-1.3068898916244507,1.9918122291564941,4.019730091094971,0.30154696106910706,-0.6492843627929688,-0.27933767437934875,0.5458078980445862
224,33428,33424,0.09262219071388245,0.028346719220280647,0.9717202186584473,0.8934907913208008,-1.502761721611023,-0.4278533160686493,1.9928562641143799,4.018648147583008,0.3014405071735382,-0.6969557404518127,-0.2688293755054474,0.5482712984085083
225,33438,33434,-0.04357151314616203,0.055111926048994064,1.1057788133621216,1.617077350616455,-1.5816658735275269,-0.5534961223602295,1.9942781925201416,4.018413543701172,0.301169216632843,-0.7176817655563354,-0.3264645040035248,0.539348840713501
226,33448,33444,0.022171800956130028,-0.0319402776658535,1.006285548210144,1.20381760597229,-3.6147868633270264,0.0009804334258660674,1.9956458806991577,4.019346714019775,0.3009084463119507,-0.6319249272346497,-0.30007216334342957,0.531471848487854
227,33458,33454,-0.06796691566705704,-0.01002036314457655,1.1298190355300903,2.0037500858306885,-5.698413372039795,0.04136385768651962,1.9960870742797852,4.01841402053833,0.30156341195106506,-0.4418606162071228,-0.26858606934547424,0.5101248621940613
228,33468,33464,0.015092351473867893,-0.05892873555421829,1.0026837587356567,2.407200574874878,-6.250750541687012,0.5799438953399658,1.9957562685012817,4.01838493347168,0.30164971947669983,-0.5531980991363525,-0.22861984372138977,0.5103445053100586
229,33478,33474,-0.013041281141340733,0.00884511973708868,1.069827675819397,2.298140525817871,-4.750383377075195,0.747761070728302,1.9979716539382935,4.017561912536621,0.30155235528945923,-0.5114051699638367,-0.26507776975631714,0.5162206292152405
230,33488,33484,0.015073934569954872,-0.019473496824502945,1.0117247104644775,1.5386987924575806,-3.3382906913757324,0.9036181569099426,1.9990527629852295,4.017345905303955,0.3010607659816742,-0.47042539715766907,-0.24550791084766388,0.5183402299880981
231,33498,33494,0.123221255838871,-0.02601754665374756,1.047538161277771,1.6373482942581177,-2.868366003036499,0.6681666374206543,1.9984830617904663,4.01785945892334,0.30124783515930176,-0.4353397786617279,-0.2017439901828766,0.530445396900177
232,33508,33504,0.06716325134038925,-0.008395330980420113,1.0254396200180054,1.9751160144805908,-2.2727038860321045,0.6010090112686157,2.0002634525299072,4.016960620880127,0.30126291513442993,-0.43534180521965027,-0.24141333997249603,0.5164478421211243
233,33518,33514,-0.009563853964209557,-0.027094580233097076,1.029772400856018,2.068727493286133,-1.9065160751342773,0.7759194374084473,2.001560688018799,4.017691135406494,0.30287468433380127,-0.4163797199726105,-0.22123229503631592,0.5075619220733643
234,33528,33524,0.0027966920752078295,0.02066138945519924,1.0125330686569214,1.6849647760391235,-1.7412649393081665,0.393113374710083,2.0016613006591797,4.017233371734619,0.3032437264919281,-0.28042688965797424,-0.17690050601959229,0.5171369910240173
235,33538,33534,0.026518655940890312,0.04598042741417885,0.9500806331634521,1.6172548532485962,-1.5460785627365112,0.5406234264373779,2.0035791397094727,4.017186164855957,0.3034247159957886,-0.45220252871513367,-0.2173801064491272,0.5228888392448425
236,33548,33544,-0.04061507806181908,0.08372946083545685,1.0183651447296143,2.4575231075286865,-3.6666948795318604,0.7992801666259766,2.0033841133117676,4.017425060272217,0.30386605858802795,-0.15954120457172394,-0.1405630111694336,0.5258303284645081
237,33558,33554,0.021541530266404152,-0.10611611604690552,1.0147994756698608,2.8703932762145996,-5.8658857345581055,0.7534660696983337,2.0035593509674072,4.017247676849365,0.30420219898223877,-0.09612862765789032,-0.11197727918624878,0.5360803008079529
238,33568,33564,0.020280752331018448,-0.03927760198712349,1.0265589952468872,3.2774150371551514,-3.7414331436157227,1.0390913486480713,2.0048508644104004,4.017639636993408,0.3044491410255432,-0.14355076849460602,-0.12763096392154694,0.5480750799179077
239,33578,33574,-0.04753453657031059,-0.08054844290018082,1.0419865846633911,3.3045036792755127,-1.7030282020568848,1.2193520069122314,2.0068933963775635,4.017232894897461,0.30465924739837646,-0.19115644693374634,-0.05797721818089485,0.5578669905662537
240,33588,33584,-0.02527189627289772,-0.02908162586390972,1.04395592212677,3.060213088989258,1.707169532775879,0.9517999887466431,2.007549285888672,4.016913414001465,0.3056897222995758,-0.14675945043563843,0.008763307705521584,0.5644640922546387
241,33598,33594,-0.015080311335623264,0.039747536182403564,1.0486423969268799,3.5468106269836426,-1.489754319190979,1.1134060621261597,2.0087320804595947,4.017000675201416,0.30606842041015625,-0.20993073284626007,0.07001981884241104,0.5940598249435425
242,33608,33604,-0.05395369231700897,-0.0183443371206522,1.0400134325027466,0.9957752823829651,-0.841846764087677,1.4143524169921875,2.0091989040374756,4.016932010650635,0.3065931499004364,-0.11871068179607391,0.1253943294286728,0.6202687621116638
243,33618,33614,0.07342646270990372,0.016672838479280472,0.9701507687568665,-0.722187340259552,-2.2937347888946533,1.5252432823181152,2.010451316833496,4.017123222351074,0.3047516942024231,-0.13421311974525452,0.13015216588974,0.6369735598564148
244,33628,33624,0.049958545714616776,-0.006113620009273291,0.9644458889961243,-2.9415011405944824,-3.8568148612976074,1.37471342086792,2.0114755630493164,4.018239498138428,0.3051227033138275,-0.11842824518680573,0.03238435834646225,0.6633601784706116
245,33638,33634,-0.01799505576491356,-0.0033643555361777544,0.9947831034660339,-2.704592227935791,-4.793765068054199,1.4385902881622314,2.0110418796539307,4.01806640625,0.3056025505065918,0.06797235459089279,-0.004495652392506599,0.6614727973937988
246,33648,33644,-0.028708329424262047,-0.02287362515926361,0.9864637851715088,-1.2856135368347168,-4.856199264526367,1.5582383871078491,2.0126163959503174,4.018320083618164,0.30587589740753174,0.021427176892757416,-0.03138137608766556,0.6887107491493225
247,33658,33654,0.0593978650867939,-0.13145537674427032,0.9497500061988831,0.2426263689994812,-3.711928129196167,2.039994955062866,2.01289439201355,4.0180253982543945,0.3066260814666748,0.11489548534154892,-0.033727895468473434,0.7124191522598267
248,33668,33664,0.002289318013936281,0.022817039862275124,0.9885643720626831,1.6276637315750122,-3.0600156784057617,1.702860713005066,2.013993740081787,4.018261909484863,0.30694442987442017,0.12076728790998459,-0.01263335533440113,0.7249160408973694
249,33678,33674,0.00044685014290735126,-0.01640067808330059,0.9791264533996582,2.946856737136841,-0.8345158100128174,1.8335330486297607,2.0143537521362305,4.018379211425781,0.3072769343852997,0.17545290291309357,0.0325206033885479,0.7593671679496765
250,33688,33684,0.002491130493581295,0.018812060356140137,0.9571447372436523,3.402333974838257,0.047724317759275436,0.793884813785553,2.015686273574829,4.018430709838867,0.31080687046051025,0.130442813038826,0.09099480509757996,0.7449125051498413
251,33698,33694,0.006954091135412455,-0.012929828837513924,0.9493740200996399,2.737340211868286,0.018800662830471992,0.38786786794662476,2.015519857406616,4.018884181976318,0.3113422989845276,0.22294430434703827,0.06507361680269241,0.7810295820236206
252,33708,33704,-0.05219094827771187,-0.00384861184284091,0.9882287383079529,0.5189259648323059,1.960350751876831,0.6865653991699219,2.0176053047180176,4.018371105194092,0.31160786747932434,-0.0009989183163270354,0.10554815083742142,0.7875602841377258
253,33718,33714,0.011684341356158257,-0.03276493027806282,0.9838561415672302,-0.6992493867874146,1.613465428352356,0.07039611041545868,2.0186386108398438,4.018556594848633,0.3100235164165497,0.005722277332097292,0.1151556745171547,0.7875573039054871
254,33728,33724,0.003241840982809663,-0.02817191742360592,0.9889776110649109,-1.605838656425476,-0.7100852727890015,0.3861320912837982,2.018345355987549,4.0186567306518555,0.3103688061237335,0.10250744223594666,0.09956948459148407,0.7963395714759827
255,33738,33734,-0.024841248989105225,-0.0008811680600047112,0.9756062030792236,-1.6255824565887451,-3.2433903217315674,-0.07313583791255951,2.0187978744506836,4.018698215484619,0.31064945459365845,0.15884466469287872,0.07996636629104614,0.7801687717437744
256,33748,33744,-0.009527795948088169,-0.036542609333992004,0.9456276297569275,-1.8362696170806885,-2.977701187133789,0.08713322132825851,2.019383668899536,4.018108367919922,0.31093165278434753,0.23860280215740204,0.05302467942237854,0.7810958623886108
257,33758,33754,0.012290772050619125,-0.03295700624585152,0.9707537293434143,-0.7432920336723328,-3.944276809692383,0.6935069561004639,2.0207197666168213,4.017343044281006,0.31286394596099854,0.2279149889945984,0.031769610941410065,0.7582663893699646
258,33768,33764,0.011376189067959785,-0.04047095403075218,0.96535724401474,-0.6693419218063354,2.2866530418395996,0.4900949001312256,2.022488594055176,4.01749849319458,0.31307822465896606,0.12434294819831848,0.02440590038895607,0.760397732257843
259,33778,33774,0.008468365296721458,0.07567714154720306,0.9726476669311523,0.879542887210846,3.539963483810425,0.5833108425140381,2.022191047668457,4.017577171325684,0.31341755390167236,0.19414213299751282,0.03215515986084938,0.7742284536361694
260,33788,33784,0.060079317539930344,-0.00011834641918540001,0.9333010911941528,2.0420761108398438,5.122269153594971,0.2343452423810959,2.021838426589966,4.017548084259033,0.31454163789749146,0.23361633718013763,0.06048714369535446,0.7867244482040405
261,33798,33794,0.08781430125236511,-0.03565917909145355,0.907368004322052,1.7653660774230957,5.767801284790039,0.09117423743009567,2.0236377716064453,4.018477916717529,0.3147211968898773,0.06570788472890854,0.09286471456289291,0.8414301872253418
262,33808,33804,0.04213118180632591,-0.019145537167787552,0.9656388759613037,0.8874412178993225,7.253756046295166,0.10664632171392441,2.025252342224121,4.018182754516602,0.3148213326931,-0.06998973339796066,0.1253471076488495,0.8445752263069153
263,33818,33814,0.0483650267124176,-0.05503148213028908,0.9732376933097839,0.4137784540653229,-0.25143375992774963,0.3097871243953705,2.0253026485443115,4.0191969871521,0.31367576122283936,-0.03147996589541435,0.14229129254817963,0.8594024777412415
264,33828,33824,0.11918642371892929,-0.047265224158763885,0.923368513584137,-1.6866083145141602,-2.559086322784424,0.7126013040542603,2.025102376937866,4.01895809173584,0.3137205243110657,0.07792791724205017,0.21035170555114746,0.8729486465454102
265,33838,33834,0.029963167384266853,-0.017204875126481056,0.9635710716247559,-3.577305316925049,-3.8462815284729004,0.20874878764152527,2.0253443717956543,4.018922805786133,0.3136804401874542,0.14608047902584076,0.16737014055252075,0.8546183705329895
266,33848,33844,0.0013872076524421573,0.06602918356657028,0.9644548892974854,-4.946845054626465,-2.6440365314483643,0.7114372253417969,2.0264852046966553,4.018911361694336,0.31265249848365784,0.06626293063163757,0.09078963100910187,0.8722771406173706
267,33858,33854,0.025749914348125458,0.042925700545310974,0.9704859852790833,-6.037221908569336,0.6854837536811829,0.036747705191373825,2.0265440940856934,4.017928600311279,0.31241339445114136,0.11060686409473419,-0.0008288543322123587,0.8492197394371033
268,33868,33864,0.02037377841770649,-0.02323557622730732,0.9949988126754761,-3.9543492794036865,2.2882163524627686,0.44527000188827515,2.0266191959381104,4.017594814300537,0.3121975362300873,0.1784793585538864,-0.015314313583076,0.8535216450691223
269,33878,33874,0.004241599701344967,-0.0045842370018363,0.9880997538566589,-2.448176860809326,4.713900089263916,0.601749837398529,2.028012275695801,4.01700496673584,0.31192901730537415,0.1382722705602646,0.00039214888238348067,0.8694559335708618
270,33888,33884,0.034090351313352585,-0.05996953696012497,0.9552873969078064,0.05861597880721092,5.857558250427246,0.11311957985162735,2.028491735458374,4.017651081085205,0.3103879988193512,0.1415771245956421,-0.03054511547088623,0.876477837562561
271,33898,33894,0.014130711555480957,-0.02589331939816475,0.9905445575714111,-0.5749373435974121,7.856081485748291,0.43222805857658386,2.030289649963379,4.018364906311035,0.3099071979522705,-0.040666043758392334,-0.11681262403726578,0.8807522058486938
272,33908,33904,0.01252406369894743,-0.02501581609249115,0.9832146167755127,0.020571505650877953,6.39331579208374,0.17678256332874298,2.031402111053467,4.018824100494385,0.3094373345375061,-0.14953164756298065,-0.12122237682342529,0.8910007476806641
273,33918,33914,-0.05432973802089691,0.04664576053619385,1.0157866477966309,0.2338472604751587,3.897850275039673,-0.03781663253903389,2.031751871109009,4.019076824188232,0.3080344796180725,-0.14535030722618103,-0.11822246760129929,0.902626633644104
274,33928,33924,0.04558109864592552,-0.09543517976999283,1.0120311975479126,0.26661384105682373,1.19307541847229,-0.24537208676338196,2.0327420234680176,4.0187602043151855,0.30750301480293274,-0.1991964429616928,-0.10939913988113403,0.8901752233505249
275,33938,33934,0.052873943001031876,-0.07745819538831711,1.0281816720962524,0.5411386489868164,-1.3889833688735962,-0.39590513706207275,2.0342824459075928,4.018697738647461,0.30687254667282104,-0.26548683643341064,-0.10537995398044586,0.8890917301177979
276,33948,33944,0.016189495101571083,-0.206960067152977,0.9762879014015198,-0.2643999457359314,-2.7457833290100098,-0.28413501381874084,2.0344161987304688,4.018543243408203,0.3086545765399933,-0.15256401896476746,-0.09580299258232117,0.8811488747596741
277,33958,33954,0.05355217680335045,-0.15540671348571777,0.9623430967330933,-0.5079009532928467,-4.263493061065674,-0.15447455644607544,2.0343117713928223,4.018559455871582,0.3083838224411011,-0.04385954141616821,-0.09869212657213211,0.869831383228302
278,33968,33964,0.0028708036988973618,0.07034097611904144,1.0297969579696655,-0.5527705550193787,-1.3970744609832764,-0.14714592695236206,2.037173271179199,4.018152713775635,0.30792632699012756,-0.21733607351779938,-0.02865777164697647,0.8859943151473999
279,33978,33974,-0.001187475398182869,0.05823926255106926,1.054819107055664,-1.5915452241897583,3.5764718055725098,-0.2100067436695099,2.036776065826416,4.018021583557129,0.30768123269081116,-0.1102491021156311,-0.048501137644052505,0.8940646052360535
280,33988,33984,0.012073632329702377,0.05079443380236626,1.0447773933410645,-1.3731083869934082,2.250782012939453,-0.13966244459152222,2.0378262996673584,4.018771171569824,0.3074651062488556,-0.1330285221338272,-0.0771222934126854,0.8957638740539551
281,33998,33994,-0.05636593699455261,0.024830905720591545,1.0558274984359741,-1.6629234552383423,2.524261713027954,-0.45788493752479553,2.0388729572296143,4.0192084312438965,0.30721062421798706,-0.1452646255493164,-0.10050351917743683,0.915306568145752
282,34008,34004,-0.0729614645242691,0.06192033365368843,1.013348937034607,-0.9134325981140137,2.481736183166504,-0.28828853368759155,2.038999557495117,4.019489765167236,0.3070657551288605,-0.06919648498296738,-0.12388625741004944,0.8912249207496643
283,34018,34014,0.020933102816343307,0.10632257908582687,0.9952619671821594,-0.4994805157184601,1.8456215858459473,-0.23028595745563507,2.0393917560577393,4.018747329711914,0.30834829807281494,-0.09303493797779083,-0.13759934902191162,0.8873300552368164
284,34028,34024,0.03700319677591324,-0.029061270877718925,0.9684848785400391,0.47732582688331604,1.0592063665390015,-0.22192373871803284,2.039900779724121,4.0177388191223145,0.3082607090473175,-0.11806722730398178,-0.14592665433883667,0.8714725375175476
285,34038,34034,-0.02477269433438778,0.0011032975744456053,1.0617817640304565,1.565482497215271,1.385514497756958,0.19320990145206451,2.040963888168335,4.018499374389648,0.3081722855567932,-0.20243050158023834,-0.20138096809387207,0.8745368719100952
286,34048,34044,0.038726214319467545,-0.018693920224905014,0.9734272360801697,2.2493646144866943,2.0899593830108643,-0.03883228451013565,2.0420827865600586,4.018730163574219,0.30732646584510803,-0.21628624200820923,-0.1891062706708908,0.8753681778907776
287,34058,34054,-0.03209604322910309,-0.056341178715229034,1.084874153137207,2.749502658843994,1.3819700479507446,-0.0646725445985794,2.0421154499053955,4.017845153808594,0.307274729013443,-0.23297367990016937,-0.06899955123662949,0.8628450632095337
288,34068,34064,-0.02268131449818611,0.001042064162902534,1.0135867595672607,1.8760420083999634,0.34230437874794006,-0.0034984215162694454,2.0429155826568604,4.0180768966674805,0.3071974813938141,-0.23231062293052673,-0.024398697540163994,0.8946982026100159
289,34078,34074,0.021710051223635674,0.15744894742965698,0.9858585596084595,-0.6707304120063782,-0.08187604695558548,-0.7127264142036438,2.0447070598602295,4.017933368682861,0.30711227655410767,-0.2961980700492859,0.005310583394020796,0.8937091827392578
290,34088,34084,-0.02212970331311226,0.08875063806772232,1.0280503034591675,-2.181962728500366,-1.8736401796340942,-1.0160926580429077,2.0446112155914307,4.017559051513672,0.308164119720459,-0.20439361035823822,-0.00265331519767642,0.8835774064064026
291,34098,34094,0.016113534569740295,0.04361022263765335,1.0170481204986572,-2.6834537982940674,-3.098015069961548,-0.889929473400116,2.044703483581543,4.017443656921387,0.30828240513801575,-0.09562215209007263,-0.03883356973528862,0.8544206023216248
292,34108,34104,-0.006713595241308212,0.02298116870224476,1.0265687704086304,-2.967500686645508,-4.604197978973389,-0.7069189548492432,2.0465011596679688,4.017766952514648,0.30825674533843994,-0.204263374209404,-0.08545588701963425,0.8309729695320129
293,34118,34114,-0.030337274074554443,-0.030730891972780228,1.0094733238220215,-2.896763324737549,-1.220856785774231,-0.5501196980476379,2.0471243858337402,4.017714023590088,0.30965903401374817,-0.12534268200397491,-0.1346612274646759,0.8321490287780762
294,34128,34124,0.009019809775054455,-0.02700430154800415,0.9882712960243225,-1.7306994199752808,3.1942689418792725,-0.5154139399528503,2.04770565032959,4.0164361000061035,0.30984431505203247,-0.08486998826265335,-0.10351068526506424,0.7982113361358643
295,34138,34134,0.14489732682704926,-0.10363706201314926,0.9890247583389282,0.4218681752681732,2.5550377368927,-0.5988929271697998,2.048640012741089,4.016540050506592,0.31000202894210815,-0.0978795662522316,-0.13720259070396423,0.7928286790847778
296,34148,34144,0.13390128314495087,-0.15929707884788513,0.9764349460601807,1.4070874452590942,3.307018995285034,-0.7538469433784485,2.04974627494812,4.015690803527832,0.3141162693500519,-0.1973811239004135,-0.061515841633081436,0.790459394454956
297,34158,34154,0.015677621588110924,-0.018919598311185837,0.9916855692863464,0.9867270588874817,1.6585074663162231,-1.3428633213043213,2.0500001907348633,4.015594005584717,0.314571350812912,-0.15140019357204437,-0.049127768725156784,0.7840545177459717
298,34168,34164,-0.06174231693148613,0.09182898700237274,1.0458602905273438,-0.7201480269432068,0.421518474817276,-1.4837936162948608,2.051609754562378,4.01707649230957,0.31492185592651367,-0.2432342767715454,-0.1165739968419075,0.7997434735298157
299,34178,34174,0.022225582972168922,-0.03814694657921791,0.9536302089691162,-1.3850088119506836,-0.9934834837913513,-1.4812309741973877,2.053091287612915,4.016901969909668,0.31525281071662903,-0.31705132126808167,-0.12696363031864166,0.8241355419158936
300,34188,34184,0.06261805444955826,-0.05812755599617958,0.9435921311378479,-1.5879931449890137,-1.9439210891723633,-1.9597117900848389,2.0528135299682617,4.01784086227417,0.3149448335170746,-0.20120437443256378,-0.14793330430984497,0.8082085847854614
301,34198,34194,0.02000419981777668,0.018441306427121162,0.9932645559310913,-0.16647198796272278,-4.957273960113525,-1.552923560142517,2.054300308227539,4.017800807952881,0.31523382663726807,-0.2250816375017166,-0.16891096532344818,0.7829809784889221
302,34208,34204,0.004202757030725479,0.009102698415517807,1.0153489112854004,1.200095534324646,-2.090277910232544,-1.55620276927948,2.0546317100524902,4.017950534820557,0.31557607650756836,-0.13951335847377777,-0.17495577037334442,0.7469740509986877
303,34218,34214,0.014007738791406155,-0.05347286909818649,0.9499191641807556,2.48543119430542,-1.1492974758148193,-1.2717933654785156,2.055341958999634,4.017264366149902,0.31705808639526367,-0.08367995917797089,-0.15831968188285828,0.7319316267967224
304,34228,34224,0.039708543568849564,-0.053573016077280045,0.9131466746330261,2.413412094116211,-0.13341420888900757,-1.6946946382522583,2.0561883449554443,4.017021179199219,0.31739795207977295,-0.13255341351032257,-0.1220695897936821,0.7178526520729065
305,34238,34234,0.007776159793138504,-0.012055546045303345,0.9393541812896729,2.3642101287841797,1.2327016592025757,-1.2692193984985352,2.056091070175171,4.017458438873291,0.3178241550922394,-0.04810764640569687,-0.16503074765205383,0.7002288103103638
306,34248,34244,-0.00976513884961605,-0.0683942660689354,0.9432737231254578,1.989713191986084,0.25133946537971497,-1.3263177871704102,2.0576820373535156,4.016786098480225,0.31834501028060913,-0.1911795288324356,-0.10396858304738998,0.682783305644989
307,34258,34254,-0.034820735454559326,-0.05872255936264992,0.9703817367553711,2.1824817657470703,1.3056687116622925,-0.3852921426296234,2.059436082839966,4.017484188079834,0.31849417090415955,-0.19318751990795135,-0.07978666573762894,0.6587480902671814
308,34268,34264,0.021840009838342667,-0.13984881341457367,0.957958996295929,0.38971003890037537,1.5196388959884644,-0.9580820798873901,2.059741735458374,4.017920017242432,0.3186529576778412,-0.19844885170459747,-0.12061797082424164,0.6787930130958557
309,34278,34274,-0.008138509467244148,-0.08000465482473373,0.9670360684394836,0.38853952288627625,0.29172778129577637,-1.1393660306930542,2.0599005222320557,4.017902374267578,0.31756240129470825,-0.13425472378730774,-0.09815004467964172,0.6703061461448669
310,34288,34284,0.0014315524604171515,-0.1774882972240448,0.9583967924118042,0.044807106256484985,-0.0899525135755539,-1.0083703994750977,2.060556650161743,4.01759672164917,0.31757867336273193,-0.13160142302513123,-0.08239013701677322,0.6550905704498291
311,34298,34294,0.022503182291984558,-0.07375714927911758,0.9567743539810181,0.5991895198822021,-0.6074496507644653,-1.2865982055664062,2.061319351196289,4.017095565795898,0.3175526559352875,-0.11971370875835419,-0.06840741634368896,0.6344686150550842
312,34308,34304,0.0038528370205312967,-0.10598547011613846,1.0041658878326416,0.8130182027816772,0.4390818774700165,-0.9902099370956421,2.061087131500244,4.017321586608887,0.3176073431968689,-0.15414351224899292,-0.042570244520902634,0.5977741479873657
313,34318,34314,0.00935290940105915,-0.0860113874077797,0.9929591417312622,1.7197813987731934,2.161156415939331,-0.4568699896335602,2.0631015300750732,4.017222881317139,0.31242260336875916,-0.1451508104801178,-0.03499216586351395,0.6145234704017639
314,34328,34324,-0.029728641733527184,0.009443380869925022,1.0323173999786377,1.6829811334609985,0.7044892311096191,-0.26128509640693665,2.063955068588257,4.017089366912842,0.3120773732662201,-0.13815876841545105,0.012127039022743702,0.6109990477561951
315,34338,34334,0.006998054217547178,0.018684273585677147,1.0091925859451294,-0.2169986516237259,4.847322940826416,-1.2184569835662842,2.0643608570098877,4.017091274261475,0.31176137924194336,-0.1429096758365631,0.03005128912627697,0.6161128282546997
316,34348,34344,0.0868581086397171,0.013108661398291588,0.8862682580947876,-0.8780120611190796,3.5718157291412354,-1.0114622116088867,2.064943313598633,4.01786994934082,0.3126675486564636,-0.1996764838695526,-0.12487494200468063,0.587703287601471
317,34358,34354,0.05407992750406265,-0.04121783748269081,0.9199551343917847,0.4715782701969147,-1.624497890472412,-1.1038209199905396,2.065062999725342,4.018537521362305,0.3124544024467468,-0.1436329483985901,-0.11898283660411835,0.5832996368408203
318,34368,34364,0.07139525562524796,-0.008501443080604076,0.9504854083061218,1.098151445388794,2.483224391937256,-1.00107741355896,2.0650196075439453,4.01791524887085,0.31209102272987366,-0.1305217444896698,-0.09999779611825943,0.5661283731460571
319,34378,34374,0.007274131290614605,0.02909858711063862,0.9977952837944031,2.8700239658355713,-0.10506545752286911,-0.6788309216499329,2.0657382011413574,4.017519950866699,0.31344568729400635,-0.15304148197174072,-0.072215735912323,0.5589785575866699
320,34388,34384,-0.029494913294911385,0.07326941192150116,1.0003443956375122,3.9670636653900146,0.6037642359733582,-0.17599445581436157,2.065412759780884,4.017428874969482,0.31315574049949646,-0.07087003439664841,-0.013299403712153435,0.55147385597229
321,34398,34394,-0.05154542997479439,0.07766328006982803,0.9991007447242737,3.8873679637908936,2.714137077331543,-0.3202294707298279,2.067660093307495,4.016278266906738,0.3127051293849945,-0.238522008061409,0.05826439708471298,0.5373124480247498
322,34408,34404,-0.06285107880830765,0.031673166900873184,1.0346094369888306,2.297560930252075,3.670701265335083,0.03126675635576248,2.0674049854278564,4.017090797424316,0.3124416172504425,-0.13894569873809814,0.07471951097249985,0.5249835848808289
323,34418,34414,0.0006614357698708773,-0.019911296665668488,0.9871755838394165,0.4053468108177185,1.64536714553833,0.260219931602478,2.0674548149108887,4.0168328285217285,0.31372395157814026,-0.17908094823360443,0.10352979600429535,0.5235347151756287
324,34428,34424,-0.013694423250854015,0.08302444219589233,1.0172675848007202,-0.522137463092804,-0.001873558503575623,-0.2961781919002533,2.069638729095459,4.017416477203369,0.3133843243122101,-0.37097784876823425,0.04528335481882095,0.5403969287872314
325,34438,34434,-0.04886660352349281,0.0557238906621933,1.0675936937332153,-0.4957931637763977,-0.18577240407466888,-0.13505162298679352,2.0699357986450195,4.01825475692749,0.3132959306240082,-0.2795301377773285,0.05222390219569206,0.556814968585968
326,34448,34444,-0.018768375739455223,0.009288651868700981,1.024540901184082,0.3882010281085968,-0.22200952470302582,-0.696717381477356,2.0699105262756348,4.01742696762085,0.31385084986686707,-0.3234429359436035,0.1392025500535965,0.5526764392852783
327,34458,34454,0.008760434575378895,0.010945593006908894,1.0259567499160767,1.1399168968200684,-0.36210745573043823,-0.9514603018760681,2.0719780921936035,4.016992092132568,0.3136640787124634,-0.32398611307144165,0.13914184272289276,0.5218833088874817
328,34468,34464,-0.0031180798541754484,-0.013840570114552975,0.9893114566802979,2.065236806869507,-0.430282860994339,-0.621512234210968,2.0731356143951416,4.017451763153076,0.3136316239833832,-0.3014525771141052,0.07927155494689941,0.5073120594024658
329,34478,34474,0.025769442319869995,-0.04315774515271187,0.9379944801330566,1.7441858053207397,-0.1925317347049713,-0.32248958945274353,2.0730786323547363,4.017042636871338,0.3120787739753723,-0.26388806104660034,0.14042548835277557,0.45772188901901245
330,34488,34484,0.0017566679744049907,-0.022741813212633133,0.9636801481246948,1.740057110786438,-1.0611368417739868,0.220033660531044,2.0747337341308594,4.016597747802734,0.3118525445461273,-0.2632463872432709,0.1558385193347931,0.4669768512248993
331,34498,34494,-0.0101062823086977,-0.042716145515441895,1.004852294921875,1.1435256004333496,-1.294719934463501,0.16797411441802979,2.076744318008423,4.01646089553833,0.31161409616470337,-0.34436988830566406,0.1994498074054718,0.49068599939346313
332,34508,34504,-0.03316951543092728,-0.0019989062566310167,1.0469110012054443,-0.30228492617607117,-0.5002168416976929,-0.0127234673127532,2.0777037143707275,4.016793251037598,0.3113372325897217,-0.3295609652996063,0.2134031355381012,0.4816421866416931
333,34518,34514,0.016577797010540962,-0.1290072351694107,1.014661192893982,-0.6064544320106506,-0.530458390712738,-0.44009459018707275,2.0784428119659424,4.016114234924316,0.3092786371707916,-0.2941107153892517,0.21430620551109314,0.44956594705581665
334,34528,34524,0.026557613164186478,-0.07488194853067398,1.0326135158538818,-1.0728623867034912,-1.5000041723251343,-0.5427306294441223,2.0799522399902344,4.0168232917785645,0.30894502997398376,-0.29635366797447205,0.1350848525762558,0.4104233384132385
335,34538,34534,-0.012152561917901039,-0.04484144598245621,0.9944043755531311,-1.397288203239441,-2.6755123138427734,-0.14690186083316803,2.0806708335876465,4.016493797302246,0.3086968660354614,-0.31517934799194336,0.12375263124704361,0.42177441716194153
336,34548,34544,0.02533942088484764,-0.08519267290830612,0.9358166456222534,0.32955268025398254,-3.0524773597717285,-0.4477793872356415,2.0822789669036865,4.016576766967773,0.3095416724681854,-0.23993927240371704,0.045906029641628265,0.4495292901992798
337,34558,34554,-0.012594782747328281,0.02339255064725876,1.0526584386825562,1.7265039682388306,-3.2390480041503906,-0.45117470622062683,2.0824053287506104,4.017831325531006,0.30936476588249207,-0.3112347424030304,0.14789260923862457,0.44589272141456604
338,34568,34564,0.0002147234044969082,-0.00040951307164505124,0.9813997745513916,3.2041690349578857,-0.03179977461695671,-0.33711713552474976,2.0845730304718018,4.016382217407227,0.3090410530567169,-0.23616626858711243,0.1907770335674286,0.41368377208709717
339,34578,34574,0.07350141555070877,0.06830569356679916,0.9038174152374268,3.8375766277313232,-2.9438090324401855,-0.18194276094436646,2.0853593349456787,4.016113758087158,0.30778932571411133,-0.08984488993883133,0.2488001435995102,0.3819822072982788
340,34588,34584,-0.009509875439107418,0.039834972470998764,1.0454707145690918,2.1151602268218994,-3.194700002670288,0.08253248035907745,2.084881544113159,4.015063285827637,0.30760496854782104,-0.06283263117074966,0.2853887975215912,0.38819339871406555
341,34598,34594,0.012850629165768623,-6.38074052403681e-05,1.003740906715393,-0.17914524674415588,-3.244940757751465,-0.09581911563873291,2.086106300354004,4.015862941741943,0.3071480095386505,-0.09383878856897354,0.244037926197052,0.42110443115234375
342,34608,34604,-0.0001470158458687365,-0.03198779746890068,0.9867458343505859,-2.8194689750671387,-1.354020357131958,-0.6407888531684875,2.085984230041504,4.0166916847229,0.30693796277046204,0.04615278169512749,0.3029833137989044,0.45688915252685547
343,34618,34614,-0.07670444995164871,0.064549021422863,1.0242109298706055,-4.426375865936279,-1.435645580291748,-0.6284520626068115,2.0857906341552734,4.015939712524414,0.30669888854026794,-0.14632973074913025,0.24223504960536957,0.4236757755279541
344,34628,34624,-0.01492813415825367,0.03542213514447212,0.9866705536842346,-5.488633155822754,0.5398015379905701,-0.2604844868183136,2.0883030891418457,4.016277313232422,0.30628836154937744,-0.02912077307701111,0.1608406901359558,0.398031622171402
345,34638,34634,0.00637966999784112,-0.02771010622382164,1.0099934339523315,-4.619819164276123,0.8760769963264465,-0.21098393201828003,2.0883560180664062,4.0160980224609375,0.3061201572418213,-0.014356553554534912,0.0785977765917778,0.3965317904949188
346,34648,34644,-0.02248625084757805,0.015490724705159664,1.0419344902038574,-2.171689748764038,1.400286316871643,0.18163301050662994,2.0891096591949463,4.015751838684082,0.30154138803482056,-0.08651088178157806,0.023206055164337158,0.36230194568634033
347,34658,34654,0.04001697897911072,-0.03311914950609207,0.9781236052513123,0.9092352390289307,1.4747859239578247,0.3630397915840149,2.0903475284576416,4.015833377838135,0.3009772002696991,-0.0773196816444397,0.012985343113541603,0.37944334745407104
348,34668,34664,-0.014064239338040352,0.010682872496545315,1.0467959642410278,3.3990538120269775,0.7859973311424255,0.4250134527683258,2.09136962890625,4.016026020050049,0.30052444338798523,-0.0886499360203743,0.019798196852207184,0.3771738111972809
349,34678,34674,0.01097983680665493,-0.06805942207574844,1.0173674821853638,4.9785895347595215,-0.2121358960866928,0.47701436281204224,2.0911238193511963,4.015120983123779,0.2951139211654663,-0.19048747420310974,0.18916325271129608,0.3521818518638611
350,34688,34684,0.014065454714000225,0.0009427162585780025,1.0660921335220337,4.338321208953857,0.164816215634346,0.7882378101348877,2.0942020416259766,4.014257431030273,0.29422444105148315,-0.06445880979299545,0.25803762674331665,0.3616626262664795
351,34698,34694,0.017574362456798553,-0.03854430839419365,0.9947157502174377,0.6037123799324036,-0.0625743642449379,0.8483612537384033,2.092493772506714,4.012454986572266,0.2936224639415741,-0.1142626404762268,0.2906971275806427,0.27641868591308594
352,34708,34704,-0.02641630545258522,-0.005879213102161884,1.049937129020691,-3.566390037536621,-0.29297327995300293,1.2099255323410034,2.0941402912139893,4.01190185546875,0.294666588306427,-0.004403849132359028,0.26071181893348694,0.2721938192844391
353,34718,34714,0.028568005189299583,0.020556854084134102,1.0528360605239868,-6.405425548553467,-1.063693642616272,1.0254693031311035,2.0928287506103516,4.012148857116699,0.2941822111606598,-0.05240984633564949,0.17443335056304932,0.3476315438747406
354,34728,34724,-0.014677045866847038,-0.04917178303003311,1.0278621912002563,-7.063096523284912,-0.41329675912857056,0.6203718185424805,2.0938432216644287,4.013226509094238,0.2937013506889343,-0.09041003882884979,0.13567329943180084,0.3674553632736206
355,34738,34734,0.02206592448055744,0.04026975855231285,1.0533469915390015,-5.841150760650635,0.2013806402683258,0.26786544919013977,2.0947768688201904,4.013028621673584,0.29314950108528137,-0.12923741340637207,0.01998431235551834,0.4088231027126312
356,34748,34744,-0.023334218189120293,-0.026486048474907875,1.0755647420883179,-2.873964548110962,-0.37033888697624207,0.5992218852043152,2.0961251258850098,4.014132499694824,0.29373157024383545,-0.01202394999563694,-0.058567747473716736,0.3949841856956482
357,34758,34754,0.05243451148271561,-0.012342564761638641,1.0023010969161987,0.2697628438472748,-1.6339259147644043,0.5536271929740906,2.096088171005249,4.014066696166992,0.29358798265457153,-0.20052030682563782,-0.01132254209369421,0.4238695502281189
358,34768,34764,-0.047487616539001465,-0.1632414162158966,1.1126987934112549,3.9322309494018555,-1.9083898067474365,0.0823625922203064,2.0989623069763184,4.013219356536865,0.2932071089744568,-0.05594027787446976,0.004158441908657551,0.4158625304698944
359,34778,34774,0.023607809096574783,-0.07831636071205139,1.03557288646698,4.835704326629639,-1.5633560419082642,0.5209268927574158,2.098616123199463,4.013359546661377,0.2941507399082184,0.008956976234912872,0.06214531883597374,0.44497349858283997
360,34788,34784,-0.030646752566099167,0.00812838226556778,1.0728046894073486,3.316542863845825,-1.7580578327178955,0.38995087146759033,2.0994927883148193,4.0122222900390625,0.29413095116615295,-0.011711773462593555,0.11957040429115295,0.40604978799819946
361,34798,34794,0.020311636850237846,0.1507035344839096,1.045085072517395,0.3857327103614807,-1.4162156581878662,0.812099277973175,2.100314140319824,4.011593341827393,0.29406169056892395,0.003933070693165064,0.15198665857315063,0.3575378954410553
362,34808,34804,0.0004528293793555349,0.05974223464727402,1.0292342901229858,-2.8348774909973145,-2.0593600273132324,0.9344578385353088,2.101794719696045,4.0111083984375,0.299187034368515,0.09467411786317825,0.11461608111858368,0.37829694151878357
363,34818,34814,-0.0030628459062427282,-0.03261933475732803,1.0264129638671875,-5.2819437980651855,-1.51254403591156,0.6106635928153992,2.1005334854125977,4.009131908416748,0.2995963990688324,-0.0011273284908384085,0.11891867220401764,0.32501310110092163
364,34828,34824,-0.10937714576721191,0.02885725349187851,1.0100666284561157,-6.034500598907471,-1.8784507513046265,0.9465954303741455,2.1023550033569336,4.009401798248291,0.29989495873451233,-0.013806280680000782,0.01665867306292057,0.30832284688949585
365,34838,34834,-0.08499714732170105,0.0109123345464468,1.004330039024353,-4.921453952789307,0.3159128427505493,0.7919007539749146,2.1034412384033203,4.0085835456848145,0.300857812166214,0.04176394268870354,-0.08229903131723404,0.28354412317276
366,34848,34844,0.004986330401152372,-0.02906179241836071,1.0082298517227173,-1.6440335512161255,0.5498799681663513,0.7718137502670288,2.1030383110046387,4.00763463973999,0.30127623677253723,-0.0033483216539025307,-0.14692029356956482,0.2136932760477066
367,34858,34854,0.024958772584795952,-0.0039328099228441715,1.0261168479919434,1.751207709312439,0.01541999913752079,0.9307959675788879,2.1042470932006836,4.007217884063721,0.30170533061027527,0.03124610334634781,-0.15462081134319305,0.22231318056583405
368,34868,34864,0.03717358037829399,-0.10834291577339172,1.0103168487548828,4.424318790435791,-1.2322202920913696,0.8134713172912598,2.104147434234619,4.005319118499756,0.30213823914527893,0.07695375382900238,-0.11243981868028641,0.1799403876066208
369,34878,34874,0.05454103276133537,-0.1302771121263504,0.9470677375793457,4.728168487548828,-1.421764850616455,1.1570662260055542,2.104218006134033,4.00535249710083,0.2997489869594574,0.05374358221888542,0.03219037875533104,0.13910651206970215
370,34888,34884,-0.026463666930794716,-0.02676567994058132,1.0437862873077393,4.384626388549805,-2.106621265411377,1.0510021448135376,2.104989767074585,4.003114223480225,0.2999975085258484,-0.036871712654829025,0.09351614117622375,0.14905844628810883
371,34898,34894,-0.021747315302491188,-0.0052629504352808,0.985324501991272,2.0107154846191406,-0.754044234752655,0.8444268107414246,2.106809139251709,4.00313138961792,0.3001600205898285,-0.04611010476946831,0.13586586713790894,0.12494538724422455
372,34908,34904,0.007980108261108398,-0.08071442693471909,0.9902589321136475,-2.0994505882263184,-2.360069751739502,0.6995566487312317,2.1082937717437744,4.002274513244629,0.30070632696151733,0.0392063669860363,0.1285857856273651,0.11596561223268509
373,34918,34914,-0.004255836829543114,-0.005494863726198673,1.0080848932266235,-5.15536642074585,-2.913109540939331,0.432379812002182,2.1089792251586914,4.001979351043701,0.3010769784450531,0.12067849934101105,0.06466551870107651,0.11541683971881866
374,34928,34924,0.02330961637198925,-0.012538758106529713,0.9701000452041626,-6.738586902618408,-2.74578857421875,0.6309071183204651,2.1094131469726562,4.002162933349609,0.30144938826560974,0.19333745539188385,-0.03739631921052933,0.12475225329399109
375,34938,34934,0.0005589220090769231,-0.00113557162694633,1.0008223056793213,-5.262969970703125,-2.6336004734039307,0.23244626820087433,2.1095492839813232,4.002657413482666,0.3015129864215851,0.21621844172477722,-0.10096965730190277,0.15014973282814026
376,34948,34944,0.01684844307601452,-0.041539452970027924,0.9661365747451782,-2.5767948627471924,0.2078108787536621,0.3773425221443176,2.11080265045166,4.0022077560424805,0.3017277717590332,0.08518728613853455,-0.14439529180526733,0.08327969908714294
377,34958,34954,0.04384613037109375,-0.14549605548381805,0.9569334387779236,0.29910537600517273,-0.5106081962585449,0.4639275074005127,2.1123666763305664,4.002163887023926,0.3018236756324768,0.05258463695645332,-0.10113190114498138,0.14007508754730225
378,34968,34964,-0.020999077707529068,0.1271493136882782,0.9959303140640259,1.7630362510681152,-0.13826853036880493,0.37045761942863464,2.1136229038238525,4.000919342041016,0.30197057127952576,0.10810494422912598,-0.1003175750374794,0.15440133213996887
379,34978,34974,-0.06529092788696289,0.16384316980838776,0.9965580701828003,3.368665933609009,-0.34893283247947693,0.12049426883459091,2.1140267848968506,4.001469612121582,0.3010994791984558,0.08430694043636322,-0.07464641332626343,0.15022751688957214
380,34988,34984,-0.0222031157463789,0.004798976704478264,0.953531801700592,2.5299911499023438,0.6191782355308533,0.63787841796875,2.1151797771453857,4.000833511352539,0.3011295795440674,0.20963765680789948,0.03927181661128998,0.1356799304485321
381,34998,34994,0.028813129290938377,-0.16166147589683533,0.9398524165153503,-0.044667355716228485,-0.6466211080551147,0.3030778467655182,2.1153321266174316,4.000170707702637,0.30131739377975464,0.16833077371120453,0.04184701666235924,0.13232015073299408
382,35008,35004,0.005015718750655651,-0.04253515601158142,0.9732048511505127,-2.1485135555267334,-0.7358710765838623,0.12959721684455872,2.1171951293945312,4.000716686248779,0.30019187927246094,0.21720251441001892,0.012311856262385845,0.17051823437213898
383,35018,35014,0.01299204584211111,-0.020761391147971153,0.967430830001831,-4.9029927253723145,-0.9547227621078491,-0.2455003708600998,2.1178624629974365,4.000782012939453,0.30015286803245544,0.1859309822320938,-0.053949981927871704,0.19982515275478363
384,35028,35024,-0.012449154630303383,-0.0005768556147813797,1.002061367034912,-5.442100524902344,-0.8917626738548279,-0.8649174571037292,2.118997812271118,4.001097202301025,0.3000090420246124,0.23477570712566376,-0.14577002823352814,0.197726771235466
385,35038,35034,0.009582366794347763,0.005805044900625944,0.9944180846214294,-6.5364766120910645,-0.06285140663385391,-0.6544199585914612,2.1198906898498535,4.002098083496094,0.29962390661239624,0.2734401226043701,-0.25461581349372864,0.2072712779045105
386,35048,35044,0.012342428788542747,0.008955650962889194,0.9982413053512573,-4.654595375061035,0.7519503831863403,-0.7296628952026367,2.120591402053833,4.002657413482666,0.29949212074279785,0.21822316944599152,-0.1922689825296402,0.14890745282173157
387,35058,35054,0.019087472930550575,-0.030434751883149147,0.9699969291687012,-1.017434000968933,1.8213845491409302,-0.17246831953525543,2.121843099594116,4.001096725463867,0.29932722449302673,0.22901086509227753,-0.25588786602020264,0.141392782330513
388,35068,35064,-0.041211917996406555,0.04976190626621246,0.9935330748558044,1.8475795984268188,1.6637415885925293,0.060025498270988464,2.1222641468048096,4.000276565551758,0.2991538345813751,0.22772307693958282,-0.26486870646476746,0.0889621153473854
389,35078,35074,-0.0020910457242280245,0.0016306941397488117,1.0038467645645142,2.9234232902526855,1.3418331146240234,0.4550650417804718,2.1225481033325195,3.9993934631347656,0.300418883562088,0.23062698543071747,-0.16090336441993713,0.0847146287560463
390,35088,35084,0.09268142282962799,-0.17121580243110657,0.9914189577102661,2.7841956615448,1.4601929187774658,0.3197866678237915,2.1231818199157715,3.997746467590332,0.30034077167510986,0.08419837802648544,-0.1315697431564331,0.07898824661970139
391,35098,35094,0.02555171214044094,-0.06379859894514084,1.0242691040039062,0.8305631279945374,1.9929059743881226,0.024686003103852272,2.125631809234619,3.9980242252349854,0.30014368891716003,0.1749582141637802,-0.11787188798189163,0.08165169507265091
392,35108,35104,-0.0015652227448299527,-0.08817455917596817,1.005163311958313,-1.7163304090499878,2.157259702682495,-0.4521651864051819,2.125256299972534,3.997925281524658,0.2990751564502716,0.09623492509126663,-0.1379716992378235,0.08967205882072449
393,35118,35114,0.02111552096903324,-0.07397720217704773,1.0081117153167725,-3.076087236404419,1.2024211883544922,-0.2177608609199524,2.1264328956604004,3.9982101917266846,0.29893040657043457,0.07993229478597641,-0.15319550037384033,0.10036559402942657
394,35128,35124,-0.00028201701934449375,0.01237032376229763,0.9943825006484985,-3.8697807788848877,0.6894137859344482,0.12077514827251434,2.1261603832244873,3.9983651638031006,0.2989805042743683,0.03998573124408722,-0.25731778144836426,0.11450541764497757
395,35138,35134,0.02501106634736061,-0.05381137505173683,0.9592486619949341,-3.167252779006958,0.17490388453006744,-0.06485357880592346,2.1288211345672607,3.998767614364624,0.29708442091941833,0.1465817540884018,-0.3261525630950928,0.10460171848535538
396,35148,35144,-0.01816593110561371,0.04582231119275093,1.0660709142684937,-1.521038293838501,1.593619704246521,-0.09806516766548157,2.128704786300659,3.9996085166931152,0.297031968832016,0.15594995021820068,-0.36915475130081177,0.14192010462284088
397,35158,35154,0.004017288330942392,0.019369198009371758,1.0153224468231201,0.6031726598739624,-1.3358243703842163,-0.4123344123363495,2.129922866821289,3.9997096061706543,0.2968863248825073,0.14653553068637848,-0.38060450553894043,0.12412676960229874
398,35168,35164,0.007067687343806028,-0.016711747273802757,1.0168064832687378,2.8269846439361572,-0.9776400327682495,-0.015524458140134811,2.1319468021392822,3.9997305870056152,0.2966143786907196,0.087869793176651,-0.34377312660217285,0.09079360961914062
399,35178,35174,-0.022680561989545822,0.013605454005300999,1.0366878509521484,4.022238254547119,-0.5488543510437012,0.33087772130966187,2.1326208114624023,3.999114513397217,0.2962914705276489,0.20630599558353424,-0.2866609990596771,0.0983678326010704
400,35188,35184,0.0152727160602808,-0.026106122881174088,1.0091286897659302,4.626372814178467,-0.6984443664550781,0.4573376774787903,2.132552146911621,3.997947931289673,0.2962656319141388,0.1590428203344345,-0.2176695317029953,0.043022360652685165
401,35198,35194,-0.028710540384054184,-0.016196588054299355,1.0274635553359985,3.085869550704956,2.252520799636841,1.2860647439956665,2.1339643001556396,3.997563123703003,0.29612407088279724,0.1688561737537384,-0.1585433930158615,0.06222482770681381
402,35208,35204,-0.03447119891643524,-0.019405322149395943,1.0303127765655518,0.7744445204734802,3.877054452896118,1.5777952671051025,2.1354117393493652,3.9985435009002686,0.2996259033679962,-0.004171629436314106,-0.20780247449874878,0.11677038669586182
403,35218,35214,0.08762631565332413,-0.07353949546813965,1.0099737644195557,-0.8516287207603455,3.6087353229522705,0.24834853410720825,2.1374824047088623,3.999006986618042,0.29967522621154785,0.052500613033771515,-0.20382636785507202,0.15995705127716064
404,35228,35224,0.011815683916211128,0.024295661598443985,1.0314947366714478,-1.7225412130355835,2.174504041671753,-0.2802625596523285,2.1375887393951416,3.999742031097412,0.29996344447135925,0.0348484143614769,-0.22095857560634613,0.1745380461215973
405,35238,35234,0.017288057133555412,-0.06224024295806885,0.9721553325653076,-1.5448817014694214,0.8073722124099731,-0.3490748703479767,2.1381866931915283,3.99894642829895,0.29599735140800476,0.022647518664598465,-0.23865149915218353,0.15882959961891174
406,35248,35244,-0.06362389773130417,0.043572332710027695,1.0581368207931519,0.324239581823349,-2.186821699142456,0.16315777599811554,2.1395885944366455,3.999356508255005,0.29593220353126526,-0.026752769947052002,-0.17719222605228424,0.18450766801834106
407,35258,35254,-0.03873132914304733,-0.13017098605632782,1.0343563556671143,0.9565842151641846,0.8227053880691528,-0.15440379083156586,2.139906883239746,3.999302387237549,0.2959754168987274,0.06873001158237457,-0.16742855310440063,0.16440176963806152
408,35268,35264,0.06669781357049942,-0.06656558066606522,0.9693211317062378,2.0539889335632324,-0.5894846320152283,0.17296262085437775,2.1404337882995605,3.9989736080169678,0.29881751537323,0.061800602823495865,-0.1562013030052185,0.13697001338005066
409,35278,35274,-0.008394880220293999,0.006401098798960447,1.0122658014297485,2.1405394077301025,-0.3165738880634308,0.30805954337120056,2.140242099761963,3.99922776222229,0.2990826368331909,0.11505869030952454,-0.18970294296741486,0.22185088694095612
410,35288,35284,-0.045182522386312485,0.00029220397118479013,1.0646568536758423,1.830549716949463,0.014055599458515644,-0.2850456237792969,2.1415319442749023,3.9994797706604004,0.29925593733787537,0.12462072819471359,-0.1686546355485916,0.22952809929847717
411,35298,35294,-0.07523047924041748,0.020881015807390213,1.101745843887329,1.1862719058990479,2.14837646484375,-0.0968824252486229,2.1426069736480713,4.000705718994141,0.2994474470615387,0.14645445346832275,-0.19447971880435944,0.21962378919124603
412,35308,35304,-0.0183444581925869,0.010995175689458847,1.0534876585006714,1.2362442016601562,2.298640012741089,-0.17127759754657745,2.142425775527954,4.000535011291504,0.29681068658828735,0.05494927614927292,-0.16563069820404053,0.22863253951072693
413,35318,35314,-0.012794471345841885,-0.004503041505813599,1.0075740814208984,2.2732675075531006,3.4880595207214355,-0.17427614331245422,2.143872022628784,4.0012993812561035,0.2969824969768524,0.10340681672096252,-0.13021837174892426,0.26257646083831787
414,35328,35324,0.00039044109871611,-0.040075063705444336,0.9722834229469299,2.5552268028259277,1.6373448371887207,-0.27078869938850403,2.1440882682800293,4.001879692077637,0.2972800135612488,0.07484573870897293,-0.10693065077066422,0.3321564495563507
415,35338,35334,0.04251386970281601,0.06610561162233353,0.9682092666625977,2.6159000396728516,2.0043723583221436,-0.7707750797271729,2.1441421508789062,4.001818656921387,0.29777705669403076,0.13524942100048065,-0.06460537761449814,0.30072787404060364
416,35348,35344,0.0412483811378479,0.025284986943006516,0.9602526426315308,1.902754545211792,2.4022581577301025,-0.7735540866851807,2.146655797958374,4.001742839813232,0.29784834384918213,-0.11983171105384827,-0.019959237426519394,0.3238738775253296
417,35358,35354,-0.030010603368282318,0.026445556432008743,1.0058808326721191,0.6422967314720154,1.9880986213684082,-0.7007317543029785,2.1472275257110596,4.002303600311279,0.2981368899345398,-0.11931505054235458,-0.05302082374691963,0.3085949420928955
418,35368,35364,-0.020193088799715042,0.016933051869273186,1.0013563632965088,0.01667840965092182,2.1285037994384766,-0.9013193249702454,2.1488840579986572,4.00259256362915,0.3009318709373474,-0.13932910561561584,-0.04505312815308571,0.32032477855682373
419,35378,35374,0.045029595494270325,-0.0622832216322422,0.9842827320098877,-0.05256867781281471,0.15731948614120483,-1.2931019067764282,2.149608612060547,4.002805709838867,0.3013603687286377,-0.04603002965450287,-0.03084663674235344,0.32386237382888794
420,35388,35384,0.003886946476995945,0.022652169689536095,1.0171760320663452,0.20877856016159058,-0.46602949500083923,-1.4250273704528809,2.1506402492523193,4.002871036529541,0.3017270565032959,-0.1040458232164383,-0.023412160575389862,0.3217354118824005
421,35398,35394,0.004504647571593523,-0.04107803851366043,0.9494534730911255,0.5568223595619202,-0.13356029987335205,-1.3677932024002075,2.1517937183380127,4.0033979415893555,0.3020046055316925,-0.09705192595720291,-0.01860831119120121,0.3238508701324463
422,35408,35404,0.01019109133630991,-0.06771089136600494,0.9632994532585144,1.3241524696350098,-0.868091881275177,-1.7326068878173828,2.151196002960205,4.003852844238281,0.29993095993995667,-0.06794652342796326,-0.08115468174219131,0.33340686559677124
423,35418,35414,-0.01028162706643343,0.026796063408255577,1.0206077098846436,0.6716852188110352,0.7978859543800354,-1.6596671342849731,2.1519761085510254,4.003861904144287,0.3000788688659668,-0.029664086177945137,-0.041012607514858246,0.29882416129112244
424,35428,35424,0.047000933438539505,-0.03608830273151398,0.9751269221305847,3.409808874130249,-0.200596421957016,-1.8350090980529785,2.153820276260376,4.003791332244873,0.3000665307044983,-0.17360831797122955,-0.009299672208726406,0.273714542388916
425,35438,35434,0.011497377417981625,0.0013778655556961894,1.0030039548873901,3.3776347637176514,-0.2807542383670807,-1.9781324863433838,2.1537816524505615,4.003243446350098,0.3012028634548187,-0.04346372187137604,0.08058717101812363,0.2566641569137573
426,35448,35444,0.04108390957117081,-0.12099938839673996,0.9525790214538574,1.456496238708496,-0.09991028159856796,-1.765055537223816,2.1543080806732178,4.00350284576416,0.3013530969619751,-0.04270366579294205,0.1112760528922081,0.26222118735313416
427,35458,35454,0.01857289858162403,-0.0942431166768074,0.962003231048584,0.18582284450531006,-0.1148710697889328,-2.214129686355591,2.1556060314178467,4.003393173217773,0.3014194667339325,-0.10216671228408813,0.05603213980793953,0.20049676299095154
428,35468,35464,-0.007718575652688742,-0.11355524510145187,0.9530659317970276,-1.010830283164978,0.08597314357757568,-1.6560090780258179,2.1580381393432617,4.004667282104492,0.30374598503112793,-0.04461485520005226,-0.0027481121942400932,0.1966094821691513
429,35478,35474,0.014200017787516117,-0.034925833344459534,0.9415150284767151,-1.3570901155471802,0.16752876341342926,-1.7229747772216797,2.157141923904419,4.004086494445801,0.30383995175361633,-0.10511965304613113,0.06892983615398407,0.1474202573299408
430,35488,35484,0.011745770461857319,0.009609401226043701,1.017853856086731,0.6248345375061035,-0.7247122526168823,-0.8323625922203064,2.158454179763794,4.00355863571167,0.3039643168449402,-0.10587196797132492,0.06197238340973854,0.10444537550210953
431,35498,35494,-0.03328225389122963,-0.16367694735527039,1.048789381980896,2.2284770011901855,0.9550825357437134,-1.3488850593566895,2.160385847091675,4.00296688079834,0.3039638102054596,-0.11411500722169876,0.10557317733764648,0.10903935134410858
432,35508,35504,-0.007799847982823849,-0.17001840472221375,0.9483703970909119,1.7601497173309326,-0.3679295480251312,-1.179060935974121,2.1599457263946533,4.002203464508057,0.30246105790138245,-0.11924702674150467,0.12509511411190033,0.050025422126054764
433,35518,35514,0.0399172380566597,-0.09580974280834198,0.9211474061012268,1.528271198272705,-0.6175294518470764,-0.862285852432251,2.159911632537842,4.002608776092529,0.302562415599823,-0.06571052223443985,0.09897846728563309,0.017478981986641884
434,35528,35524,0.0021284210961312056,0.009282231330871582,1.0022509098052979,0.6643524765968323,-0.9715016484260559,-0.6875864267349243,2.1612627506256104,4.001537322998047,0.30251699686050415,-0.05987521633505821,0.11298508942127228,-0.04817475005984306
435,35538,35534,0.0009485227637924254,0.0029058833606541157,0.9927555918693542,-0.3706934452056885,-0.6290209293365479,-0.29537317156791687,2.1614372730255127,4.0019989013671875,0.3026851415634155,-0.023824071511626244,0.050410088151693344,-0.08563969284296036
436,35548,35544,0.05116299167275429,0.017281727865338326,0.9661966562271118,-1.1639899015426636,1.0199625492095947,-0.4191955327987671,2.163651466369629,4.001422882080078,0.3025769591331482,-0.076837919652462,0.051732137799263,-0.0921788439154625
437,35558,35554,0.0058684516698122025,0.11951645463705063,1.0456362962722778,-1.5020040273666382,-0.12062951177358627,-0.6175059080123901,2.164036273956299,4.000009059906006,0.3025256395339966,-0.1549989879131317,0.11808550357818604,-0.12841960787773132
438,35568,35564,0.009545623324811459,0.04418987035751343,1.0110827684402466,-1.3726013898849487,-0.9565245509147644,-0.23537935316562653,2.1649632453918457,4.0008649826049805,0.30167457461357117,-0.046191535890102386,0.09652460366487503,-0.10408858954906464
439,35578,35574,0.012648433446884155,-0.012414559721946716,0.9834548830986023,-0.6545074582099915,-1.3131827116012573,-0.5450712442398071,2.165569305419922,4.000793933868408,0.3016516864299774,-0.0877002477645874,0.08129703253507614,-0.09974692016839981
440,35588,35584,-0.01105346530675888,-0.014275383204221725,0.9893827438354492,0.39540043473243713,-1.268645167350769,-0.5806346535682678,2.1660101413726807,4.001124382019043,0.30161741375923157,-0.03989333659410477,0.07898274809122086,-0.13654576241970062
441,35598,35594,-0.011014419607818127,-0.01154612097889185,1.0167937278747559,0.030165353789925575,-0.869921863079071,-0.2878221571445465,2.16729998588562,4.000436782836914,0.3022894561290741,-0.0698496475815773,0.08578651398420334,-0.14173679053783417
442,35608,35604,0.019018149003386497,-0.030302967876195908,1.0190396308898926,0.5282710790634155,-1.8179141283035278,-0.12156200408935547,2.168063163757324,4.000351905822754,0.30231428146362305,-0.030043546110391617,0.08757113665342331,-0.1382981538772583
443,35618,35614,0.041620105504989624,-0.08964880555868149,0.9891895651817322,0.7208391427993774,-0.01537953969091177,-0.6234177350997925,2.169492244720459,4.00137996673584,0.30225059390068054,-0.06112521514296532,0.024780187755823135,-0.1315554976463318
444,35628,35624,0.0033090664073824883,0.04324587807059288,0.9824356436729431,-0.09965051710605621,-0.4039357006549835,-0.731626033782959,2.170182228088379,4.001487731933594,0.3022511601448059,-0.030288873240351677,-0.030702056363224983,-0.1952327936887741
445,35638,35634,-0.006026634946465492,0.08500127494335175,0.9999449253082275,0.7125100493431091,0.4048303961753845,-0.5323973894119263,2.1705727577209473,4.00032901763916,0.3028833568096161,-0.00108821177855134,0.06212019920349121,-0.2697790265083313
446,35648,35644,0.018547018989920616,0.0376862995326519,0.9846949577331543,1.9052835702896118,0.32116109132766724,0.32412469387054443,2.170351028442383,3.999976396560669,0.3029896914958954,0.09779071062803268,0.009761781431734562,-0.2721026539802551
447,35658,35654,-0.0026028079446405172,0.005293696187436581,1.0135152339935303,1.8489294052124023,1.227562427520752,0.2581932544708252,2.1725575923919678,3.9992544651031494,0.30292415618896484,-0.04340285807847977,0.1290350705385208,-0.3046850562095642
448,35668,35664,-0.006736726965755224,0.07462634891271591,0.9716382622718811,2.6499171257019043,3.014399290084839,0.3743267357349396,2.173445463180542,3.9984073638916016,0.3056165874004364,-0.058066368103027344,0.1679367572069168,-0.31006547808647156
449,35678,35674,0.019912218675017357,0.07969620823860168,0.9675070643424988,1.356417179107666,1.701278805732727,0.3663093149662018,2.174243688583374,3.998009443283081,0.30578169226646423,-0.08794622868299484,0.13453462719917297,-0.34778842329978943
450,35688,35684,-0.01702464371919632,0.05227762088179588,1.0561960935592651,1.2913899421691895,1.2910926342010498,0.4239042103290558,2.174741506576538,3.9984467029571533,0.30598893761634827,-0.09825770556926727,0.16350015997886658,-0.3734684884548187
451,35698,35694,-0.03220394253730774,-0.08166303485631943,0.9969435334205627,0.519139289855957,-1.1823735237121582,0.425781786441803,2.17598032951355,3.998791217803955,0.30507180094718933,-0.16009950637817383,0.11061227321624756,-0.3319261372089386
452,35708,35704,0.010808606632053852,-0.12339809536933899,0.9382267594337463,-0.7891164422035217,1.8940601348876953,0.10856424272060394,2.1765336990356445,3.9987270832061768,0.30528542399406433,-0.04746415093541145,0.12426167726516724,-0.3034822344779968
453,35718,35714,0.06379523873329163,0.09473493695259094,0.9392186403274536,-0.6110720038414001,-1.9294826984405518,-0.04181891679763794,2.1773929595947266,3.9993412494659424,0.3053361177444458,-0.12314446270465851,0.12029577791690826,-0.29143592715263367
454,35728,35724,0.004124816041439772,0.03975749388337135,0.9957796931266785,0.16287833452224731,-2.3086540699005127,0.14330971240997314,2.178285837173462,3.9993038177490234,0.30534428358078003,-0.1354162096977234,0.12209736555814743,-0.2704767882823944
455,35738,35734,0.03766053542494774,0.029891759157180786,0.9853156805038452,0.67179274559021,-3.5895769596099854,0.07529571652412415,2.1796789169311523,3.9996256828308105,0.304847776889801,-0.13087911903858185,0.14064674079418182,-0.3063151240348816
456,35748,35744,0.006156391464173794,0.009533364325761795,0.9960564970970154,1.176544427871704,-3.728408098220825,0.49347159266471863,2.1807870864868164,3.9994211196899414,0.30477577447891235,-0.10516837984323502,0.16310259699821472,-0.2780765891075134
457,35758,35754,0.004549592267721891,-0.00996825285255909,0.9863429069519043,0.7100682258605957,-4.218527793884277,0.6466948986053467,2.180452823638916,3.9992897510528564,0.30484268069267273,0.06899403035640717,0.18667782843112946,-0.28928810358047485
458,35768,35764,0.034744538366794586,-0.04649821296334267,0.981727659702301,-0.014934876002371311,-1.7338099479675293,0.5862684845924377,2.1811516284942627,3.9991986751556396,0.3045271337032318,0.08320534974336624,0.19640564918518066,-0.26114845275878906
459,35778,35774,0.01813388615846634,-0.03683478385210037,0.9761905670166016,-1.5720512866973877,-0.03809310495853424,0.329592764377594,2.181516647338867,3.9989893436431885,0.3044455349445343,0.12905341386795044,0.19037654995918274,-0.2732803225517273
460,35788,35784,0.06430685520172119,-0.1100897267460823,0.9974724650382996,-1.9744338989257812,2.4011197090148926,0.16579987108707428,2.181863307952881,3.999178409576416,0.3043832778930664,0.13249048590660095,0.16532744467258453,-0.32539308071136475
461,35798,35794,0.006152037996798754,-0.031572528183460236,1.030202031135559,-2.0863096714019775,3.607919692993164,0.5908896327018738,2.1838884353637695,3.998904228210449,0.3024592995643616,-0.04223007708787918,0.1369461864233017,-0.28559356927871704
462,35808,35804,0.028242236003279686,-0.08314178138971329,0.9854793548583984,-1.6658190488815308,3.313875436782837,0.45748594403266907,2.184117317199707,3.99863338470459,0.3022818863391876,0.003277909243479371,0.11060046404600143,-0.3287331759929657
463,35818,35814,0.009723342023789883,-0.0678551197052002,0.9642045497894287,-1.190155029296875,1.6331969499588013,0.8217083811759949,2.1856703758239746,3.998427152633667,0.3019823133945465,-0.09948591887950897,0.08576183766126633,-0.28406915068626404
464,35828,35824,-0.042617447674274445,-0.09443370997905731,1.055589199066162,-0.32917335629463196,0.041617196053266525,0.7396342754364014,2.187192440032959,3.9982383251190186,0.3011419475078583,-0.16740301251411438,0.0711972564458847,-0.32343658804893494
465,35838,35834,-0.009542807005345821,-0.10438539832830429,1.0295355319976807,0.8065129518508911,-0.8095453977584839,0.886111319065094,2.1874444484710693,3.998152256011963,0.301021009683609,-0.05925558879971504,0.07620406895875931,-0.3209131062030792
466,35848,35844,0.021044490858912468,-0.14617669582366943,1.0171130895614624,1.4637531042099,-2.397022008895874,1.1582175493240356,2.188319206237793,3.9979734420776367,0.300863116979599,-0.019396349787712097,0.0971788689494133,-0.32129138708114624
467,35858,35854,-0.016524504870176315,-0.1167558878660202,1.0059797763824463,0.9044885635375977,-2.023610830307007,1.4219173192977905,2.188953399658203,3.997891426086426,0.30069801211357117,0.03907613828778267,0.12306077778339386,-0.2764817476272583
468,35868,35864,0.003971249330788851,-0.1744520366191864,1.0304123163223267,0.7690784335136414,-1.8548604249954224,1.222188115119934,2.1895854473114014,3.9992311000823975,0.3000362813472748,0.10091272741556168,0.06799158453941345,-0.2427213490009308
469,35878,35874,-0.03175797313451767,-0.04505770653486252,1.1022292375564575,0.48779478669166565,0.5396650433540344,0.6438837051391602,2.19260311126709,3.9986562728881836,0.29959097504615784,-0.011538736522197723,0.08957065641880035,-0.2620506286621094
470,35888,35884,0.0608515739440918,0.09649621695280075,0.9269658923149109,0.9011963605880737,3.884333610534668,0.9319811463356018,2.191645622253418,3.9991466999053955,0.2997184991836548,0.052366144955158234,0.10495175421237946,-0.22587095201015472
471,35898,35894,0.1036049947142601,0.15424326062202454,0.9313348531723022,0.8319292664527893,2.218297004699707,1.0807222127914429,2.1926300525665283,3.9996373653411865,0.29941773414611816,0.030903035774827003,0.12605689465999603,-0.2056238204240799
472,35908,35904,0.01611104980111122,0.09884228557348251,1.0323090553283691,0.8415552377700806,0.873707115650177,1.0986515283584595,2.1944777965545654,3.999293565750122,0.29916876554489136,-0.11825093626976013,0.1446835994720459,-0.23296858370304108
473,35918,35914,0.02601841650903225,-0.05038631707429886,0.9738929867744446,0.18617728352546692,0.4795127511024475,1.5231910943984985,2.1950345039367676,3.9985415935516357,0.29893016815185547,-0.0177280455827713,0.16040101647377014,-0.20421680808067322
474,35928,35924,0.039733052253723145,0.031377024948596954,1.009425163269043,-0.803721010684967,-3.962761402130127,1.2708510160446167,2.1948065757751465,3.997856378555298,0.29993554949760437,-0.015023880638182163,0.16024917364120483,-0.24707955121994019
475,35938,35934,-0.021316463127732277,0.00589950243011117,1.036206603050232,-1.9691003561019897,-5.7242817878723145,1.7844369411468506,2.197160243988037,3.9979703426361084,0.29963991045951843,-0.018584927543997765,0.14161840081214905,-0.2408161610364914
476,35948,35944,-0.039668306708335876,-0.015044592320919037,1.0068538188934326,-2.746915817260742,-2.41379714012146,2.3429951667785645,2.1965816020965576,3.9983227252960205,0.2996995747089386,0.07765661925077438,0.10668550431728363,-0.20187003910541534
477,35958,35954,0.019558830186724663,-0.020111702382564545,1.007583737373352,-2.35516095161438,-0.3780803978443146,2.0549659729003906,2.197789430618286,3.998375415802002,0.2995550334453583,0.04896353930234909,0.06517131626605988,-0.20032274723052979
478,35968,35964,-0.0006748133455403149,-0.022492989897727966,1.016654133796692,-0.9899340271949768,0.7007131576538086,2.1311252117156982,2.1985673904418945,3.998826026916504,0.29863107204437256,0.08142279088497162,0.033492572605609894,-0.09943784773349762
