,timestamp_start,timestamp_end,acc.x,acc.y,acc.z,gyro.x,gyro.y,gyro.z,stateEstimate.x,stateEstimate.y,stateEstimate.z,stabilizer.pitch,stabilizer.roll,stabilizer.yaw
0,33632,33630,-0.0014573687221854925,-0.09603559225797653,0.9795430898666382,-3.6401374340057373,2.5636513233184814,-0.3257671594619751,2.01055908203125,4.063664436340332,0.17191752791404724,-1.5389167070388794,0.05067252740263939,1.918809175491333
1,33642,33640,-0.022710908204317093,-0.01809234917163849,1.0487797260284424,-3.899580478668213,1.5741002559661865,-0.07595255970954895,2.007295608520508,4.059940814971924,0.1732252538204193,-1.4959443807601929,0.027649039402604103,1.9250266551971436
2,33652,33650,0.041422076523303986,0.028280844911932945,1.0521517992019653,-3.0699760913848877,0.10277709364891052,0.3106454908847809,2.007068157196045,4.060321807861328,0.17168758809566498,-1.5827747583389282,-0.06572336703538895,1.8994029760360718
3,33662,33660,0.00038739151204936206,0.05503644049167633,1.1108899116516113,-2.0678141117095947,-0.10210518538951874,0.4216780364513397,2.00689959526062,4.058870315551758,0.17291368544101715,-1.7037701606750488,-0.0638444572687149,1.906840205192566
4,33672,33670,0.0003623773227445781,-0.047991205006837845,1.0521869659423828,-0.26468655467033386,-2.518289089202881,0.6808377504348755,2.0051095485687256,4.058013439178467,0.17426170408725739,-1.559988260269165,0.020445939153432846,1.954815149307251
5,33682,33680,0.006329631898552179,-0.07094742357730865,0.9633558392524719,-1.2439182996749878,-1.4327478408813477,0.4414917528629303,2.003159999847412,4.054300308227539,0.17330864071846008,-1.6533026695251465,0.03736013174057007,1.9615832567214966
6,33692,33690,0.002942126477137208,-0.01379623543471098,1.0527302026748657,-2.05049729347229,-2.5965192317962646,0.12571832537651062,2.0007941722869873,4.0533647537231445,0.17452159523963928,-1.7093617916107178,0.03716666251420975,1.96480131149292
7,33702,33700,0.02097228728234768,-0.045078378170728683,1.120187759399414,-4.576430320739746,-4.241040229797363,0.5502603650093079,1.9996665716171265,4.053303241729736,0.1757827252149582,-1.7154014110565186,-0.06868407130241394,1.9362741708755493
8,33712,33710,-0.00015035948308650404,0.09195242822170258,1.0934417247772217,-4.566288948059082,-5.790884971618652,0.2680606245994568,1.9993510246276855,4.052399635314941,0.17705395817756653,-1.6834124326705933,0.04239988327026367,1.9978082180023193
9,33722,33720,-0.017824390903115273,0.0313967764377594,1.0522054433822632,-6.418307781219482,-6.338767051696777,-0.20406413078308105,1.9982715845108032,4.052697658538818,0.17704086005687714,-1.6278488636016846,-0.10371549427509308,1.9634679555892944
10,33732,33730,0.019183427095413208,-0.08419697731733322,1.1472079753875732,-5.540285110473633,-8.321977615356445,-0.9963027238845825,1.9978480339050293,4.052302360534668,0.17843979597091675,-1.6448428630828857,-0.19785211980342865,1.9477852582931519
11,33742,33740,0.04565216973423958,-0.2309013307094574,1.1355551481246948,-4.9810686111450195,-10.282258987426758,-0.8663393259048462,1.9949333667755127,4.052145957946777,0.18001216650009155,-1.5115025043487549,-0.3520392179489136,1.9096719026565552
12,33752,33750,0.02043328434228897,-0.08914782851934433,1.0755220651626587,-2.605053663253784,-10.33590030670166,-0.533971905708313,1.9940394163131714,4.05286979675293,0.17972907423973083,-1.5886591672897339,-0.45613810420036316,1.8834465742111206
13,33762,33760,-0.007599255070090294,0.13333041965961456,1.081154227256775,-0.44575023651123047,-10.691606521606445,-1.0943683385849,1.9935410022735596,4.053845405578613,0.18142278492450714,-1.4307303428649902,-0.49859321117401123,1.8710668087005615
14,33772,33770,0.005113350693136454,0.05093898996710777,1.1006267070770264,1.4754011631011963,-12.994178771972656,-1.4095268249511719,1.9929771423339844,4.0539422035217285,0.18316547572612762,-1.3255783319473267,-0.4404848515987396,1.8803201913833618
15,33782,33780,0.012025141157209873,-0.0964323878288269,1.1062153577804565,4.542417526245117,-14.484423637390137,-1.8789783716201782,1.9918642044067383,4.054470539093018,0.18325258791446686,-1.071134328842163,-0.43167221546173096,1.8630506992340088
16,33792,33790,0.0011952708009630442,-0.06273683905601501,1.087260127067566,5.620494365692139,-13.091704368591309,-1.938643217086792,1.9911296367645264,4.053503513336182,0.1850334256887436,-0.8433851599693298,-0.3744189143180847,1.8472017049789429
17,33802,33800,0.03765268996357918,-0.027057932689785957,1.0780266523361206,3.9263062477111816,-10.461457252502441,-1.6403857469558716,1.9930977821350098,4.055294990539551,0.1871456801891327,-0.9656391739845276,-0.31172704696655273,1.8412317037582397
18,33812,33810,0.07150917500257492,-0.11518622189760208,1.074402093887329,2.2587180137634277,-8.95641803741455,-2.5548343658447266,1.9922188520431519,4.051642417907715,0.18933124840259552,-0.7044690251350403,0.4063063859939575,1.9975706338882446
19,33822,33820,0.006895451806485653,0.05717016011476517,0.9894419312477112,-2.258538246154785,-8.660486221313477,-3.8169612884521484,1.9919394254684448,4.051387310028076,0.19160723686218262,-0.5625708699226379,0.31356650590896606,1.9392426013946533
20,33832,33830,-0.035373203456401825,0.0567607507109642,1.0163124799728394,-8.060648918151855,-5.327308654785156,-4.815246105194092,1.9917457103729248,4.05418062210083,0.1943739354610443,-0.4962752163410187,0.12496085464954376,1.8631094694137573
21,33842,33840,-0.014040959067642689,0.086880162358284,1.003806710243225,-17.90570068359375,-6.279715538024902,-3.5318233966827393,1.9925639629364014,4.054638862609863,0.1968335062265396,-0.5545512437820435,-0.16797921061515808,1.7795714139938354
22,33852,33850,0.011912266723811626,-0.03195244073867798,1.0224577188491821,-18.823759078979492,-5.122087001800537,-3.150635004043579,1.993228793144226,4.053955554962158,0.19705811142921448,-0.5118887424468994,-0.3329474627971649,1.748510479927063
23,33862,33860,-0.013456090353429317,0.02452525869011879,1.0676075220108032,-16.70022964477539,-4.68379020690918,-3.0947349071502686,1.9930272102355957,4.053094387054443,0.19909854233264923,-0.5509205460548401,-0.6118062138557434,1.699568748474121
24,33872,33870,0.013848135247826576,-0.030098535120487213,0.9295872449874878,-11.07553768157959,-3.861647844314575,-3.093836545944214,1.99248206615448,4.052649974822998,0.20123519003391266,-0.44914722442626953,-0.7438791990280151,1.6699891090393066
25,33882,33880,-0.015144492499530315,0.02227083034813404,1.0448336601257324,-5.202849388122559,-10.610041618347168,-1.94071626663208,1.9921823740005493,4.05303430557251,0.20210087299346924,-0.4163724184036255,-1.0013115406036377,1.6168100833892822
26,33892,33890,0.01407851092517376,-0.05389869958162308,1.0902880430221558,3.5478508472442627,-5.122997760772705,-2.4858837127685547,1.993112564086914,4.052250385284424,0.20400391519069672,-0.5575092434883118,-1.033492922782898,1.6013083457946777
27,33902,33900,0.026344342157244682,0.04185499623417854,1.063966155052185,10.215226173400879,-11.391229629516602,-1.9858278036117554,1.9919637441635132,4.0521087646484375,0.2064579576253891,-0.3260698616504669,-0.9454588294029236,1.5723570585250854
28,33912,33910,0.03393736109137535,-0.007033830508589745,1.0060104131698608,13.644122123718262,-13.348575592041016,-1.7608529329299927,1.9920611381530762,4.05059814453125,0.20587195456027985,-0.3761712908744812,-0.7652258276939392,1.5734330415725708
29,33922,33920,-0.053718723356723785,-0.025698866695165634,1.0205421447753906,13.54012393951416,-15.529315948486328,-2.2344837188720703,1.9934055805206299,4.049985408782959,0.20768173038959503,-0.4135846197605133,-0.5572037100791931,1.5789109468460083
30,33932,33930,-0.012138528749346733,-0.003805124666541815,1.0164152383804321,10.161331176757812,-15.06855297088623,-2.3126611709594727,1.9914783239364624,4.04985237121582,0.2100997269153595,-0.07516177743673325,-0.5409204363822937,1.5309176445007324
31,33942,33940,0.03161892294883728,-0.07611764967441559,1.0086750984191895,5.227018356323242,-16.45893669128418,-1.7186005115509033,1.9904590845108032,4.04824686050415,0.21218840777873993,0.1116400957107544,-0.4231184422969818,1.512223720550537
32,33952,33950,0.047760315239429474,-0.10863589495420456,1.060809850692749,-1.216173529624939,-15.663301467895508,-1.5761454105377197,1.9903829097747803,4.047963619232178,0.21455273032188416,0.3056581914424896,-0.557756245136261,1.4802378416061401
33,33962,33960,0.04805164039134979,-0.08229835331439972,0.9748139381408691,-2.3365719318389893,-12.864272117614746,-1.821134090423584,1.9911596775054932,4.047501564025879,0.21663187444210052,0.22402653098106384,-0.5798614025115967,1.4805737733840942
34,33972,33970,-0.008337363600730896,-0.05537128448486328,0.9854606986045837,-2.4660232067108154,-8.806553840637207,-2.0657405853271484,1.9908524751663208,4.048161029815674,0.21882259845733643,0.4115784168243408,-0.6158378720283508,1.4565187692642212
35,33982,33980,0.002712201327085495,-0.0015236686449497938,0.9448372721672058,-1.2118535041809082,-6.292429447174072,-1.9602608680725098,1.9934386014938354,4.047747611999512,0.22195149958133698,0.21822908520698547,-0.5606690645217896,1.4584834575653076
36,33992,33990,0.0448918454349041,0.05157940462231636,0.8768023252487183,2.8170535564422607,-6.639688968658447,-1.8451592922210693,1.993257999420166,4.047701835632324,0.22423416376113892,0.407879501581192,-0.5470615029335022,1.4302946329116821
37,34002,34000,0.007687245029956102,0.039993766695261,0.9516438245773315,5.368180274963379,-8.881844520568848,-1.7821054458618164,1.9927866458892822,4.047502517700195,0.22639498114585876,0.6371323466300964,-0.4822056293487549,1.4033522605895996
38,34012,34010,0.0199882835149765,0.03644493967294693,0.9653370976448059,7.047116756439209,-9.69187068939209,-1.4257917404174805,1.991313099861145,4.048569679260254,0.22649270296096802,0.778450608253479,-0.6044418811798096,1.3851510286331177
39,34022,34020,0.01434366125613451,0.04437124729156494,1.0165376663208008,8.964727401733398,-11.668120384216309,-1.1701074838638306,1.990318775177002,4.048144817352295,0.22836226224899292,1.0293501615524292,-0.44468289613723755,1.3618879318237305
40,34032,34030,-0.016692860051989555,0.04301556572318077,1.0471078157424927,8.226208686828613,-10.025896072387695,-0.7871597409248352,1.9912362098693848,4.047652721405029,0.23041482269763947,0.8845935463905334,-0.3579706847667694,1.3716719150543213
41,34042,34040,0.06618987768888474,0.0546315498650074,0.977817952632904,8.184926986694336,-4.540102958679199,-0.9477423429489136,1.9933358430862427,4.0478386878967285,0.2321733981370926,0.6913061141967773,-0.2762485146522522,1.3773859739303589
42,34052,34050,0.0043158456683158875,-0.019573822617530823,0.9598129987716675,4.840437412261963,-8.826828956604004,-0.028810322284698486,1.9923745393753052,4.048674583435059,0.23448462784290314,0.9585670232772827,-0.28875190019607544,1.3666799068450928
43,34062,34060,-0.11828365921974182,-0.004056344740092754,0.989208996295929,4.096904754638672,-9.27394962310791,-0.011976692825555801,1.9921103715896606,4.047435760498047,0.2363348752260208,0.9777847528457642,-0.2512233853340149,1.3699734210968018
44,34072,34070,-0.09376280009746552,0.05605289712548256,0.9716053009033203,1.0178120136260986,-5.9299492835998535,0.43772345781326294,1.9921938180923462,4.0475053787231445,0.23826409876346588,1.1320888996124268,-0.1763586848974228,1.3663536310195923
45,34082,34080,-0.013812360353767872,0.004867012612521648,0.9636901617050171,2.267512321472168,-7.198620796203613,-0.4058382511138916,1.9899641275405884,4.045032978057861,0.23896875977516174,1.2867025136947632,-0.12324897944927216,1.3544772863388062
46,34092,34090,-0.05650828033685684,0.11539877951145172,0.9722540378570557,2.2247726917266846,-6.660720348358154,-0.3362042307853699,1.9875555038452148,4.045691967010498,0.24060194194316864,1.4867945909500122,-0.14992228150367737,1.3541663885116577
47,34102,34100,-0.016270849853754044,0.001652386854402721,0.9993528127670288,3.340651750564575,-3.817483425140381,-0.808112382888794,1.9860402345657349,4.0458197593688965,0.24235446751117706,1.6145046949386597,-0.06966760754585266,1.3389205932617188
48,34112,34110,-0.015509070828557014,0.003994592931121588,1.0105093717575073,1.9616131782531738,0.7118433117866516,-0.8061858415603638,1.98646879196167,4.046846866607666,0.2452661395072937,1.6682868003845215,-0.0027557462453842163,1.3228367567062378
49,34122,34120,-0.021164339035749435,0.021023070439696312,1.0300229787826538,3.4751038551330566,3.6557981967926025,-0.7056319713592529,1.9864121675491333,4.047581672668457,0.24703024327754974,1.6761189699172974,-0.015304521657526493,1.3268532752990723
50,34132,34130,0.0196839552372694,-0.036904770880937576,0.9574834704399109,1.935380458831787,9.985877990722656,-1.0409799814224243,1.9858518838882446,4.046664237976074,0.2470754086971283,1.5795691013336182,0.1239142045378685,1.297222375869751
51,34142,34140,0.05232447013258934,-0.09603308886289597,0.8932982087135315,2.8251798152923584,8.843608856201172,-0.8571558594703674,1.9861541986465454,4.046553134918213,0.24905328452587128,1.4369672536849976,0.17939718067646027,1.2832111120224
52,34152,34150,0.0353831946849823,-0.07519083470106125,0.9068314433097839,1.219290852546692,9.279813766479492,-1.0949199199676514,1.9860661029815674,4.046855449676514,0.2515380084514618,1.3645272254943848,0.14187555015087128,1.2852064371109009
53,34162,34160,0.0256881732493639,-0.045910630375146866,0.9271881580352783,-1.474845051765442,8.403548240661621,-1.3494796752929688,1.9862275123596191,4.046703338623047,0.25323033332824707,1.3055665493011475,0.15358509123325348,1.271531105041504
54,34172,34170,0.005906363483518362,-0.024400709196925163,0.9606716632843018,-0.3413275182247162,6.5069122314453125,-1.905068278312683,1.9872545003890991,4.046917915344238,0.2548601031303406,1.1741621494293213,0.05964185670018196,1.2686823606491089
55,34182,34180,-0.007048324216157198,-0.00980792474001646,0.9692443013191223,0.09176025539636612,4.12644100189209,-1.7676148414611816,1.9867552518844604,4.047457218170166,0.25825729966163635,1.1637284755706787,0.06536988914012909,1.2495383024215698
56,34192,34190,0.07571393996477127,-0.03985028713941574,0.9308112859725952,1.4536868333816528,3.58095645904541,-1.3781591653823853,1.9879313707351685,4.0524420738220215,0.2598217725753784,0.9919102191925049,-0.5192458033561707,1.3463881015777588
57,34202,34200,0.10502060502767563,-0.12153517454862595,0.9619979858398438,3.158148765563965,2.3188211917877197,-2.0908455848693848,1.9891810417175293,4.053084850311279,0.2615305185317993,0.8411505818367004,-0.4081764221191406,1.3100764751434326
58,34212,34210,0.04044798016548157,-0.10899245738983154,0.9938579201698303,8.373969078063965,0.5214328169822693,-1.5148231983184814,1.9896485805511475,4.052880764007568,0.26766127347946167,0.7565188407897949,-0.25214070081710815,1.2703770399093628
59,34222,34220,-0.024714071303606033,-0.09075269103050232,0.9961822628974915,14.434647560119629,-1.4380757808685303,-1.2905594110488892,1.9891788959503174,4.053011894226074,0.2695053815841675,0.788745105266571,-0.06444021314382553,1.2435052394866943
60,34232,34230,-0.03242306038737297,-0.03795246407389641,0.9712747931480408,17.676864624023438,-3.4827444553375244,-0.9170998334884644,1.9887434244155884,4.05383825302124,0.27123841643333435,0.8606820702552795,0.031457703560590744,1.245125651359558
61,34242,34240,-0.06419484317302704,-0.011679851450026035,0.972801685333252,17.163015365600586,-4.3072404861450195,-0.7396265864372253,1.989467978477478,4.053612232208252,0.27238157391548157,0.8666743040084839,0.31009992957115173,1.2193870544433594
62,34252,34250,-0.043545253574848175,-0.01754331775009632,0.953745424747467,14.059124946594238,-3.812734365463257,0.02016502059996128,1.9883804321289062,4.052375316619873,0.27408790588378906,0.9581210613250732,0.555219829082489,1.2038567066192627
63,34262,34260,-0.03548869490623474,0.03279866650700569,0.9230061173439026,7.383436679840088,-2.438847780227661,-0.6573448181152344,1.9887431859970093,4.052249908447266,0.2757316529750824,0.8667003512382507,0.6342431306838989,1.2031406164169312
64,34272,34270,-0.03121429868042469,0.07557440549135208,0.9128772020339966,0.318020761013031,-0.9992090463638306,-0.5792814493179321,1.9881033897399902,4.052198886871338,0.27732452750205994,0.9117590188980103,0.6656931638717651,1.1993106603622437
65,34282,34280,-0.006554357707500458,0.07392404228448868,0.9133779406547546,-4.29323148727417,0.8018498420715332,-0.6653327345848083,1.9881666898727417,4.052282810211182,0.277858704328537,0.925462007522583,0.675051748752594,1.1900554895401
66,34292,34290,0.009731297381222248,0.02572557143867016,0.9391419887542725,-5.820050239562988,0.8826037645339966,-0.6815763115882874,1.9875935316085815,4.052833557128906,0.2792721390724182,0.93863445520401,0.6231878399848938,1.1852651834487915
67,34302,34300,0.03165481612086296,-0.0019864197820425034,0.9194822907447815,-5.883138179779053,3.1046652793884277,-0.9278733730316162,1.986723780632019,4.052371025085449,0.281943678855896,0.9024520516395569,0.6285577416419983,1.1701478958129883
68,34312,34310,0.016036389395594597,0.010410040616989136,0.94759601354599,-4.473332405090332,2.9358954429626465,-0.8758717775344849,1.9864438772201538,4.052428245544434,0.2832684814929962,0.8711267113685608,0.5690302848815918,1.1624253988265991
69,34322,34320,0.006765586789697409,0.008600390516221523,0.9629234075546265,-1.6129300594329834,3.4612603187561035,-0.6960681080818176,1.985052466392517,4.053012847900391,0.2845366597175598,0.9849616885185242,0.5484986901283264,1.1647298336029053
70,34332,34330,0.013273078016936779,0.0030067279003560543,0.9569585919380188,0.5392847061157227,3.7194559574127197,-0.6190771460533142,1.9829542636871338,4.052460670471191,0.2856668531894684,1.0741769075393677,0.5683489441871643,1.1649855375289917
71,34342,34340,0.026698775589466095,-0.059239402413368225,0.9607270359992981,1.3664212226867676,4.3823771476745605,-0.64179527759552,1.983003854751587,4.053324222564697,0.2855822443962097,0.962576687335968,0.5279054045677185,1.1601667404174805
72,34352,34350,0.020549392327666283,0.03648390620946884,0.9582309722900391,2.8630318641662598,6.63244104385376,-0.5504755973815918,1.981317162513733,4.052408218383789,0.2867202162742615,0.9332605600357056,0.5940214395523071,1.150546669960022
73,34362,34360,0.009617913514375687,-0.06696877628564835,0.9812172055244446,2.124755859375,8.242081642150879,-0.4510878622531891,1.9818450212478638,4.052262306213379,0.28769341111183167,0.778843879699707,0.6499088406562805,1.1360634565353394
74,34372,34370,0.010563431307673454,-0.03557489439845085,0.9762455821037292,1.694840431213379,8.863972663879395,-0.6538217067718506,1.9800972938537598,4.0532402992248535,0.2885797917842865,0.8508033156394958,0.6989096999168396,1.1417121887207031
75,34382,34380,-0.010548713617026806,-0.09752082079648972,0.9865260124206543,0.6686440110206604,8.595136642456055,-0.46317431330680847,1.9799754619598389,4.052236557006836,0.2893170714378357,0.671710193157196,0.725581705570221,1.1245112419128418
76,34392,34390,-0.04084092378616333,-0.1476934403181076,1.0062650442123413,0.1685909479856491,8.713858604431152,-0.451481431722641,1.9803617000579834,4.052295684814453,0.29014042019844055,0.5066466927528381,0.7418057322502136,1.1123132705688477
77,34402,34400,-0.06612882018089294,-0.11132991313934326,1.0161278247833252,-1.811727523803711,8.35981273651123,-0.4007702171802521,1.9794566631317139,4.051900386810303,0.29096826910972595,0.4220704138278961,0.733583927154541,1.1076455116271973
78,34412,34410,-0.049817539751529694,-0.041396502405405045,0.9997031688690186,-3.687502384185791,6.9168572425842285,-0.7988128066062927,1.9790452718734741,4.051862716674805,0.2915193438529968,0.3494871258735657,0.6906779408454895,1.1054770946502686
79,34422,34420,-0.00020319603208918124,-0.012036822736263275,0.9668360948562622,-4.931052207946777,4.723870754241943,-1.2022700309753418,1.9789235591888428,4.05331563949585,0.29237228631973267,0.23946908116340637,0.5474429726600647,1.098356008529663
80,34432,34430,0.009681492112576962,-0.027025021612644196,0.9539181590080261,-3.3157877922058105,2.2137277126312256,-1.8088520765304565,1.9781179428100586,4.053311824798584,0.2931848466396332,0.1772841066122055,0.4904811382293701,1.0846545696258545
81,34442,34440,-0.012073337100446224,0.04751767963171005,0.9189541935920715,-4.108262538909912,0.17162905633449554,-1.7248950004577637,1.977914571762085,4.053065299987793,0.2916628420352936,0.1500498354434967,0.5181713104248047,1.0614464282989502
82,34452,34450,0.009739352390170097,0.03224657475948334,0.9682353138923645,-3.0924174785614014,-1.4036136865615845,-1.6184319257736206,1.9775030612945557,4.052593231201172,0.29219672083854675,0.14886519312858582,0.534117579460144,1.041159749031067
83,34462,34460,0.023345092311501503,-0.014436820521950722,0.9517996311187744,-0.6620316505432129,-2.784609317779541,-1.7005563974380493,1.9772645235061646,4.05316686630249,0.2926875352859497,0.17548096179962158,0.4332592785358429,1.0268707275390625
84,34472,34470,0.019580822438001633,-0.09263452142477036,0.9221170544624329,1.6047953367233276,-4.480910301208496,-1.2314752340316772,1.9765805006027222,4.052329063415527,0.29315146803855896,0.2236006259918213,0.4524078667163849,1.0115114450454712
85,34482,34480,-0.012435464188456535,-0.030174562707543373,0.961665689945221,1.6045855283737183,-4.192111492156982,-0.49901095032691956,1.9752753973007202,4.0514655113220215,0.2945295572280884,0.2934642434120178,0.4843575060367584,1.0032588243484497
86,34492,34490,-0.03400162234902382,0.044166725128889084,1.016015887260437,-1.1610276699066162,-1.031920313835144,-0.5189288258552551,1.9725669622421265,4.050251007080078,0.29489028453826904,0.5511942505836487,0.6429616808891296,1.0166605710983276
87,34502,34500,-0.009190638549625874,0.027491478249430656,1.003591775894165,-2.7524969577789307,2.6808531284332275,0.49634072184562683,1.9725217819213867,4.050453186035156,0.29534903168678284,0.4784635305404663,0.583523690700531,1.0127907991409302
88,34512,34510,0.007378287613391876,-0.0010694796219468117,0.9951111674308777,-3.679558753967285,5.470130443572998,-0.16882969439029694,1.9721876382827759,4.049654483795166,0.29544535279273987,0.4469560980796814,0.5922197103500366,1.0175660848617554
89,34522,34520,-0.0158185213804245,0.07556850463151932,0.9413179755210876,-6.228264331817627,9.874271392822266,-0.6982539296150208,1.9728879928588867,4.04927921295166,0.2959151268005371,0.2010735124349594,0.4866273105144501,0.9959438443183899
90,34532,34530,-0.031644366681575775,0.1422295719385147,0.9292775988578796,-9.389778137207031,12.507064819335938,0.610093355178833,1.9726896286010742,4.049227237701416,0.29625818133354187,-0.008014379069209099,0.3538500666618347,0.9873159527778625
91,34542,34540,0.022768421098589897,-0.026518689468503,0.9649057388305664,-8.652179718017578,10.230415344238281,0.03556884825229645,1.9715967178344727,4.050303936004639,0.29705870151519775,-0.055407412350177765,0.1958717554807663,0.9965436458587646
92,34552,34550,0.05496671795845032,-0.07529731094837189,1.0088474750518799,-7.540646553039551,6.707348346710205,0.34447258710861206,1.96945321559906,4.050009250640869,0.29734674096107483,0.00013776440755464137,0.053011830896139145,1.0108814239501953
93,34562,34560,0.026825683191418648,-0.12301605939865112,1.064659833908081,-2.980515480041504,2.1158673763275146,0.6848266124725342,1.9681724309921265,4.050034523010254,0.29757165908813477,0.04939320310950279,-0.038277000188827515,1.0216846466064453
94,34572,34570,0.03199327737092972,-0.050468809902668,0.9610358476638794,0.824776291847229,1.516740322113037,0.44660112261772156,1.9681328535079956,4.049704074859619,0.2969566881656647,-0.01576063595712185,0.04230891913175583,1.0237656831741333
95,34582,34580,0.042626891285181046,0.01318272203207016,0.9431037902832031,3.852836847305298,-0.8889688849449158,1.1614408493041992,1.9678698778152466,4.049471855163574,0.29718682169914246,-0.04899835214018822,0.09530805796384811,1.0315674543380737
96,34592,34590,-0.022537611424922943,-0.02211039885878563,1.0266616344451904,4.7795491218566895,-0.6663022041320801,1.4353313446044922,1.966129183769226,4.04946231842041,0.2973648011684418,0.08908668160438538,0.16414415836334229,1.051959753036499
97,34602,34600,0.009768817573785782,-0.05208824947476387,0.9251786470413208,5.151378631591797,1.6265296936035156,1.5593020915985107,1.9661041498184204,4.049405574798584,0.29758355021476746,0.03322812169790268,0.24866876006126404,1.0645321607589722
98,34612,34610,0.03643253445625305,0.05427578464150429,0.9210387468338013,2.537569046020508,5.476061820983887,1.5221837759017944,1.965764045715332,4.049112319946289,0.2946408987045288,-0.006279064808040857,0.310595840215683,1.0823960304260254
99,34622,34620,0.062066081911325455,0.11269155144691467,0.9861447811126709,-2.089627265930176,7.233139991760254,1.7345854043960571,1.9656320810317993,4.047817230224609,0.2946111261844635,-0.17329055070877075,0.29852962493896484,1.096032977104187
100,34632,34630,0.0583205372095108,0.014672461897134781,0.9801845550537109,-5.6650285720825195,6.3643388748168945,1.605312466621399,1.963452696800232,4.048094272613525,0.29447442293167114,-0.07875606417655945,0.21390320360660553,1.1169841289520264
101,34642,34640,-0.0014376459876075387,-0.013007808476686478,1.0349174737930298,-8.717840194702148,6.0818023681640625,1.4581891298294067,1.9638601541519165,4.047773361206055,0.2929067611694336,-0.24123722314834595,0.08490559458732605,1.1240770816802979
102,34652,34650,-0.04318695515394211,0.03053312376141548,1.0229521989822388,-8.848564147949219,4.953182220458984,1.531084656715393,1.9642219543457031,4.048377990722656,0.2926783859729767,-0.36929798126220703,-0.0683317556977272,1.1323620080947876
103,34662,34660,-0.0540989451110363,0.11351175606250763,1.0182160139083862,-6.163454055786133,3.4096181392669678,2.039832592010498,1.9638298749923706,4.047453880310059,0.29250484704971313,-0.38963302969932556,-0.037066180258989334,1.1591346263885498
104,34672,34670,-0.007090775296092033,0.043367620557546616,0.9955093860626221,-3.6639654636383057,3.21160888671875,2.0116748809814453,1.963749885559082,4.047346591949463,0.2938770651817322,-0.47998884320259094,-0.12760670483112335,1.1758077144622803
105,34682,34680,0.0020598231349140406,-0.015223738737404346,1.1095263957977295,0.3789171874523163,-1.1050171852111816,2.84147572517395,1.962388038635254,4.046038627624512,0.29382023215293884,-0.427297979593277,-0.07888805866241455,1.2102617025375366
106,34692,34690,0.047753896564245224,-0.08983781933784485,1.064422845840454,3.4532690048217773,-1.9869316816329956,2.590839147567749,1.9611653089523315,4.045891761779785,0.2937905192375183,-0.35155436396598816,-0.057918574661016464,1.2386229038238525
107,34702,34700,-0.01663985848426819,-0.02976318635046482,1.104158878326416,5.676551818847656,-4.9182515144348145,2.840503215789795,1.9596575498580933,4.045246601104736,0.2938680648803711,-0.3396233320236206,0.020775379613041878,1.266676664352417
108,34712,34710,0.019869770854711533,-0.060382112860679626,0.9982935786247253,4.8867363929748535,0.002772149397060275,2.3626089096069336,1.9595969915390015,4.044534206390381,0.2947089970111847,-0.36512941122055054,0.09414837509393692,1.2920005321502686
109,34722,34720,0.024495478719472885,-0.02694557048380375,1.023780345916748,2.0094573497772217,-0.1853622943162918,2.506387948989868,1.959579348564148,4.0442023277282715,0.29495498538017273,-0.39976203441619873,0.1414536088705063,1.319281816482544
110,34732,34730,0.0617600679397583,-0.07275116443634033,1.051150918006897,0.04129840433597565,-2.5046682357788086,2.9015390872955322,1.9587889909744263,4.043405532836914,0.2952384352684021,-0.3935600817203522,0.142503559589386,1.3453482389450073
111,34742,34740,0.021732447668910027,-0.0601712130010128,1.0487961769104004,-2.404937505722046,-1.786313533782959,2.832326889038086,1.9578903913497925,4.044094085693359,0.297062486410141,-0.3072633445262909,0.10844521969556808,1.3697996139526367
112,34752,34750,-0.0021609622053802013,-0.0046035111881792545,1.039568305015564,-3.9055402278900146,-1.3940815925598145,2.0058422088623047,1.956485390663147,4.04364013671875,0.2975110113620758,-0.23650196194648743,0.02638941816985607,1.3908497095108032
113,34762,34760,-0.008930309675633907,0.04728320986032486,1.0054184198379517,-6.320237636566162,4.242360591888428,1.7887996435165405,1.9566162824630737,4.043787479400635,0.29804572463035583,-0.2795468866825104,-0.07175726443529129,1.4059979915618896
114,34772,34770,-0.02118789777159691,0.07547314465045929,1.018224835395813,-5.836048603057861,13.750365257263184,1.0775331258773804,1.9567055702209473,4.042516708374023,0.298412561416626,-0.4831019341945648,-0.03405708074569702,1.4313914775848389
115,34782,34780,0.02137731947004795,0.015491651371121407,0.9938119649887085,-3.5887362957000732,18.522624969482422,1.3237686157226562,1.9559459686279297,4.042115688323975,0.2989068031311035,-0.6288464665412903,-0.05723506957292557,1.4486662149429321
116,34792,34790,-0.008000697940587997,0.00037747161695733666,1.040079116821289,-1.0836198329925537,22.518131256103516,0.5783060789108276,1.9560608863830566,4.042094707489014,0.29944345355033875,-0.9169839024543762,-0.10460294783115387,1.4546440839767456
117,34802,34800,-0.008308646269142628,0.012076446786522865,1.0322868824005127,-0.10959995537996292,20.522083282470703,1.55209481716156,1.95539391040802,4.041151523590088,0.30004993081092834,-1.0455471277236938,-0.12569352984428406,1.4612407684326172
118,34812,34810,-0.0610729455947876,0.0863228514790535,0.9882907271385193,0.8306992053985596,18.86945915222168,0.9319491982460022,1.9555723667144775,4.0412373542785645,0.3016297519207001,-1.2760648727416992,-0.14167165756225586,1.4719512462615967
119,34822,34820,-0.04922179877758026,0.14417077600955963,0.9179313778877258,0.8102328777313232,13.90787410736084,1.0943266153335571,1.9566078186035156,4.0413737297058105,0.30225440859794617,-1.4078292846679688,-0.14753587543964386,1.4730199575424194
120,34832,34830,0.0028479713946580887,0.1219177395105362,0.9309850335121155,0.38357335329055786,7.9144086837768555,1.0451117753982544,1.95527982711792,4.040025234222412,0.303031325340271,-1.4141180515289307,-0.06927888095378876,1.4930070638656616
121,34842,34840,0.011543752625584602,0.03866170719265938,1.037790060043335,0.036828793585300446,1.499697208404541,0.6746856570243835,1.9555085897445679,4.04002571105957,0.30155813694000244,-1.5590122938156128,-0.07830862700939178,1.5055826902389526
122,34852,34850,-0.02655179612338543,-0.06569001823663712,1.0604591369628906,0.7845107913017273,-4.1888041496276855,0.5477114319801331,1.955232858657837,4.038661003112793,0.30196720361709595,-1.5674078464508057,-0.007827302441000938,1.5242609977722168
123,34862,34860,-0.048725515604019165,-0.16979534924030304,1.0376312732696533,-0.2427980899810791,-5.566699028015137,0.13253094255924225,1.9550807476043701,4.038605690002441,0.30244535207748413,-1.4886456727981567,-0.02266347035765648,1.525251865386963
124,34872,34870,-0.11380580067634583,-0.04455413669347763,1.0701727867126465,-1.8372658491134644,-3.8840014934539795,0.26501497626304626,1.9546408653259277,4.038544654846191,0.30086469650268555,-1.3913013935089111,-0.04793383553624153,1.5223101377487183
125,34882,34880,-0.07143521308898926,0.06483925133943558,0.980358362197876,-4.198523044586182,-0.2912672758102417,0.4471782445907593,1.9547423124313354,4.038712501525879,0.3012847304344177,-1.335096836090088,-0.09759045392274857,1.515453577041626
126,34892,34890,-0.027420377358794212,0.01488709170371294,0.996790885925293,-6.262598991394043,4.150241374969482,0.23071737587451935,1.9549564123153687,4.038057327270508,0.30169790983200073,-1.3579870462417603,-0.11043000221252441,1.5246191024780273
127,34902,34900,-0.009453434497117996,0.03502322733402252,0.9730222225189209,-5.488473892211914,8.823212623596191,0.13351711630821228,1.9553947448730469,4.0377302169799805,0.30209219455718994,-1.448381781578064,-0.15075258910655975,1.5325844287872314
128,34912,34910,0.020254774019122124,0.05011371523141861,0.9910699129104614,-4.419559478759766,9.185925483703613,0.0009488842915743589,1.9553993940353394,4.037959098815918,0.3017444908618927,-1.5112193822860718,-0.2624363303184509,1.5221333503723145
129,34922,34920,-0.019147921353578568,0.04770427569746971,1.0609803199768066,-2.261512517929077,8.049788475036621,0.16714079678058624,1.9556440114974976,4.038197994232178,0.30206575989723206,-1.6557519435882568,-0.3461288511753082,1.5163087844848633
130,34932,34930,0.017486238852143288,-0.028390061110258102,0.9733632206916809,0.8258932828903198,4.927191734313965,-0.23189939558506012,1.956408143043518,4.037463188171387,0.3024475872516632,-1.7639353275299072,-0.307045578956604,1.5351324081420898
131,34942,34940,0.003569188993424177,-0.04723121225833893,0.9824219346046448,3.3274126052856445,2.4277045726776123,-0.9343296885490417,1.9569157361984253,4.036661624908447,0.30320534110069275,-1.8237197399139404,-0.30599191784858704,1.5355403423309326
132,34952,34950,-0.03603045269846916,0.016093039885163307,0.9989110231399536,3.923322916030884,-3.149902582168579,-0.5064839720726013,1.9562138319015503,4.035746097564697,0.3037049472332001,-1.7215877771377563,-0.2648794651031494,1.5288945436477661
133,34962,34960,0.007942082360386848,-0.0012862901203334332,0.9703801870346069,2.89241361618042,-3.955442428588867,0.03392838314175606,1.9562442302703857,4.035543441772461,0.30412858724594116,-1.6567432880401611,-0.21986471116542816,1.5236724615097046
134,34972,34970,0.03155537322163582,0.044416144490242004,0.9932267069816589,1.070418119430542,-4.499709129333496,0.07063513994216919,1.9561220407485962,4.034176349639893,0.3056435286998749,-1.650962233543396,-0.18902087211608887,1.522800326347351
135,34982,34980,0.06534373760223389,0.010277626104652882,0.9806026816368103,-1.4431941509246826,-3.3335256576538086,-0.08570218831300735,1.956038236618042,4.034152984619141,0.3061109781265259,-1.5568915605545044,-0.19679278135299683,1.5157744884490967
136,34992,34990,0.02661062404513359,-0.014849256724119186,1.0313835144042969,-3.188016653060913,-1.644395351409912,-0.25367471575737,1.9562045335769653,4.034061431884766,0.3065405488014221,-1.5617986917495728,-0.24189989268779755,1.5093419551849365
137,35002,35000,-0.01933170296251774,-0.08164185285568237,1.0337435007095337,-2.7591495513916016,-0.2428879290819168,-0.5134007930755615,1.9561948776245117,4.032805442810059,0.3029744029045105,-1.5813004970550537,-0.30063387751579285,1.5012235641479492
138,35012,35010,-0.05223141983151436,-0.13923434913158417,1.010841727256775,-2.246217966079712,0.30329376459121704,-0.5570616126060486,1.9568307399749756,4.033534049987793,0.30316171050071716,-1.610573649406433,-0.35320356488227844,1.4912664890289307
139,35022,35020,-0.04488810896873474,-0.047926899045705795,1.0336744785308838,-0.7059173583984375,2.526743173599243,-0.9908259510993958,1.9579182863235474,4.033212184906006,0.3033733069896698,-1.668479084968567,-0.38472723960876465,1.4871584177017212
140,35032,35030,0.00836180429905653,0.011068646796047688,0.9990426301956177,1.0366945266723633,1.194985032081604,-0.7597406506538391,1.9582897424697876,4.033167362213135,0.30365994572639465,-1.6536518335342407,-0.3930893838405609,1.4782651662826538
141,35042,35040,0.015806226059794426,-0.008265674114227295,0.9889286160469055,1.0614397525787354,0.9105267524719238,-0.6899203658103943,1.9598332643508911,4.0332112312316895,0.30528512597084045,-1.7805818319320679,-0.37663817405700684,1.477852702140808
142,35052,35050,0.06775261461734772,-0.09708213061094284,0.9917657971382141,2.8099732398986816,-3.4782238006591797,-0.31655970215797424,1.9600282907485962,4.032991886138916,0.305701345205307,-1.7084861993789673,-0.3447478413581848,1.470255732536316
143,35062,35060,0.05311416834592819,-0.06583313643932343,0.9986997246742249,3.3168928623199463,-6.519063949584961,-0.0018122217152267694,1.959513545036316,4.032191753387451,0.30609190464019775,-1.6718531847000122,-0.3041427433490753,1.4724277257919312
144,35072,35070,0.046347904950380325,-0.11371713131666183,1.0196317434310913,1.8858487606048584,-8.148900032043457,-0.62729412317276,1.9598652124404907,4.032205581665039,0.30936577916145325,-1.5756936073303223,-0.25762104988098145,1.4751290082931519
145,35082,35080,0.023550914600491524,-0.08256742358207703,0.9941546320915222,2.245570659637451,-8.444550514221191,-0.02410978451371193,1.960831642150879,4.031960487365723,0.3098563551902771,-1.5308517217636108,-0.21691499650478363,1.4760359525680542
146,35092,35090,-0.0006122847553342581,-0.025675024837255478,0.9883240461349487,1.0660325288772583,-7.270976543426514,-0.3275662958621979,1.9610607624053955,4.031609058380127,0.3103716969490051,-1.4806981086730957,-0.18721526861190796,1.4788674116134644
147,35102,35100,0.0036405608989298344,-0.005682678427547216,0.9971708059310913,-0.5340666770935059,-6.100278854370117,-0.2333572804927826,1.9615020751953125,4.03109884262085,0.31157341599464417,-1.3655612468719482,-0.17903068661689758,1.4746519327163696
148,35112,35110,0.016447128728032112,-0.028193162754178047,0.9714535474777222,-1.528039574623108,-4.757765293121338,-0.5456468462944031,1.9618338346481323,4.031502723693848,0.31211990118026733,-1.276279091835022,-0.19534121453762054,1.4672428369522095
149,35122,35120,0.04244083911180496,-0.03849506005644798,0.9907118678092957,-2.569584369659424,-3.6855547428131104,-0.5312204957008362,1.9616039991378784,4.030581474304199,0.31270885467529297,-1.2026426792144775,-0.14878438413143158,1.4766749143600464
150,35132,35130,0.09026356786489487,-0.07563876360654831,0.9861993193626404,-2.779345989227295,-2.5061416625976562,-0.2958398759365082,1.9629614353179932,4.0312957763671875,0.31321269273757935,-1.2270658016204834,-0.2788514792919159,1.4509758949279785
151,35142,35140,0.08380459249019623,-0.11985702067613602,0.9818813800811768,-1.514026165008545,-2.1628592014312744,-0.7953376770019531,1.9625047445297241,4.031003475189209,0.3116014301776886,-1.1051164865493774,-0.31762856245040894,1.4415215253829956
152,35152,35150,0.033263858407735825,-0.16134406626224518,0.9861361980438232,0.042456597089767456,-3.0379884243011475,-0.7170938849449158,1.9640690088272095,4.03108549118042,0.3119359612464905,-1.1515918970108032,-0.3391737639904022,1.4372642040252686
153,35162,35160,-0.005845886655151844,-0.2154606431722641,0.9693134427070618,1.6844444274902344,-4.254192352294922,-0.793338418006897,1.963818907737732,4.03106689453125,0.31238311529159546,-1.0179065465927124,-0.33160388469696045,1.4290810823440552
154,35172,35170,-0.036884211003780365,-0.22510448098182678,0.9885278344154358,3.7759602069854736,-5.675248622894287,-0.7936221957206726,1.96660315990448,4.029928684234619,0.3120582103729248,-1.1788561344146729,-0.2909807860851288,1.4361354112625122
155,35182,35180,-0.03281879797577858,-0.08610852807760239,1.01158607006073,5.017561912536621,-7.217102527618408,-0.7060735821723938,1.9664698839187622,4.029465198516846,0.312440425157547,-1.0024017095565796,-0.2195012867450714,1.4297077655792236
156,35192,35190,-0.01353437639772892,-0.09884195774793625,0.9755090475082397,5.094423294067383,-5.315884590148926,-0.9869181513786316,1.9683361053466797,4.028748989105225,0.31264743208885193,-1.0654253959655762,-0.13657470047473907,1.4340267181396484
157,35202,35200,-0.015702076256275177,-0.04714064672589302,0.9786222577095032,3.6780550479888916,-9.174071311950684,-1.652512788772583,1.9711047410964966,4.029716968536377,0.31182679533958435,-1.1923779249191284,-0.21790122985839844,1.4116288423538208
158,35212,35210,-0.08165104687213898,-0.028739098459482193,1.0313907861709595,0.7870752215385437,-4.636635780334473,-1.6125715970993042,1.971792221069336,4.029101848602295,0.31210577487945557,-1.054252028465271,-0.15973204374313354,1.3976057767868042
159,35222,35220,-0.01651572436094284,-0.02020963281393051,1.007051706314087,0.036283280700445175,-8.357077598571777,-1.1181963682174683,1.9723378419876099,4.02864933013916,0.31240519881248474,-0.9266646504402161,-0.14059510827064514,1.3808038234710693
160,35232,35230,0.016699032858014107,-0.012152377516031265,0.9885191917419434,-0.31686776876449585,-10.109478950500488,-1.020872950553894,1.973820447921753,4.02876091003418,0.31533780694007874,-0.8438593149185181,-0.13501688838005066,1.3689161539077759
161,35242,35240,0.017351510003209114,-0.12071561068296432,0.983566403388977,0.0435837060213089,-9.88542652130127,-1.1370947360992432,1.9746922254562378,4.0288214683532715,0.3157369792461395,-0.7335337400436401,-0.13469134271144867,1.3568195104599
162,35252,35250,0.008147059939801693,-0.11789754778146744,0.9722845554351807,1.9245009422302246,-10.267001152038574,-1.0449187755584717,1.9754265546798706,4.02863073348999,0.31614696979522705,-0.6141358017921448,-0.11766044795513153,1.3477771282196045
163,35262,35260,-0.014413229189813137,-0.08039543032646179,1.0142215490341187,2.876363515853882,-8.990132331848145,-1.3611699342727661,1.977728247642517,4.029180526733398,0.3164043724536896,-0.6466419100761414,-0.15219594538211823,1.3358054161071777
164,35272,35270,0.010427764616906643,-0.08516819775104523,0.9725121855735779,3.970630407333374,-6.988450527191162,-1.5287225246429443,1.9785349369049072,4.02892541885376,0.31410273909568787,-0.5351076126098633,-0.09070561081171036,1.326269268989563
165,35282,35280,0.05334034189581871,-0.057278282940387726,0.9072217345237732,3.6271820068359375,-5.318945407867432,-1.7244045734405518,1.9787260293960571,4.029313564300537,0.31435421109199524,-0.38159802556037903,-0.09455537796020508,1.3067501783370972
166,35292,35290,0.07016196846961975,0.036082252860069275,0.9471876621246338,2.846358060836792,-3.9132208824157715,-1.7608473300933838,1.9790161848068237,4.0291032791137695,0.31453272700309753,-0.2696848213672638,-0.022117121145129204,1.2903296947479248
167,35302,35300,0.04014088958501816,0.03295155242085457,0.9884190559387207,1.3884540796279907,-5.05343770980835,-1.6364234685897827,1.9780539274215698,4.0294389724731445,0.3131498098373413,-0.0938136950135231,-0.0475747250020504,1.267581820487976
168,35312,35310,0.004172267857939005,0.00022417929721996188,0.9855557680130005,1.1865496635437012,-6.472193241119385,-1.418129563331604,1.9784542322158813,4.028146743774414,0.3131156265735626,-0.08593065291643143,-0.009463741444051266,1.2518084049224854
169,35322,35320,0.0023440008517354727,-0.047855816781520844,0.9962170124053955,0.5350250005722046,0.7823014259338379,-1.803035855293274,1.980082392692566,4.027098655700684,0.3130178153514862,-0.16796697676181793,0.01867196522653103,1.2380564212799072
170,35332,35330,0.03266870602965355,-0.08588885515928268,1.0002268552780151,1.87655508518219,0.43581047654151917,-1.5714784860610962,1.981024146080017,4.02683162689209,0.316220223903656,-0.1336296796798706,0.04405853524804115,1.220962405204773
171,35342,35340,-0.0037149244453758,-0.09448114037513733,1.0262902975082397,1.9372504949569702,0.5283681154251099,-1.59475839138031,1.9811094999313354,4.025899410247803,0.31635478138923645,-0.11795292049646378,0.07470324635505676,1.2069892883300781
172,35352,35350,-0.03934921324253082,-0.0930333286523819,1.010685682296753,2.5919525623321533,-1.5604498386383057,-0.40706899762153625,1.9835491180419922,4.0260396003723145,0.31640464067459106,-0.24478678405284882,0.04024025797843933,1.1908714771270752
173,35362,35360,0.013243267312645912,-0.06140824407339096,0.9457372426986694,0.4651399254798889,-0.4126461446285248,-0.6557716727256775,1.9832978248596191,4.02638578414917,0.3166787922382355,-0.11673127859830856,0.08172635734081268,1.1820156574249268
174,35372,35370,0.01621137373149395,0.12165626883506775,0.9980871677398682,2.176649808883667,-5.116999626159668,-0.9644705653190613,1.985395073890686,4.026330471038818,0.31887534260749817,-0.21636559069156647,0.1075487956404686,1.178199052810669
175,35382,35380,-0.01619987189769745,0.02169918082654476,1.023091435432434,-0.09913003444671631,-7.779148578643799,-0.8265855312347412,1.9853217601776123,4.026632785797119,0.3192562162876129,-0.03552709519863129,0.06425180286169052,1.169734239578247
176,35392,35390,0.011597122065722942,-0.01846805401146412,1.0067225694656372,1.8811229467391968,-6.561399936676025,-0.9163669943809509,1.9862357378005981,4.0266218185424805,0.3194666802883148,0.012230410240590572,0.08852360397577286,1.1618247032165527
177,35402,35400,0.006325645372271538,0.01015792228281498,1.0185506343841553,1.865434169769287,-6.870449542999268,-0.8818992972373962,1.988675832748413,4.026467800140381,0.31593430042266846,-0.07859190553426743,0.12220549583435059,1.149911642074585
178,35412,35410,-0.03813682869076729,-0.004094360861927271,1.032143235206604,1.368367075920105,-5.099710941314697,-1.0089153051376343,1.9873418807983398,4.0262675285339355,0.3161567747592926,0.14004236459732056,0.16191443800926208,1.1416183710098267
179,35422,35420,-0.0819234848022461,-0.00730757974088192,1.0492494106292725,1.2763272523880005,-4.008894443511963,-1.141841173171997,1.988692283630371,4.025681495666504,0.31621822714805603,0.17264683544635773,0.19485385715961456,1.1301783323287964
180,35432,35430,-0.09130341559648514,0.07364179193973541,1.0595873594284058,1.020656704902649,-1.6530267000198364,-0.8852900862693787,1.9898974895477295,4.026472568511963,0.3155308961868286,0.11018674075603485,0.145979106426239,1.121582269668579
181,35442,35440,-0.06963077187538147,0.1130816787481308,1.0001341104507446,0.5962710976600647,0.5467000007629395,-0.6031308174133301,1.9905471801757812,4.026061058044434,0.3156476318836212,0.16767242550849915,0.17171891033649445,1.111859917640686
182,35452,35450,-0.047691769897937775,0.17958514392375946,0.9983987212181091,-0.03156588226556778,2.029073476791382,-0.2713069021701813,1.9906277656555176,4.025822162628174,0.31584489345550537,0.25403571128845215,0.18248222768306732,1.1061338186264038
183,35462,35460,-0.01570437103509903,0.11398683488368988,1.023697853088379,0.6870399713516235,0.2719435691833496,-0.8609523773193359,1.9911086559295654,4.024168491363525,0.31594592332839966,0.1749693900346756,0.2679092586040497,1.0913537740707397
184,35472,35470,0.041247982531785965,0.04916543886065483,0.9658034443855286,-0.9342191815376282,1.4221709966659546,-0.1159931868314743,1.9921119213104248,4.024930477142334,0.3168053925037384,0.1825556457042694,0.19840943813323975,1.0931681394577026
185,35482,35480,0.004028692375868559,0.07346528768539429,1.029402256011963,0.591029942035675,-2.364504814147949,0.08814065903425217,1.992795705795288,4.024282455444336,0.3169934153556824,0.19677045941352844,0.19978956878185272,1.0874006748199463
186,35492,35490,-0.017257701605558395,0.04022949934005737,1.0449832677841187,-1.2057944536209106,-3.027108907699585,-0.7967308163642883,1.994447112083435,4.023316383361816,0.3170924782752991,0.10609546303749084,0.20586365461349487,1.0792843103408813
187,35502,35500,0.015980446711182594,-0.0355849526822567,0.9708076119422913,-0.9622722268104553,-4.240434169769287,-0.5113492608070374,1.9945385456085205,4.023077011108398,0.32010945677757263,0.2604050636291504,0.20259259641170502,1.0747935771942139
188,35512,35510,-0.060620129108428955,-0.0401991568505764,0.9853936433792114,-0.2270991951227188,-4.868871688842773,-0.45049673318862915,1.9949095249176025,4.02332067489624,0.3205207586288452,0.35298091173171997,0.1986049860715866,1.0721622705459595
189,35522,35520,-0.11263114959001541,0.06782644987106323,1.008577823638916,-0.2466595470905304,-3.1531872749328613,-0.16530632972717285,1.9971582889556885,4.022867202758789,0.3208322525024414,0.2935624420642853,0.19683663547039032,1.0575898885726929
190,35532,35530,-0.06441166251897812,0.1324489712715149,0.9759163856506348,0.32678619027137756,-0.8143636584281921,0.2251536101102829,1.9969608783721924,4.022861957550049,0.3157651722431183,0.36872413754463196,0.19930796325206757,1.0558655261993408
191,35542,35540,-0.03081544302403927,0.16180795431137085,0.9743918776512146,0.9593926668167114,0.8811893463134766,0.35771170258522034,1.997275710105896,4.022040843963623,0.3158433437347412,0.4761796295642853,0.2847631275653839,1.0501160621643066
192,35552,35550,0.019829606637358665,0.12205974012613297,0.9615030288696289,1.1839176416397095,2.2255301475524902,0.22353477776050568,1.9991298913955688,4.023336887359619,0.31584006547927856,0.3930678367614746,0.14111800491809845,1.0706089735031128
193,35562,35560,0.0505550317466259,0.08319395035505295,0.9781168103218079,0.29198527336120605,3.8871517181396484,0.3910726308822632,2.0001962184906006,4.022753715515137,0.31455859541893005,0.36602506041526794,0.16479121148586273,1.064526915550232
194,35572,35570,-0.0033189463429152966,0.0328308530151844,1.043317198753357,0.9771669507026672,4.163155555725098,0.25029757618904114,2.0022225379943848,4.022205829620361,0.31438687443733215,0.242518812417984,0.1847609281539917,1.0495189428329468
195,35582,35580,-0.005943389143794775,-0.02253975346684456,1.0115817785263062,0.9769881367683411,4.645817756652832,0.06702758371829987,2.001868724822998,4.021490097045898,0.31436583399772644,0.2752295136451721,0.2063453644514084,1.053956389427185
196,35592,35590,0.018947478383779526,-0.043122295290231705,0.9636406898498535,-0.1682741343975067,3.8953206539154053,0.03028116561472416,2.0021493434906006,4.020443916320801,0.3142930269241333,0.22928428649902344,0.22597722709178925,1.0457097291946411
197,35602,35600,-0.06109248474240303,-0.0018946339841932058,1.016065001487732,0.11531517654657364,-0.03156081959605217,-0.8738964796066284,2.0028882026672363,4.020327091217041,0.31653714179992676,0.21036335825920105,0.23802511394023895,1.0453747510910034
198,35612,35610,-0.07595018297433853,0.03042750060558319,0.9967267513275146,-0.32665327191352844,-0.04325017333030701,-0.3051615059375763,2.0031204223632812,4.019711494445801,0.3165958821773529,0.21653145551681519,0.234090656042099,1.0416719913482666
199,35622,35620,0.007816396653652191,0.05928457900881767,0.9854593873023987,-2.0147202014923096,1.5999736785888672,-0.04500635340809822,2.003539800643921,4.019839286804199,0.31674012541770935,0.2958879768848419,0.2203419804573059,1.0349950790405273
200,35632,35630,0.04731917753815651,0.04823460802435875,0.9968390464782715,-0.4518062174320221,1.0550930500030518,-0.44471725821495056,2.0049121379852295,4.01899528503418,0.3154281675815582,0.20753717422485352,0.19882582128047943,1.0268000364303589
201,35642,35640,0.04800284653902054,-0.050001341849565506,1.0060386657714844,-1.422921895980835,1.9826650619506836,-0.31378981471061707,2.005300760269165,4.01819372177124,0.3153938055038452,0.19529765844345093,0.18249090015888214,1.0192524194717407
202,35652,35650,0.031035320833325386,-0.14609986543655396,1.0269221067428589,1.3448022603988647,0.955803394317627,-0.559824526309967,2.005373954772949,4.017971515655518,0.31541305780410767,0.2567746639251709,0.1732262372970581,1.015632152557373
203,35662,35660,0.019666451960802078,-0.08729144930839539,1.0010268688201904,0.8684011101722717,2.4546172618865967,-1.050059199333191,2.0061848163604736,4.016946792602539,0.31623926758766174,0.16497980058193207,0.19394272565841675,0.9993860721588135
204,35672,35670,-0.018918927758932114,-0.09682362526655197,0.9918948411941528,-0.04439438879489899,2.6688272953033447,-0.24118351936340332,2.0064754486083984,4.0167927742004395,0.3163314461708069,0.21192263066768646,0.20047055184841156,0.9853494763374329
205,35682,35680,-0.009908637031912804,-0.06970590353012085,0.9930233359336853,0.7207338213920593,2.276151657104492,-0.9736438393592834,2.006096363067627,4.015881538391113,0.3164340555667877,0.242228165268898,0.20139671862125397,0.9801332950592041
206,35692,35690,-0.021549716591835022,-0.04670330137014389,1.00047767162323,-1.4490381479263306,5.698320388793945,-0.13335108757019043,2.0068163871765137,4.014966011047363,0.3164997398853302,0.18636232614517212,0.20470741391181946,0.9597734212875366
207,35702,35700,0.07509249448776245,-0.05626027658581734,1.0118560791015625,-1.4017655849456787,4.878833293914795,0.21825619041919708,2.0069351196289062,4.014249324798584,0.31603145599365234,0.18374578654766083,0.18301798403263092,0.9591823220252991
208,35712,35710,0.11040643602609634,-0.10685144364833832,1.0110911130905151,-0.7421942949295044,5.694346904754639,0.4048781991004944,2.0084903240203857,4.0136399269104,0.31600287556648254,-0.05669546127319336,0.23716434836387634,0.9473199844360352
209,35722,35720,0.048403557389974594,-0.15487203001976013,1.0166689157485962,-1.1193960905075073,5.57700777053833,0.03234578296542168,2.009040594100952,4.013599872589111,0.3161005675792694,-0.05678848549723625,0.21543481945991516,0.9544557332992554
210,35732,35730,-0.009059143252670765,-0.12513379752635956,1.0027868747711182,-1.6578054428100586,5.260232448577881,-0.9113758206367493,2.0094857215881348,4.013612747192383,0.31612688302993774,-0.06558828800916672,0.18748076260089874,0.9589806199073792
211,35742,35740,0.017667848616838455,-0.10778693109750748,0.9458816647529602,-0.956514298915863,3.6176490783691406,-0.6204866766929626,2.0109262466430664,4.012008190155029,0.3161301016807556,-0.21195897459983826,0.23839688301086426,0.9359122514724731
212,35752,35750,0.003259777557104826,-0.0039945426397025585,1.0068591833114624,-0.10283591598272324,-1.6652686595916748,-0.07530596107244492,2.0108628273010254,4.012455940246582,0.31626495718955994,-0.1602993905544281,0.20850776135921478,0.9401901960372925
213,35762,35760,0.008990018628537655,-0.014805592596530914,0.990699291229248,-0.6925090551376343,-2.2121870517730713,1.1072216033935547,2.0118024349212646,4.012156009674072,0.31447169184684753,-0.2100774049758911,0.18610289692878723,0.9374186396598816
214,35772,35770,0.02609325386583805,-0.03122972510755062,1.0267302989959717,-0.10963842272758484,-3.0454905033111572,1.106621265411377,2.0124666690826416,4.012106418609619,0.31438538432121277,-0.16311614215373993,0.1682889610528946,0.9488900899887085
215,35782,35780,0.015813611447811127,-0.010300060734152794,1.0714255571365356,-1.9494191408157349,-0.9710497856140137,0.30575159192085266,2.012950897216797,4.012112617492676,0.31429654359817505,-0.10995817184448242,0.15753717720508575,0.9611835479736328
216,35792,35790,-0.010998427867889404,0.040387410670518875,1.0638757944107056,-1.8405048847198486,0.7671784162521362,-0.14349684119224548,2.012845516204834,4.011838436126709,0.3143250644207001,-0.009778152219951153,0.12232323735952377,0.964937150478363
217,35802,35800,-0.040226660668849945,0.11275164037942886,0.9967404007911682,-2.769585609436035,4.37687349319458,0.004016381222754717,2.015392780303955,4.01206636428833,0.3155708909034729,-0.2009786069393158,0.07153351604938507,0.9630741477012634
218,35812,35810,-0.023654913529753685,0.0864095389842987,0.9488067626953125,-1.2886477708816528,4.595047473907471,-0.17789946496486664,2.0167315006256104,4.012002468109131,0.31567978858947754,-0.2530317008495331,0.03201392665505409,0.9656878709793091
219,35822,35820,-0.05318596959114075,0.16233262419700623,0.9976088404655457,-1.8085438013076782,4.200664520263672,0.31540706753730774,2.0171360969543457,4.011355876922607,0.3158513605594635,-0.2338787317276001,0.08355814963579178,0.9628249406814575
220,35832,35830,0.012720329686999321,0.0888797789812088,0.9697729349136353,-2.019967794418335,2.822648286819458,-0.018892841413617134,2.018221139907837,4.011360168457031,0.31488990783691406,-0.2908838987350464,0.03945821523666382,0.963487982749939
221,35842,35840,-0.02268996834754944,0.06274202466011047,1.094567060470581,0.38836315274238586,-1.062882423400879,0.47077327966690063,2.0191304683685303,4.010981559753418,0.31490013003349304,-0.3093923330307007,0.011239537969231606,0.9642724990844727
222,35852,35850,-0.05178680643439293,0.03326522931456566,1.1194090843200684,0.4323838949203491,-2.6919827461242676,0.8842000365257263,2.018881320953369,4.010847568511963,0.315059095621109,-0.1956012099981308,0.011847952380776405,0.9700376987457275
223,35862,35860,-0.06381040066480637,0.021891210228204727,1.0527089834213257,-0.1712799370288849,-1.322590708732605,0.19372671842575073,2.0212912559509277,4.010571479797363,0.3136383295059204,-0.3824366331100464,0.015942813828587532,0.9760168194770813
224,35872,35870,-0.06872185319662094,0.07219241559505463,0.9728792905807495,-0.16104699671268463,-0.636768102645874,1.1005077362060547,2.0213072299957275,4.009829044342041,0.3138611912727356,-0.26724502444267273,0.07747083902359009,0.9788217544555664
225,35882,35880,-0.013867460191249847,0.001767850830219686,0.9618498682975769,-0.7996848225593567,-2.0525434017181396,1.4148061275482178,2.021320104598999,4.009638786315918,0.3140470087528229,-0.2364756166934967,0.0625779926776886,0.9896859526634216
226,35892,35890,0.02551248110830784,-0.07515407353639603,1.0162434577941895,-1.1778827905654907,-0.5707027912139893,0.6366334557533264,2.0225064754486084,4.009701251983643,0.31407928466796875,-0.2836855351924896,0.03794969618320465,1.0008162260055542
227,35902,35900,0.020423466339707375,0.020913749933242798,1.0289493799209595,-1.4177286624908447,-2.4044065475463867,0.49895045161247253,2.0225846767425537,4.0097432136535645,0.3175041079521179,-0.1751546561717987,0.01478974986821413,1.0049164295196533
228,35912,35910,-0.02458387054502964,-0.013289683498442173,1.0669670104980469,-1.3283236026763916,-3.905580997467041,0.2902719974517822,2.0230722427368164,4.009799957275391,0.317833811044693,-0.1419292837381363,-0.011075160466134548,1.0069082975387573
229,35922,35920,-0.031545527279376984,-0.10603605210781097,1.070461392402649,-1.0379390716552734,-1.6206176280975342,0.00471878657117486,2.023153781890869,4.009708404541016,0.31829044222831726,-0.021947920322418213,-0.03797020763158798,1.0062506198883057
230,35932,35930,-0.0620831698179245,-0.05282377824187279,1.0762760639190674,-0.1046217828989029,-0.4442552328109741,0.38845503330230713,2.024458169937134,4.010091304779053,0.3186017572879791,-0.16217607259750366,-0.13565431535243988,1.0055630207061768
231,35942,35940,-0.03174964338541031,-0.01768225058913231,1.0028616189956665,0.5847480297088623,4.346895217895508,0.32332268357276917,2.0248398780822754,4.00998067855835,0.31917130947113037,-0.10037551820278168,-0.13394354283809662,0.9995218515396118
232,35952,35950,-0.012641320936381817,0.04101242870092392,0.9796040654182434,1.3146203756332397,4.690223217010498,0.24305953085422516,2.026451349258423,4.009700298309326,0.3196662962436676,-0.2370849996805191,-0.11758469045162201,1.0086685419082642
233,35962,35960,0.006956455297768116,0.11268701404333115,0.9387020468711853,2.1990458965301514,3.6588494777679443,0.48396292328834534,2.0275871753692627,4.009120464324951,0.31905728578567505,-0.2863006889820099,-0.08522998541593552,1.0163016319274902
234,35972,35970,0.06256808340549469,0.06954824924468994,0.919045090675354,2.7244420051574707,2.750906229019165,1.0198335647583008,2.0278518199920654,4.008886337280273,0.3195391595363617,-0.24380473792552948,0.03882056102156639,1.0199089050292969
235,35982,35980,0.04692056402564049,0.052307095378637314,0.9973167777061462,2.2539238929748535,0.4885522127151489,0.9556912779808044,2.029362201690674,4.008833885192871,0.31981170177459717,-0.416618287563324,0.07726982980966568,1.0372830629348755
236,35992,35990,0.0016467219684273005,-0.14243416488170624,1.0733850002288818,2.474656343460083,-2.273078680038452,0.2682285010814667,2.0292012691497803,4.008144855499268,0.3160960078239441,-0.2817341089248657,0.10783667117357254,1.0390684604644775
237,36002,36000,0.017257142812013626,-0.10798844695091248,0.9516650438308716,0.5626407265663147,-3.958418369293213,0.8499020338058472,2.029742479324341,4.007709503173828,0.31616857647895813,-0.3043067157268524,0.13246166706085205,1.037834644317627
238,36012,36010,-0.003660352434962988,-0.13072746992111206,0.9281116724014282,-1.6948331594467163,-5.579299449920654,0.6453269720077515,2.030738115310669,4.007776737213135,0.31618139147758484,-0.2993471324443817,0.12101637572050095,1.051466464996338
239,36022,36020,-0.10627074539661407,-0.05191466212272644,1.0192745923995972,-3.759479522705078,-4.672164440155029,0.22387300431728363,2.0307414531707764,4.0086517333984375,0.31635716557502747,-0.13525712490081787,0.06715866178274155,1.0562944412231445
240,36032,36030,-0.06485637277364731,-0.00023747427621856332,1.000662088394165,-5.233133792877197,-0.8993127346038818,-0.049685925245285034,2.031520128250122,4.0082221031188965,0.31412166357040405,-0.15985067188739777,-0.01080381777137518,1.0487580299377441
241,36042,36040,-0.01770041324198246,0.05994412675499916,0.9675484299659729,-4.507535934448242,0.0713544487953186,0.020648442208766937,2.032454013824463,4.008142471313477,0.3140287697315216,-0.13402481377124786,-0.10027260333299637,1.029797911643982
242,36052,36050,-0.01769663393497467,0.08379996567964554,0.9710211753845215,-3.418883800506592,2.476938009262085,0.045384880155324936,2.0324740409851074,4.007994174957275,0.3139171004295349,-0.1304485946893692,-0.1633133441209793,1.0387696027755737
243,36062,36060,0.027338048443198204,-0.04519474506378174,0.9661875367164612,-0.661275327205658,2.717686653137207,0.2825368344783783,2.0343406200408936,4.007487773895264,0.31436747312545776,-0.31803566217422485,-0.1986379772424698,1.0317254066467285
244,36072,36070,0.00669255293905735,-0.06927840411663055,0.986849844455719,2.487588882446289,3.740478515625,0.0040295603685081005,2.0352511405944824,4.006795883178711,0.31424981355667114,-0.3312019407749176,-0.10997287929058075,1.0325051546096802
245,36082,36080,0.00639948109164834,0.007227159105241299,0.9735764861106873,5.553115367889404,3.1357181072235107,-0.23541896045207977,2.035024881362915,4.005814075469971,0.31422191858291626,-0.26056790351867676,-0.04437931254506111,1.0220040082931519
246,36092,36090,0.04875130578875542,0.038687240332365036,0.952142596244812,4.151517391204834,-1.919167160987854,0.4966171383857727,2.035310983657837,4.005602836608887,0.31548577547073364,-0.1826021522283554,0.019890405237674713,1.0186655521392822
247,36102,36100,0.03336665406823158,-0.04246383532881737,0.9612046480178833,2.1920325756073,-3.0380728244781494,-0.4574826657772064,2.0352237224578857,4.004327297210693,0.3153744637966156,-0.12289714813232422,0.07981647551059723,1.007337212562561
248,36112,36110,0.032507531344890594,-0.053960733115673065,0.9926778674125671,-0.37579983472824097,-2.5302751064300537,0.0049836291000247,2.03773832321167,4.004300594329834,0.31506454944610596,-0.29640868306159973,0.09514746814966202,1.0107338428497314
249,36122,36120,0.014966810122132301,-0.03582881763577461,0.994862973690033,-3.645369529724121,-2.9006171226501465,0.5469452142715454,2.0376179218292236,4.004492282867432,0.3150056004524231,-0.1479824036359787,0.06106783077120781,1.008621096611023
250,36132,36130,-0.030426835641264915,0.0205399040132761,1.0680488348007202,-5.417048454284668,-0.789264976978302,0.003220913466066122,2.0400891304016113,4.005302429199219,0.31545037031173706,-0.2606768012046814,-0.018142221495509148,1.0285519361495972
251,36142,36140,-0.006716113071888685,0.02187700755894184,1.051909327507019,-3.9620306491851807,0.30807483196258545,-0.21945197880268097,2.0400068759918213,4.006600379943848,0.3154633343219757,-0.12963007390499115,-0.18118219077587128,1.0284866094589233
252,36152,36150,-0.009762517176568508,-0.008328170515596867,1.0435945987701416,-3.8246219158172607,1.003194808959961,-0.46820273995399475,2.0407238006591797,4.007155418395996,0.3154429793357849,-0.11001848429441452,-0.23963816463947296,1.0363876819610596
253,36162,36160,-0.012689145281910896,-0.052927158772945404,0.9835611581802368,-0.25140124559402466,2.0987253189086914,-0.7024129033088684,2.043102264404297,4.0065484046936035,0.3148542046546936,-0.2624627649784088,-0.18959616124629974,1.033905267715454
254,36172,36170,0.0007173062185756862,-0.09148679673671722,0.92596036195755,3.194329261779785,2.205193519592285,-0.21219320595264435,2.0441701412200928,4.005490303039551,0.3147783577442169,-0.3350968658924103,-0.09020161628723145,1.0117870569229126
255,36182,36180,0.022577134892344475,-0.09639985114336014,0.9509709477424622,5.543703079223633,0.06803340464830399,0.40619391202926636,2.043944835662842,4.004951477050781,0.3148176074028015,-0.23842814564704895,-0.10148582607507706,1.0072097778320312
256,36192,36190,0.029245130717754364,-0.05729448050260544,1.0309065580368042,6.723475933074951,-2.7136592864990234,-0.464709609746933,2.044009208679199,4.004561901092529,0.314878910779953,-0.11767474561929703,-0.005912039428949356,1.0076439380645752
257,36202,36200,0.0022896414157003164,0.03661983832716942,1.0321253538131714,3.9888665676116943,-2.517561197280884,0.8403835296630859,2.046055793762207,4.0036211013793945,0.3146393895149231,-0.28274670243263245,0.08177202939987183,1.0018380880355835
258,36212,36210,0.011943589895963669,0.020313415676355362,0.983648955821991,1.4656362533569336,-4.35952091217041,-0.1910458356142044,2.046560525894165,4.003565311431885,0.31460627913475037,-0.18991124629974365,0.05288676545023918,0.9917908906936646
259,36222,36220,-0.008793292567133904,-0.1045881137251854,1.027510166168213,-1.129343032836914,-5.558999061584473,0.5496605634689331,2.0471808910369873,4.003925800323486,0.31458809971809387,-0.10294182598590851,0.0564500167965889,1.0031801462173462
260,36232,36230,-0.0038005104288458824,-0.07561825960874557,1.072529673576355,-3.4416468143463135,0.5485307574272156,-1.191230058670044,2.0498006343841553,4.003856182098389,0.31356069445610046,-0.17027780413627625,0.03160877153277397,1.0015658140182495
261,36242,36240,0.04278448969125748,0.025142312049865723,1.0350507497787476,-5.101371765136719,4.612858295440674,-1.0572959184646606,2.0502870082855225,4.0038065910339355,0.31365054845809937,-0.06709079444408417,-0.03903748467564583,0.9770546555519104
262,36252,36250,0.08266033232212067,-0.03298966959118843,0.9839142560958862,-3.2166714668273926,1.2855451107025146,-0.580622673034668,2.05118727684021,4.0038676261901855,0.31370431184768677,-0.07071556895971298,-0.10060038417577744,0.9623420238494873
263,36262,36260,0.02895190566778183,-0.06717143207788467,0.9933171272277832,-1.4743434190750122,-1.8914140462875366,-0.14037038385868073,2.0524706840515137,4.0039472579956055,0.31097179651260376,-0.11199459433555603,-0.1363755315542221,0.9475253224372864
264,36272,36270,-0.007555532269179821,-0.04676777496933937,1.0438942909240723,0.49450844526290894,-2.9374380111694336,0.2722230851650238,2.0543577671051025,4.004129409790039,0.31073763966560364,-0.21441616117954254,-0.14580602943897247,0.9639279842376709
265,36282,36280,-0.015732819214463234,0.014236437156796455,1.05616295337677,3.083030939102173,-0.9536049365997314,0.3323505222797394,2.0546340942382812,4.003272533416748,0.31068986654281616,-0.15209172666072845,-0.1153973713517189,0.9379701614379883
266,36292,36290,-0.035865046083927155,0.06252644211053848,1.0235145092010498,5.923511981964111,-0.25678110122680664,-0.1245841309428215,2.0567660331726074,4.003460884094238,0.31098002195358276,-0.2446185201406479,-0.04057758301496506,0.9681432843208313
267,36302,36300,-0.03856717050075531,0.21654459834098816,0.9953847527503967,4.893479824066162,-1.8045897483825684,0.26660671830177307,2.0570366382598877,4.0031023025512695,0.31104162335395813,-0.19060856103897095,0.04425088316202164,0.9655206203460693
268,36312,36310,0.03649071976542473,0.0383899062871933,0.9639241695404053,3.635363817214966,-2.599277973175049,0.31086304783821106,2.05930757522583,4.003514289855957,0.31092867255210876,-0.25036561489105225,0.04753711447119713,0.96912682056427
269,36322,36320,-0.023128390312194824,0.06484046578407288,1.0702788829803467,1.8676700592041016,-10.460336685180664,0.6597515344619751,2.059847593307495,4.003570079803467,0.3106813430786133,-0.1259128898382187,0.09187790006399155,0.9720115065574646
270,36332,36330,0.008187146857380867,-0.08575008809566498,1.0050394535064697,-1.693497896194458,-6.167731285095215,0.19833646714687347,2.0597052574157715,4.003536701202393,0.3108486235141754,0.11877617239952087,0.09994586557149887,0.9742976427078247
271,36342,36340,-0.06079810485243797,-0.019380157813429832,1.0358952283859253,-2.4753546714782715,-9.576864242553711,0.8163029551506042,2.0632922649383545,4.003241539001465,0.3107597827911377,-0.03323066234588623,0.05894329398870468,0.9662688374519348
272,36352,36350,-0.07589085400104523,-0.011475919745862484,1.0160176753997803,-2.486827850341797,-5.4000983238220215,-0.03477245941758156,2.062045097351074,4.002715587615967,0.31089210510253906,0.13573524355888367,0.020720073953270912,0.958480954170227
273,36362,36360,0.05812357738614082,0.009035647846758366,1.0012569427490234,-3.8309810161590576,-3.1261703968048096,1.1291108131408691,2.06262469291687,4.002687454223633,0.3089842200279236,0.23206791281700134,-0.043477706611156464,0.955238401889801
274,36372,36370,0.053703054785728455,0.044367045164108276,0.998967707157135,-1.6893435716629028,-1.2917965650558472,0.6288789510726929,2.064300060272217,4.003016948699951,0.3089364469051361,0.30566608905792236,-0.07980716228485107,0.9631165862083435
275,36382,36380,-0.00475364550948143,-0.022876325994729996,1.0154950618743896,0.4352477788925171,0.6627469062805176,0.19617995619773865,2.064270257949829,4.0020060539245605,0.3089328706264496,0.2676040530204773,-0.08742881566286087,0.9469499588012695
276,36392,36390,0.0058755697682499886,0.08542253822088242,1.0098066329956055,2.3666341304779053,1.7741891145706177,-0.09868402779102325,2.0653138160705566,4.002017498016357,0.3086252212524414,0.27704858779907227,-0.05968363583087921,0.9464890360832214
277,36402,36400,9.554377174936235e-05,-0.0354316383600235,1.0115314722061157,5.751434803009033,0.8696864247322083,0.7878293991088867,2.0668787956237793,4.001612186431885,0.30857935547828674,0.21759434044361115,0.024633565917611122,0.9436097741127014
278,36412,36410,-0.0221082866191864,-0.04469811171293259,1.0181500911712646,4.736849784851074,0.7898940443992615,1.1068861484527588,2.0685744285583496,4.001214504241943,0.30850929021835327,0.15600885450839996,0.11322609335184097,0.9531477093696594
279,36422,36420,-0.007039240561425686,-0.07488143444061279,0.9584277272224426,3.8453481197357178,1.072080373764038,1.3032500743865967,2.0687437057495117,4.00140905380249,0.3104074001312256,0.2503008246421814,0.11030042916536331,0.9654889106750488
280,36432,36430,0.01679583080112934,-0.08651619404554367,0.9965965151786804,1.7903867959976196,0.8238199353218079,0.9416507482528687,2.0703072547912598,4.00189733505249,0.31048089265823364,0.19893671572208405,0.0917138010263443,0.9799394607543945
281,36442,36440,0.07314959913492203,-0.1520843654870987,1.005741000175476,-0.7567538022994995,0.2752818763256073,0.7399582862854004,2.0714828968048096,4.00185489654541,0.3106350600719452,0.2179349809885025,0.09985610842704773,0.9866934418678284
282,36452,36450,0.05277136713266373,-0.1353241503238678,1.0320231914520264,-2.5057709217071533,0.04611074551939964,-0.7044845223426819,2.0715529918670654,4.00194787979126,0.3108152747154236,0.33689776062965393,0.0851973220705986,0.9856637120246887
283,36462,36460,0.01222504023462534,-0.08156447857618332,0.9795349836349487,-0.789154052734375,-1.8763741254806519,0.2865253984928131,2.074345111846924,4.001977443695068,0.3091275095939636,0.14028818905353546,0.04888691008090973,0.9862842559814453
284,36472,36470,0.005316351540386677,-0.04612189531326294,0.9778088927268982,-1.2097253799438477,-0.1143040806055069,0.15524162352085114,2.07485294342041,4.001621246337891,0.30916815996170044,0.1952313780784607,0.0397106297314167,0.9773956537246704
285,36482,36480,0.007867000997066498,0.005044956691563129,1.0191529989242554,-0.5467676520347595,2.0224509239196777,0.9939203858375549,2.07547926902771,4.002994060516357,0.30917879939079285,0.22371859848499298,-0.11665777117013931,0.9823657870292664
286,36492,36490,0.07492170482873917,-0.0760384351015091,0.9951691031455994,1.7944161891937256,-0.2607089877128601,0.7294073104858398,2.0793211460113525,4.002318382263184,0.31004318594932556,0.013938124291598797,-0.07912394404411316,0.9827098250389099
287,36502,36500,0.04158905893564224,-0.08181943744421005,1.012612223625183,5.431554794311523,-1.4621343612670898,0.24750974774360657,2.077709197998047,4.001399517059326,0.3102249205112457,0.14818711578845978,-0.0041651055216789246,0.9750770330429077
288,36512,36510,0.012945729307830334,-0.07749279588460922,1.0164484977722168,7.678370952606201,-2.7359752655029297,0.44121691584587097,2.0783960819244385,4.000970363616943,0.3103291690349579,0.2234148234128952,0.1343710869550705,0.9753724932670593
289,36522,36520,0.0006430711364373565,-0.03278777375817299,1.0032380819320679,6.2846245765686035,0.2759484350681305,-0.17918257415294647,2.077630043029785,4.000761985778809,0.31134071946144104,0.3633139431476593,0.1793854683637619,0.9701763391494751
290,36532,36530,0.01020810753107071,-0.0004100052756257355,0.9595093131065369,3.835000514984131,-0.6692452430725098,0.38880622386932373,2.078000068664551,3.99969744682312,0.31149056553840637,0.3944444954395294,0.27233773469924927,0.9378808736801147
291,36542,36540,0.027798693627119064,-0.017230503261089325,0.914080798625946,1.4519819021224976,4.679131031036377,0.11252223700284958,2.079005002975464,3.9996581077575684,0.3116127550601959,0.30511099100112915,0.25758078694343567,0.9507392048835754
292,36552,36550,0.04312631115317345,-0.015033373609185219,0.9417866468429565,-0.5685856342315674,3.2054827213287354,0.8303235173225403,2.0799708366394043,3.9994289875030518,0.31170931458473206,0.19846971333026886,0.27149564027786255,0.9561519622802734
293,36562,36560,-0.006331478711217642,-0.05051553621888161,1.0784211158752441,-3.4735805988311768,3.045116424560547,0.9838187098503113,2.081036329269409,3.9995052814483643,0.31078284978866577,0.18364593386650085,0.2364608645439148,0.9613401889801025
294,36572,36570,-0.02690425142645836,-0.10200667381286621,1.0913563966751099,-3.4493048191070557,2.3480451107025146,0.9021849036216736,2.081820249557495,3.9989418983459473,0.31071385741233826,0.14788642525672913,0.2587946355342865,0.9698280096054077
295,36582,36580,-0.02114815078675747,-0.058186691254377365,1.0367934703826904,-2.1902308464050293,2.954801559448242,0.6293707489967346,2.083455801010132,3.999422550201416,0.3106505274772644,0.04103989154100418,0.2024085819721222,0.9631572365760803
296,36592,36590,-0.035867445170879364,0.17319215834140778,0.9731003046035767,-0.41850271821022034,2.560997486114502,-0.1219855323433876,2.083279848098755,3.9989283084869385,0.30922767519950867,0.09830837696790695,0.20153576135635376,0.9797756671905518
297,36602,36600,-0.014979464001953602,0.1758735626935959,0.9713650345802307,1.2108795642852783,1.5845998525619507,0.6307461261749268,2.0836222171783447,3.998337507247925,0.3092816472053528,0.0988382026553154,0.1974257230758667,0.9714280962944031
298,36612,36610,0.059653181582689285,0.07660956680774689,0.9055107235908508,0.946048378944397,2.8202056884765625,0.34943127632141113,2.0838582515716553,3.99798846244812,0.3093818426132202,0.20489157736301422,0.21766000986099243,0.9640702605247498
299,36622,36620,0.07818799465894699,0.1739170253276825,0.9742889404296875,0.38704222440719604,-1.6539286375045776,0.845889687538147,2.0852298736572266,3.9978628158569336,0.3098582923412323,0.1319655328989029,0.23641185462474823,0.9774236083030701
300,36632,36630,-0.000495831947773695,0.00929967686533928,1.0411887168884277,0.37198659777641296,-4.407557964324951,0.8509209752082825,2.088064670562744,3.996196985244751,0.3095807433128357,0.051396675407886505,0.3207396864891052,0.9382389187812805
301,36642,36640,-0.057057783007621765,-0.018275925889611244,1.0823336839675903,-0.25703200697898865,-3.374833822250366,0.5808479189872742,2.0879220962524414,3.9958181381225586,0.3095642030239105,0.04980574548244476,0.313506156206131,0.9197037220001221
302,36652,36650,-0.1014646589756012,0.16967080533504486,1.0216466188430786,-0.582513153553009,-1.0240705013275146,0.894477903842926,2.0891273021698,3.994178533554077,0.310220330953598,-0.04048522561788559,0.293800950050354,0.8979907631874084
303,36662,36660,-0.08496443927288055,0.2890980541706085,1.0047858953475952,-3.3723738193511963,0.6988921165466309,1.4048552513122559,2.089353561401367,3.9936444759368896,0.3103860020637512,0.06774085015058517,0.2596624195575714,0.9048086404800415
304,36672,36670,-0.009488791227340698,-0.035553768277168274,1.0039921998977661,-5.222334861755371,0.30693894624710083,1.3183547258377075,2.088853597640991,3.9933018684387207,0.3105716109275818,0.1701611429452896,0.18713028728961945,0.9110259413719177
305,36682,36680,0.016073161736130714,-0.0007598365191370249,1.0211938619613647,-4.913247585296631,0.5925652980804443,0.7988176345825195,2.0914580821990967,3.9928181171417236,0.31069400906562805,0.11786932498216629,0.1836034506559372,0.9082037806510925
306,36692,36690,0.006728033535182476,0.0049876868724823,1.0194710493087769,-4.369166851043701,-1.3443470001220703,0.7729853391647339,2.0914556980133057,3.992239475250244,0.3104264438152313,0.0780717134475708,0.11032260209321976,0.9092820882797241
307,36702,36700,-0.04330776631832123,0.011624752543866634,0.9982710480690002,-3.1076090335845947,-2.1999900341033936,0.4549948573112488,2.0914037227630615,3.992424249649048,0.31061744689941406,0.21117441356182098,0.0430874340236187,0.9239864349365234
308,36712,36710,-0.10492714494466782,0.11352536827325821,0.9859752058982849,-1.4646928310394287,-2.377239465713501,0.25813689827919006,2.093714952468872,3.9904839992523193,0.31064164638519287,0.005859833676367998,0.1574225276708603,0.9016017913818359
309,36722,36720,-0.06799717247486115,0.11220104992389679,0.9563887715339661,-1.0837454795837402,-3.338407278060913,0.9393537640571594,2.093665599822998,3.99053692817688,0.3136785626411438,0.15781518816947937,0.11872918158769608,0.9120148420333862
310,36732,36730,-0.016592876985669136,0.11532934755086899,1.0649290084838867,-1.0102044343948364,-4.64089822769165,1.7260640859603882,2.0949759483337402,3.990870714187622,0.3139389157295227,0.17894092202186584,0.09177331626415253,0.9035480618476868
311,36742,36740,-0.03387158364057541,0.09107857942581177,1.0916506052017212,-1.0948967933654785,-4.163761138916016,1.7027908563613892,2.094313144683838,3.9906344413757324,0.3143565356731415,0.3342127799987793,0.05993804335594177,0.944821834564209
312,36752,36750,-0.035742033272981644,0.017213817685842514,1.0228546857833862,0.12955796718597412,-2.550367593765259,1.015904188156128,2.0953688621520996,3.990161895751953,0.3144378364086151,0.3108726441860199,0.03835158422589302,0.9449225664138794
313,36762,36760,-0.05020624026656151,-0.009688920341432095,0.9979233145713806,-1.1965372562408447,1.2641046047210693,1.9313204288482666,2.096078634262085,3.988438606262207,0.31482526659965515,0.2562672793865204,0.09698449820280075,0.9313801527023315
314,36772,36770,0.03381088376045227,-0.06836991757154465,0.9954228401184082,-0.759894073009491,1.56974458694458,0.507905900478363,2.096797227859497,3.988494873046875,0.3152509927749634,0.25563475489616394,0.06360970437526703,0.9510816931724548
315,36782,36780,-0.00921125989407301,0.014985200017690659,1.0024676322937012,-1.8094199895858765,2.177262306213379,1.0807486772537231,2.096982002258301,3.9886269569396973,0.31576916575431824,0.31706666946411133,0.02499467507004738,0.9547175168991089
316,36792,36790,-0.03296700865030289,0.10412342101335526,0.9583753347396851,-3.0129473209381104,2.390815258026123,0.7352043986320496,2.097625732421875,3.987635374069214,0.3132757246494293,0.28102466464042664,0.04789868742227554,0.961273193359375
317,36802,36800,-0.005154414568096399,0.0619640126824379,0.950485348701477,-1.2378103733062744,0.23012298345565796,1.2097119092941284,2.09759783744812,3.9872946739196777,0.3135501444339752,0.31999459862709045,-0.0015529859811067581,0.9675883650779724
318,36812,36810,-0.014165112748742104,-0.01174613181501627,1.0375187397003174,-1.4613456726074219,3.342308759689331,1.319740891456604,2.1000001430511475,3.9874069690704346,0.31363624334335327,0.1152154952287674,-0.039416298270225525,0.9566327333450317
319,36822,36820,-0.09418292343616486,0.07482832670211792,1.1006536483764648,-0.19130702316761017,3.8186161518096924,0.5213274955749512,2.100785255432129,3.9859750270843506,0.3142071068286896,0.009594375267624855,0.019738681614398956,0.9612317681312561
320,36832,36830,-0.05726804956793785,0.05741315707564354,1.050854206085205,-1.3432053327560425,4.005087852478027,0.44581085443496704,2.1009960174560547,3.9842936992645264,0.3145166337490082,0.044023189693689346,0.06585760414600372,0.9371267557144165
321,36842,36840,0.0072784628719091415,-0.005494912154972553,0.9823763966560364,-1.4346362352371216,3.5837674140930176,-0.07280890643596649,2.1019201278686523,3.9844698905944824,0.3148592710494995,0.020743554458022118,0.021235337480902672,0.9439950585365295
322,36852,36850,0.019201336428523064,0.06174534186720848,0.9416361451148987,-2.4732284545898438,0.9012657403945923,-0.36722448468208313,2.1030313968658447,3.983996868133545,0.3130960166454315,-0.040978509932756424,-0.0380747951567173,0.9290047287940979
323,36862,36860,0.013195845298469067,0.10349522531032562,0.9213719964027405,-2.652953863143921,2.28802490234375,-0.49022161960601807,2.1030192375183105,3.9840800762176514,0.3133954703807831,0.08163738250732422,-0.09871218353509903,0.9290347099304199
324,36872,36870,0.033892981708049774,0.04308466613292694,0.9194303750991821,-2.6148135662078857,-3.436051368713379,0.21427734196186066,2.1036252975463867,3.984586477279663,0.31358012557029724,0.16065599024295807,-0.1545494645833969,0.9500969648361206
325,36882,36880,0.0070235286839306355,-0.01036060880869627,0.9850596189498901,-1.3124380111694336,-2.8539505004882812,0.4447728395462036,2.104910135269165,3.9848692417144775,0.31361690163612366,0.16044163703918457,-0.19391483068466187,0.954119086265564
326,36892,36890,0.012070168741047382,-0.05651072785258293,0.9806934595108032,-2.2784318923950195,1.5488131046295166,0.7281618118286133,2.1054933071136475,3.9844677448272705,0.31515324115753174,0.18166875839233398,-0.14906394481658936,0.9454493522644043
327,36902,36900,0.0029301405884325504,-0.16867727041244507,1.0760974884033203,0.12340166419744492,1.796369194984436,1.6637283563613892,2.1073873043060303,3.9836130142211914,0.3151400089263916,0.026773303747177124,-0.16897857189178467,0.9463671445846558
328,36912,36910,-0.01969444938004017,-0.1302768439054489,1.0915974378585815,1.9909188747406006,3.584599256515503,1.346024751663208,2.108344554901123,3.984046220779419,0.3152289092540741,-0.0010933487210422754,-0.15827272832393646,0.9766680002212524
329,36922,36920,0.00955690536648035,-0.13257963955402374,1.0058529376983643,2.517296075820923,4.895049095153809,0.921186625957489,2.1087148189544678,3.983751058578491,0.3120808005332947,0.02420373260974884,-0.13044172525405884,0.9794333577156067
330,36932,36930,0.054676979780197144,-0.1432008296251297,0.9272936582565308,1.6990840435028076,5.747878551483154,0.420041561126709,2.1089489459991455,3.982776641845703,0.3121398091316223,0.11113958805799484,-0.03352784737944603,0.9510371685028076
331,36942,36940,0.033847641199827194,-0.026618432253599167,0.9504968523979187,0.9807997941970825,5.840384006500244,0.9328994750976562,2.108062505722046,3.9816203117370605,0.3122577965259552,-0.12549079954624176,-0.033118169754743576,0.9554595351219177
332,36952,36950,0.08059051632881165,-0.001853673136793077,0.9232043623924255,-1.873853325843811,4.4764323234558105,1.097537636756897,2.110801935195923,3.9812991619110107,0.31035393476486206,-0.08335324376821518,-0.0661008432507515,0.9512413740158081
333,36962,36960,0.1555757075548172,-0.1386585831642151,0.9629452228546143,-3.9447505474090576,0.7708170413970947,1.0065041780471802,2.1110496520996094,3.982218027114868,0.310188889503479,-0.09771593660116196,-0.2203642874956131,0.9652180671691895
334,36972,36970,0.09142044931650162,-0.11744674295186996,0.9988906383514404,-4.304091930389404,-3.214191198348999,0.5171323418617249,2.1114609241485596,3.9816336631774902,0.30990031361579895,0.040543705224990845,-0.2954558730125427,0.9508376121520996
335,36982,36980,0.008181288838386536,-0.021176965907216072,0.9816073179244995,-2.499293804168701,-3.5040667057037354,1.2964876890182495,2.1109580993652344,3.9830451011657715,0.3101288974285126,0.10542552918195724,-0.26971641182899475,1.0019257068634033
336,36992,36990,-0.009108113124966621,-0.02551398053765297,0.9747456908226013,-0.37323787808418274,-2.635751724243164,0.9018237590789795,2.1124677658081055,3.9832358360290527,0.3097713589668274,-0.034150395542383194,-0.27752140164375305,1.0140973329544067
337,37002,37000,-0.02434554323554039,-0.1022205725312233,0.9888192415237427,2.076737403869629,-0.7166848182678223,0.9359496235847473,2.112567186355591,3.982766628265381,0.3094959557056427,0.09883986413478851,-0.2794148325920105,0.9999898076057434
338,37012,37010,-0.023203913122415543,-0.10903095453977585,0.9748032093048096,2.0725412368774414,5.001903057098389,0.9815152287483215,2.1131370067596436,3.9823451042175293,0.30916300415992737,0.02277625910937786,-0.25527024269104004,0.9892467856407166
339,37022,37020,-0.05734975263476372,-0.00897995475679636,1.0331231355667114,2.13036847114563,3.5129590034484863,0.963945746421814,2.1145362854003906,3.9810917377471924,0.30974146723747253,0.002820375142619014,-0.21885855495929718,0.9909515380859375
340,37032,37030,-0.07364100962877274,0.08597543090581894,1.0099819898605347,1.1774520874023438,3.488053798675537,1.1317777633666992,2.115605592727661,3.980846405029297,0.30947935581207275,-0.03948093205690384,-0.1864364594221115,0.9896889328956604
341,37042,37040,-0.03236166760325432,0.021094148978590965,1.0228080749511719,0.018146013841032982,3.615067958831787,0.7551148533821106,2.116180896759033,3.9804906845092773,0.3092048764228821,-0.07830529659986496,-0.1737229973077774,0.9912288188934326
342,37052,37050,0.015420828945934772,-0.12725424766540527,0.9735121130943298,-1.5256743431091309,1.5958833694458008,0.933641791343689,2.117414712905884,3.9798836708068848,0.3072282373905182,-0.10803762823343277,-0.10124832391738892,1.0013571977615356
343,37062,37060,-0.001512284972704947,-0.0066651711240410805,1.0401840209960938,-0.4374656677246094,-0.9224682450294495,0.22820806503295898,2.1173458099365234,3.980168342590332,0.30695661902427673,-0.025539660826325417,-0.1244247630238533,1.0131338834762573
344,37072,37070,0.016512494534254074,-0.054362259805202484,0.9907768964767456,-3.035064458847046,-0.9784461259841919,0.9151867628097534,2.1187500953674316,3.9791078567504883,0.3065545856952667,-0.08717633783817291,-0.08129442483186722,1.0011911392211914
345,37082,37080,0.01717955991625786,-0.01454155333340168,1.0090430974960327,-1.32016921043396,-2.4897139072418213,1.2477521896362305,2.119844436645508,3.9790759086608887,0.3085094094276428,-0.13070757687091827,-0.13276240229606628,1.0138980150222778
346,37092,37090,-0.04050343856215477,0.0621471107006073,1.037837028503418,-1.6707141399383545,-0.10490107536315918,-0.5617517232894897,2.120736598968506,3.979559898376465,0.308308482170105,-0.16137699782848358,-0.1773327738046646,1.048661708831787
347,37102,37100,-0.045170750468969345,0.08959224075078964,0.985630452632904,-2.3052425384521484,2.5154409408569336,-0.3619789481163025,2.1224007606506348,3.9792158603668213,0.3080872893333435,-0.20971491932868958,-0.21913491189479828,1.0328806638717651
348,37112,37110,0.003056162968277931,-0.014643880538642406,0.9732608199119568,-1.3996658325195312,3.2166411876678467,-0.12184205651283264,2.1230764389038086,3.97959303855896,0.3079468905925751,-0.12682178616523743,-0.26443469524383545,1.0310304164886475
349,37122,37120,0.008823907934129238,-0.05329814553260803,0.9262227416038513,-0.08398011326789856,-0.8230958580970764,0.8148431181907654,2.1230263710021973,3.9780585765838623,0.30855002999305725,-0.040709078311920166,-0.21105174720287323,0.9893340468406677
350,37132,37130,-0.01662689447402954,-0.07795720547437668,0.944189190864563,0.861804723739624,-2.4755544662475586,2.3191893100738525,2.123671293258667,3.9768567085266113,0.308341920375824,-0.0930919200181961,-0.21693219244480133,0.9682980179786682
351,37142,37140,0.0061842831782996655,-0.031682088971138,1.0444210767745972,0.8956966996192932,-1.9879796504974365,2.047710418701172,2.1230945587158203,3.976372003555298,0.3081603944301605,0.04197355732321739,-0.21253438293933868,0.9725518822669983
352,37152,37151,-0.020230833441019058,0.045632392168045044,1.0538870096206665,2.009474515914917,-1.041391134262085,0.42084214091300964,2.124192476272583,3.976184844970703,0.30756664276123047,0.0028581786900758743,-0.2027083933353424,0.9995825290679932
353,37162,37160,0.013126524165272713,0.04464438930153847,0.9770407676696777,-0.09133468568325043,0.19127680361270905,1.5055307149887085,2.1254653930664062,3.9758858680725098,0.30729854106903076,-0.047599907964468,-0.1958625465631485,1.0047341585159302
354,37172,37170,0.009820472449064255,-0.07303328812122345,1.038404941558838,-0.48551884293556213,6.25493049621582,0.35180366039276123,2.126675844192505,3.9756500720977783,0.3071030378341675,-0.1471339613199234,-0.2021714448928833,1.021238923072815
355,37182,37180,0.02416166663169861,-0.016047967597842216,0.9815269112586975,-1.6370954513549805,4.89509391784668,0.44341206550598145,2.127790689468384,3.975137710571289,0.30626609921455383,-0.09957645833492279,-0.222967267036438,1.0018720626831055
356,37192,37190,-0.00652083707973361,0.023670608177781105,1.0526609420776367,-1.6604959964752197,2.850741147994995,0.36301669478416443,2.1289658546447754,3.974487543106079,0.30597984790802,-0.22661489248275757,-0.2511247396469116,0.9834886193275452
357,37202,37200,0.005988448392599821,-0.009739639237523079,1.0236715078353882,0.9664279222488403,-2.798628568649292,0.07579834014177322,2.130375623703003,3.9768242835998535,0.3058333694934845,-0.22913672029972076,-0.2678180932998657,1.066670298576355
358,37212,37210,-0.046899862587451935,0.1025947853922844,0.9497970342636108,1.010380744934082,-3.1232428550720215,0.15486828982830048,2.1312899589538574,3.97655987739563,0.30561983585357666,-0.27007147669792175,-0.26241534948349,1.056565761566162
359,37222,37220,-0.009214824065566063,-0.06919815391302109,1.0288233757019043,0.6390784978866577,-3.2868621349334717,-0.12754321098327637,2.132901430130005,3.976480722427368,0.30693623423576355,-0.192937433719635,-0.24916045367717743,1.0529130697250366
360,37232,37230,0.021389920264482498,-0.04000413045287132,1.038185715675354,2.5732970237731934,-4.968166351318359,-0.2848626673221588,2.13297963142395,3.9764015674591064,0.3069521486759186,-0.0913669541478157,-0.2293025106191635,1.0529433488845825
361,37242,37240,-0.005821835249662399,-0.011475111357867718,1.0301692485809326,1.578081488609314,-7.5877156257629395,0.7358866930007935,2.133394479751587,3.9758963584899902,0.3069610595703125,0.010309272445738316,-0.19464285671710968,1.0455909967422485
362,37252,37250,-0.01893557980656624,-0.05791730061173439,1.0975805521011353,2.30800724029541,-7.347900867462158,0.7088906764984131,2.134000539779663,3.9765756130218506,0.3104211091995239,0.11448714137077332,-0.23593628406524658,1.0431517362594604
363,37262,37260,-0.035797689110040665,-0.04857761785387993,1.0460329055786133,2.369922637939453,0.15426598489284515,0.3137804865837097,2.1346018314361572,3.976732015609741,0.31070709228515625,0.09583304822444916,-0.19052280485630035,1.0676485300064087
364,37272,37270,-0.013326641172170639,0.019844140857458115,1.0180013179779053,1.5697935819625854,4.091331481933594,-0.46156737208366394,2.1352570056915283,3.9759819507598877,0.31104904413223267,0.0995425209403038,-0.15341219305992126,1.044830322265625
365,37282,37280,0.009629229083657265,0.052049946039915085,0.957054078578949,0.5704572796821594,4.482748508453369,0.21652330458164215,2.1366043090820312,3.976027488708496,0.31163474917411804,0.05766623839735985,-0.13496281206607819,1.0358455181121826
366,37292,37290,-0.003531260183081031,0.036213818937540054,1.0229098796844482,-0.511348307132721,3.2252190113067627,0.19053438305854797,2.136255979537964,3.975865602493286,0.312089741230011,0.07689519971609116,-0.13133881986141205,1.0338562726974487
367,37302,37300,0.00632076058536768,-0.0272111427038908,1.0214122533798218,0.5331632494926453,5.835882663726807,-0.4157388508319855,2.138063430786133,3.9758663177490234,0.3123862147331238,-0.05857359245419502,-0.12983198463916779,1.037216067314148
368,37312,37310,0.04484831541776657,0.033375829458236694,0.9236711263656616,0.33889028429985046,3.660977840423584,-0.6113256812095642,2.137591600418091,3.976022481918335,0.31025075912475586,-0.04018080234527588,-0.12304715812206268,1.0450161695480347
369,37322,37320,-0.0028515278827399015,0.0207152608782053,0.9816040992736816,0.23519930243492126,3.4490017890930176,-0.2517002820968628,2.138339042663574,3.975393295288086,0.3104374408721924,-0.09241802245378494,-0.11426512151956558,1.0158183574676514
370,37332,37330,-0.0017923674313351512,-0.039141878485679626,1.0155651569366455,2.0954790115356445,-1.8113903999328613,-0.0028694611974060535,2.1390724182128906,3.9752633571624756,0.31059369444847107,-0.10553015023469925,-0.09628879278898239,0.9856067299842834
371,37342,37340,-0.02576117217540741,-0.06431159377098083,1.010190486907959,1.455077052116394,-1.4045659303665161,0.49985042214393616,2.139897584915161,3.9742159843444824,0.31078699231147766,-0.08833305537700653,-0.07070430368185043,0.9723178148269653
372,37352,37350,-0.027159620076417923,-0.09702995419502258,0.9839161038398743,1.5614064931869507,-0.18321818113327026,0.42901167273521423,2.1412928104400635,3.9739649295806885,0.3113398551940918,-0.1322956681251526,-0.04773319885134697,0.9695500135421753
373,37362,37360,-0.019327819347381592,0.08896179497241974,1.0203030109405518,1.578713059425354,-0.02484152838587761,0.4528539180755615,2.1424949169158936,3.9735119342803955,0.3114875555038452,-0.1775735765695572,-0.024947775527834892,0.9626666307449341
374,37372,37370,-0.0291019044816494,0.08736548572778702,1.035103440284729,0.6132785081863403,-0.39821070432662964,0.1524113267660141,2.143801212310791,3.9734957218170166,0.31160426139831543,-0.22824037075042725,-0.008824683725833893,0.9708632230758667
375,37382,37380,-0.030785057693719864,-0.055277734994888306,0.9927867650985718,-0.338182270526886,-1.5501641035079956,-0.18911103904247284,2.144186019897461,3.9732275009155273,0.3115524649620056,-0.1200919970870018,-0.005113132297992706,0.9453164935112
376,37392,37390,-0.01386314444243908,-0.04481782391667366,1.0146068334579468,-0.944023072719574,-1.1726410388946533,-0.11026666313409805,2.143841028213501,3.9733572006225586,0.3118796646595001,-0.11200742423534393,-0.08892358839511871,0.9444568157196045
377,37402,37400,-0.06578949093818665,0.016783613711595535,0.993236243724823,-1.6353368759155273,-0.7811576128005981,0.11015110462903976,2.1445305347442627,3.972644567489624,0.31212031841278076,-0.10212403535842896,-0.10294400155544281,0.9107664823532104
378,37412,37410,-0.06467108428478241,0.10175573080778122,0.9800256490707397,-1.6461790800094604,-0.014289823360741138,0.3212764859199524,2.145077705383301,3.973233222961426,0.3152957260608673,-0.09025368094444275,-0.126536563038826,0.9321030378341675
379,37422,37420,-0.005893432069569826,0.15858902037143707,0.9897578358650208,-0.3863721787929535,1.3135924339294434,0.3795965313911438,2.1456737518310547,3.972702980041504,0.31568074226379395,-0.1616857349872589,-0.06591673195362091,0.9097031354904175
380,37432,37430,0.035202134400606155,0.11116302013397217,0.9806098937988281,1.2587634325027466,-0.5925714373588562,0.1069919764995575,2.1463987827301025,3.9729645252227783,0.3162047266960144,-0.06443257629871368,-0.06718288362026215,0.9540172815322876
381,37442,37440,0.007379358168691397,-0.0004698765987996012,0.9813815355300903,2.513669490814209,-2.2715864181518555,-0.3022347688674927,2.146897554397583,3.972987413406372,0.3165590465068817,-0.26124483346939087,-0.04173684120178223,0.9455475211143494
382,37452,37450,-0.06558530777692795,-0.022744135931134224,1.0157204866409302,1.4364867210388184,0.05633940547704697,-1.0971043109893799,2.1488184928894043,3.9729831218719482,0.31810587644577026,-0.1258162409067154,-0.007433919236063957,0.9623402953147888
383,37462,37460,-0.032189201563596725,0.02088109590113163,1.009811520576477,-0.09530775994062424,-0.19910934567451477,-1.4064723253250122,2.148118019104004,3.9721217155456543,0.3186053931713104,-0.010716760531067848,0.008476026356220245,0.9239434599876404
384,37472,37470,-0.009296043775975704,0.010952051728963852,0.9526152014732361,-1.1151419878005981,-0.4795955419540405,-1.0890005826950073,2.150672197341919,3.9722113609313965,0.3188796937465668,-0.20774595439434052,-0.07403796166181564,0.8830970525741577
385,37482,37480,-0.07130705565214157,0.11064577102661133,0.9514763355255127,-1.9199731349945068,-1.2854421138763428,-0.5114765763282776,2.150362968444824,3.972421169281006,0.3180526793003082,-0.0717092752456665,-0.0902908444404602,0.869438886642456
386,37492,37490,-0.04195388779044151,0.10024748742580414,0.9300315976142883,-1.424208641052246,-1.5845669507980347,0.10712681710720062,2.1507647037506104,3.97019624710083,0.31835228204727173,-0.018778245896100998,-0.11394947022199631,0.7903063893318176
387,37502,37500,0.013862411491572857,0.053074710071086884,0.9275272488594055,-0.45780113339424133,-2.5432372093200684,0.7088446617126465,2.15120792388916,3.968930244445801,0.318539023399353,0.03260504826903343,-0.05019867792725563,0.7419920563697815
388,37512,37510,-0.020891185849905014,-0.00637007923796773,0.9753758311271667,0.6043925881385803,-0.8460204005241394,1.131029725074768,2.15195369720459,3.968714475631714,0.31634289026260376,0.001973892329260707,-0.12992091476917267,0.7434992790222168
389,37522,37520,0.006900348700582981,-0.022599872201681137,0.984045147895813,0.7636057734489441,0.7574838995933533,1.6620718240737915,2.1534535884857178,3.9699971675872803,0.31622061133384705,-0.04707331582903862,-0.11278321593999863,0.8083277940750122
390,37532,37530,0.013710287399590015,-0.010853904299438,0.9646764397621155,1.5471783876419067,2.1064960956573486,0.5623990297317505,2.153939723968506,3.968667507171631,0.3161405622959137,-0.039008136838674545,-0.011164171621203423,0.8019914031028748
391,37542,37540,0.07050412893295288,-0.1323457956314087,0.9477000832557678,2.1935367584228516,2.126622200012207,0.40715527534484863,2.1537890434265137,3.9680371284484863,0.3161199688911438,0.02716284617781639,0.01574687846004963,0.7713040709495544
392,37552,37550,0.017866982147097588,-0.0658816322684288,0.9735913872718811,1.0292737483978271,1.3235567808151245,0.15047156810760498,2.1553375720977783,3.9667892456054688,0.3158726692199707,-0.06986897438764572,0.03870011493563652,0.7379569411277771
393,37562,37560,-0.011105169542133808,-0.05032464489340782,0.9983429312705994,-0.22639115154743195,0.9332514405250549,-0.13916614651679993,2.156373977661133,3.966660976409912,0.3156653344631195,-0.15049131214618683,0.04239058122038841,0.7461224794387817
394,37572,37570,-0.015360454097390175,-0.07939054816961288,0.9474817514419556,-1.610972285270691,-0.29724758863449097,-0.23371116816997528,2.156158685684204,3.96688175201416,0.31559136509895325,-0.05209891125559807,-0.04991674795746803,0.7175653576850891
395,37582,37580,-0.0018550492823123932,-0.05668872594833374,0.9095962047576904,-2.44680118560791,-0.23800444602966309,0.3256007134914398,2.1572530269622803,3.966020107269287,0.3136911988258362,-0.10314644873142242,-0.002148715080693364,0.7032040357589722
396,37592,37590,0.03524727374315262,-0.06748358905315399,0.9041498899459839,-2.8485445976257324,-1.3344333171844482,0.1295134276151657,2.1581308841705322,3.965831756591797,0.3132598102092743,0.008642205037176609,-0.05048539489507675,0.6971697211265564
397,37602,37600,0.0036252683494240046,-0.024318696931004524,0.9912787675857544,-2.1757798194885254,-2.3488352298736572,1.2399141788482666,2.1584925651550293,3.9664433002471924,0.31277045607566833,-0.03452524542808533,-0.09521413594484329,0.7739535570144653
398,37612,37610,-0.01244710385799408,-0.048555489629507065,1.054540991783142,-1.3591994047164917,-3.451145648956299,0.6593673229217529,2.15917706489563,3.968541145324707,0.31323593854904175,0.012340249493718147,-0.12525370717048645,0.8196483254432678
399,37622,37620,0.04114456847310066,-0.12057114392518997,1.015915036201477,-1.0137261152267456,-3.1293563842773438,0.012092730030417442,2.1592159271240234,3.9687716960906982,0.31286177039146423,0.127485454082489,-0.1464083194732666,0.8135617971420288
400,37632,37630,0.004939385689795017,-0.07969397306442261,1.0544644594192505,0.050362344831228256,6.297900199890137,-0.7100498080253601,2.161440849304199,3.9684410095214844,0.3123798966407776,-0.030313918367028236,-0.15302954614162445,0.7882663607597351
401,37642,37640,0.04055183008313179,-0.02139548771083355,0.9579920768737793,1.7291983366012573,3.2643651962280273,-0.4277082085609436,2.1613450050354004,3.967512369155884,0.3144410252571106,-0.005614438559859991,-0.13985270261764526,0.7530561685562134
402,37652,37650,0.004886002279818058,-0.05605475977063179,0.914031445980072,2.7151379585266113,5.045938491821289,-0.34819725155830383,2.163020610809326,3.967749834060669,0.3141210377216339,-0.13399915397167206,-0.09883004426956177,0.7680487036705017
403,37662,37660,0.019918082281947136,-0.08747805655002594,0.9311535954475403,-0.0192192904651165,5.502286911010742,0.7448165416717529,2.163072109222412,3.9667420387268066,0.3138718008995056,-0.11383360624313354,-0.07262144237756729,0.7290074825286865
404,37672,37670,0.04222419857978821,-0.10709984600543976,1.0136009454727173,0.8306862115859985,-0.25395193696022034,1.1221709251403809,2.163893222808838,3.9664037227630615,0.31348279118537903,-0.15409629046916962,-0.06090231239795685,0.7210626602172852
405,37682,37680,0.06113492324948311,-0.12025966495275497,1.0407823324203491,1.581896424293518,-1.4244877099990845,0.5499116778373718,2.1639010906219482,3.9671614170074463,0.311916708946228,-0.06005198881030083,-0.11312336474657059,0.7362400889396667
406,37692,37690,0.0030255522578954697,-0.031208133324980736,0.9888761639595032,0.5131101608276367,-2.178316831588745,0.3537101447582245,2.1641666889190674,3.9670443534851074,0.31154608726501465,0.042283736169338226,-0.08148249238729477,0.7228162288665771
407,37702,37700,-0.008249334059655666,-0.07161148637533188,0.9922921061515808,-1.0597299337387085,0.03156943619251251,0.9498497247695923,2.1661412715911865,3.967229127883911,0.3110477924346924,-0.11560141295194626,-0.07906761020421982,0.7896339893341064
408,37712,37710,0.01006873045116663,-0.013171982020139694,0.9989610910415649,0.4109833538532257,4.374964714050293,-0.3257043659687042,2.165799856185913,3.967733383178711,0.3084838390350342,-0.046687956899404526,-0.08181044459342957,0.7773243188858032
409,37722,37720,0.042578961700201035,0.004372069612145424,0.9755633473396301,-0.26163792610168457,2.4323012828826904,-0.235930934548378,2.167553186416626,3.9676434993743896,0.30787020921707153,-0.17342855036258698,-0.07681986689567566,0.7679960131645203
410,37732,37730,0.019056960940361023,-0.044082049280405045,1.0805433988571167,-2.4521093368530273,5.146153450012207,-0.09806540608406067,2.1674349308013916,3.967477798461914,0.30733633041381836,-0.1353723555803299,-0.09397032111883163,0.7543767690658569
411,37742,37740,0.02227085642516613,-0.13615846633911133,1.089332103729248,-1.7095173597335815,3.168208599090576,0.22120149433612823,2.169814348220825,3.9675798416137695,0.3060232996940613,-0.3564313054084778,-0.11649544537067413,0.7491369247436523
412,37752,37750,-0.05452828109264374,0.05749182030558586,1.0481317043304443,0.0118337944149971,2.8357131481170654,0.09044767171144485,2.170659065246582,3.9677813053131104,0.30552053451538086,-0.3799537718296051,-0.11671599000692368,0.8102606534957886
413,37762,37760,-0.007279547397047281,0.05977419763803482,1.0251855850219727,1.8783352375030518,3.2819690704345703,-1.1745249032974243,2.1702661514282227,3.9685490131378174,0.3052409589290619,-0.31686654686927795,-0.09889884293079376,0.8093121647834778
414,37772,37770,-0.02234059013426304,0.10213170200586319,0.9451568722724915,0.7053558230400085,2.8924577236175537,-1.1395930051803589,2.170302629470825,3.9699249267578125,0.3049204349517822,-0.2524888813495636,-0.07650576531887054,0.8636671900749207
415,37782,37780,0.0027902768924832344,0.10680589824914932,1.0031167268753052,0.22568506002426147,-0.9679933190345764,-0.8099100589752197,2.1721291542053223,3.969304323196411,0.30475807189941406,-0.39393243193626404,-0.06722535938024521,0.8359224200248718
416,37792,37790,0.018653269857168198,0.01575249433517456,1.0503735542297363,-0.4218422472476959,-4.631949424743652,0.37769967317581177,2.174145460128784,3.9725208282470703,0.3043852150440216,-0.2441379725933075,-0.21524783968925476,0.9518235325813293
417,37802,37800,-0.03823389112949371,-0.027280448004603386,1.1401433944702148,1.2826306819915771,-7.9757280349731445,-0.47638314962387085,2.1738028526306152,3.973224401473999,0.3042094111442566,-0.23083969950675964,-0.11106699705123901,0.9641014337539673
418,37812,37810,-0.03842882066965103,-0.0043990532867610455,1.0594922304153442,3.188174247741699,-3.3978843688964844,-1.2840070724487305,2.17345929145813,3.972954511642456,0.30042463541030884,-0.05710778385400772,-0.06721056997776031,0.9579530954360962
419,37822,37820,-0.03416485711932182,0.09361860156059265,0.9804694652557373,2.692345380783081,1.827789068222046,-0.7148649096488953,2.1750502586364746,3.9729607105255127,0.3000463545322418,-0.11696536839008331,-0.016623152419924736,0.9536553025245667
420,37832,37830,-0.005404096562415361,0.05581289529800415,0.9688267707824707,0.3992358446121216,2.7463905811309814,-0.10287617892026901,2.1758298873901367,3.9718549251556396,0.2996411919593811,-0.21607959270477295,-0.065088652074337,0.9084033966064453
421,37842,37840,0.03704186528921127,-0.09287931770086288,1.0306788682937622,0.9552896618843079,3.660334587097168,0.05484110489487648,2.1782925128936768,3.972583770751953,0.30229589343070984,-0.31492701172828674,-0.04149480164051056,0.9085865020751953
422,37852,37850,0.0007019025506451726,-0.020110582932829857,1.0679984092712402,-0.034876853227615356,-0.540318489074707,0.134983628988266,2.17820405960083,3.972562551498413,0.30224284529685974,-0.25000661611557007,-0.025211159139871597,0.9099013209342957
423,37862,37860,-0.0019672061316668987,-0.13578951358795166,1.0215131044387817,0.8261799812316895,1.0061005353927612,-0.5082464218139648,2.178657293319702,3.971787214279175,0.3021451234817505,-0.24970927834510803,-0.010399797931313515,0.8749306201934814
424,37872,37870,0.0016265783924609423,-0.024942195042967796,0.982427179813385,-1.1974234580993652,2.507171392440796,-0.200375035405159,2.180111885070801,3.973412275314331,0.30209702253341675,-0.2621956467628479,-0.16481313109397888,0.9311639070510864
425,37882,37880,0.04339396581053734,-0.0077075716108083725,1.080891728401184,0.6651155352592468,-1.0528563261032104,-0.4309503734111786,2.180764675140381,3.974766969680786,0.3001870810985565,-0.25510933995246887,-0.14891716837882996,0.9313202500343323
426,37892,37890,-0.001137460581958294,-0.03961402550339699,1.0117751359939575,1.8961809873580933,-0.9877448678016663,-0.5293387174606323,2.1817777156829834,3.975006103515625,0.30008289217948914,-0.21330974996089935,-0.020827651023864746,0.929318904876709
427,37902,37900,-0.00614538136869669,-0.10712894797325134,1.0752471685409546,4.648823261260986,-3.0201773643493652,-0.48963502049446106,2.1815226078033447,3.9742980003356934,0.3001597225666046,-0.1547890305519104,-0.03365402668714523,0.9708890318870544
428,37912,37910,-0.01887265406548977,0.09199657291173935,0.9700934290885925,5.498953819274902,-2.34318470954895,-0.7305970191955566,2.184145927429199,3.9766132831573486,0.3000384271144867,-0.2605316936969757,0.06465563923120499,1.044317603111267
429,37922,37920,-0.05637914314866066,0.11544724553823471,0.9717902541160583,6.1353302001953125,0.924414336681366,-2.013918876647949,2.185643196105957,3.9774694442749023,0.30004388093948364,-0.1289978176355362,0.16582167148590088,1.1094082593917847
430,37932,37930,-0.0029964600689709187,0.07240041345357895,0.9177584052085876,2.0769031047821045,-0.8803350329399109,-1.440759539604187,2.1856586933135986,3.9792873859405518,0.30008164048194885,-0.20311731100082397,0.08011995255947113,1.1030635833740234
431,37942,37940,-0.031093033030629158,-0.03423863649368286,1.1008213758468628,0.1648697555065155,2.3150579929351807,-2.487842082977295,2.186037063598633,3.980343818664551,0.30028870701789856,-0.17169538140296936,0.11680963635444641,1.1299357414245605
432,37952,37950,0.018406042829155922,-0.05023833364248276,1.0282312631607056,-3.2871196269989014,4.3356475830078125,-2.3291356563568115,2.186732769012451,3.980837106704712,0.30023735761642456,-0.27842533588409424,0.10684937238693237,1.123270034790039
433,37962,37960,0.008980812504887581,0.007531036157160997,1.0154465436935425,-2.2164108753204346,3.533761739730835,-2.9188942909240723,2.188668966293335,3.9808778762817383,0.30016645789146423,-0.311418741941452,0.07446160912513733,1.0864757299423218
434,37972,37970,-0.0066839344799518585,-0.011075473390519619,1.013311505317688,-1.8374381065368652,2.4439663887023926,-2.383784294128418,2.190070152282715,3.980621337890625,0.30006369948387146,-0.4036791920661926,0.13655509054660797,1.1255344152450562
435,37982,37980,0.05552946403622627,-0.10401181876659393,0.9819926619529724,1.0525541305541992,-1.8372255563735962,-2.9671013355255127,2.1911118030548096,3.981206178665161,0.3000308573246002,-0.45791950821876526,0.13201861083507538,1.0903254747390747
436,37992,37990,-0.002262153895571828,-0.001412357552908361,1.060097098350525,3.326089382171631,-4.912257194519043,-2.560847282409668,2.190823793411255,3.9824039936065674,0.3002361059188843,-0.27969589829444885,0.16624267399311066,1.1230367422103882
437,38002,38000,0.01473247166723013,-0.022782128304243088,0.984929084777832,4.816152572631836,-6.702150344848633,-2.9216854572296143,2.19193959236145,3.9827325344085693,0.3002717196941376,-0.23193781077861786,0.1552698314189911,1.140867829322815
438,38012,38010,-0.031217193230986595,-0.06880369782447815,1.0729824304580688,3.9431264400482178,-9.256464004516602,-3.171618700027466,2.1947200298309326,3.984546422958374,0.3022957742214203,-0.2812962234020233,0.2388177067041397,1.149787425994873
439,38022,38020,-0.008164182305335999,-0.03076590597629547,1.0367366075515747,1.9229791164398193,-4.526866912841797,-3.426104784011841,2.194450855255127,3.985548496246338,0.3026786148548126,-0.0448421984910965,0.1399461030960083,1.1033785343170166
440,38032,38030,0.017310893163084984,-0.0032937617506831884,1.0187939405441284,-1.0444495677947998,-2.64862060546875,-3.3446028232574463,2.1956050395965576,3.984959125518799,0.3029215335845947,-0.036988455802202225,0.24301090836524963,1.0767033100128174
441,38042,38040,0.009976277127861977,-0.02405933290719986,0.9857420325279236,-2.1922147274017334,-0.08019930124282837,-3.385559320449829,2.197237730026245,3.9850430488586426,0.30319082736968994,-0.06682688742876053,0.22320443391799927,1.033090353012085
442,38052,38050,0.03523436188697815,-0.14642666280269623,1.0388766527175903,-2.400378942489624,1.405051827430725,-3.0602638721466064,2.1978890895843506,3.9851391315460205,0.3034950792789459,-0.05273282900452614,0.18768775463104248,0.9918127655982971
443,38062,38060,0.03567857667803764,-0.08015941083431244,0.9674644470214844,-3.419347047805786,1.187310814857483,-3.0144925117492676,2.1983747482299805,3.985975503921509,0.3037455976009369,-0.13080795109272003,0.1498497724533081,1.0119991302490234
444,38072,38070,0.021469661965966225,-0.14047865569591522,1.0126303434371948,-1.1129392385482788,-1.7048190832138062,-3.151265859603882,2.1997056007385254,3.9857430458068848,0.3050054907798767,-0.26153209805488586,0.1274574100971222,0.922073245048523
445,38082,38080,-0.022228244692087173,-0.1969681829214096,1.0488629341125488,1.5161337852478027,-4.592637062072754,-2.554914712905884,2.2018399238586426,3.985055446624756,0.3052575886249542,-0.17775560915470123,0.06522227823734283,0.9061967730522156
446,38092,38090,-0.008083444088697433,-0.1330747902393341,0.9895951151847839,2.6135380268096924,-1.7412869930267334,-2.7513766288757324,2.2013227939605713,3.987651824951172,0.30599334836006165,-0.014228572137653828,0.12078261375427246,0.9878180623054504
447,38102,38100,-0.05459457263350487,-0.043379656970500946,1.0129741430282593,3.3239402770996094,-4.958776950836182,-3.4853014945983887,2.2019121646881104,3.9882800579071045,0.3064268231391907,0.00829705037176609,0.10613143444061279,0.9696319699287415
448,38112,38110,-0.03830801323056221,-0.005471780430525541,0.9847057461738586,2.4446587562561035,-3.235410213470459,-3.7123281955718994,2.2036023139953613,3.9906961917877197,0.30741918087005615,0.1800684630870819,0.1673239916563034,1.0274162292480469
449,38122,38120,0.022181348875164986,-0.02874278463423252,0.9345749020576477,2.607347249984741,-1.281383752822876,-4.403484344482422,2.2034270763397217,3.990159273147583,0.3079453408718109,0.15855854749679565,0.14981965720653534,1.0707130432128906
450,38132,38130,0.08723391592502594,-0.21675686538219452,0.96025151014328,1.6258544921875,0.26566165685653687,-4.0953874588012695,2.2050201892852783,3.9923040866851807,0.30835434794425964,-0.04863569512963295,0.20501399040222168,0.9986227750778198
451,38142,38140,0.06012860685586929,-0.22915580868721008,0.9411465525627136,0.661713182926178,-0.16116343438625336,-4.394631385803223,2.207333564758301,3.9924557209014893,0.30638962984085083,-0.0056840600445866585,0.2354784905910492,0.9850000739097595
452,38152,38150,0.0027398578822612762,0.10244876891374588,0.9279449582099915,0.27417802810668945,-1.748905897140503,-3.8621652126312256,2.2085354328155518,3.9923081398010254,0.30656927824020386,-0.11855103820562363,0.1843235343694687,0.9065086245536804
453,38162,38160,-0.0429551862180233,-0.08189624547958374,1.0227130651474,-0.1896345317363739,-2.9976582527160645,-3.669191837310791,2.2093961238861084,3.9937734603881836,0.30644458532333374,0.03261552378535271,0.20640063285827637,0.903249979019165
454,38172,38170,-0.05747094750404358,-0.12665079534053802,1.0460439920425415,0.2997709810733795,-1.1642643213272095,-3.8579652309417725,2.2096710205078125,3.994295358657837,0.3074721693992615,0.18286047875881195,0.21671850979328156,0.9113537073135376
455,38182,38180,0.07785550504922867,-0.0028970546554774046,0.9385543465614319,-0.9213557839393616,-1.1791504621505737,-3.8604280948638916,2.211223602294922,3.995814561843872,0.3075391352176666,0.07218456268310547,0.148228719830513,0.912543535232544
456,38192,38190,0.1556004285812378,-0.03734273090958595,0.9141889214515686,-0.3532525300979614,-5.237091064453125,-3.941779851913452,2.211724281311035,3.9974300861358643,0.3075728714466095,0.1496472954750061,0.15898878872394562,0.9560620784759521
457,38202,38200,0.04482079669833183,-0.003808728652074933,0.9508548378944397,0.23916101455688477,-3.537353038787842,-4.928245544433594,2.212254285812378,3.9975013732910156,0.30773305892944336,0.15868747234344482,0.17685899138450623,0.9149532914161682
458,38212,38210,0.0070619829930365086,-0.001429467462003231,0.9769465327262878,2.0878114700317383,-1.5292305946350098,-4.597490310668945,2.2140448093414307,3.9994373321533203,0.3106657862663269,0.221527561545372,0.21979664266109467,0.9509997367858887
459,38222,38220,0.031225692480802536,0.0273512564599514,0.9932805895805359,3.080411672592163,-0.053276702761650085,-5.058659553527832,2.2141036987304688,3.9997174739837646,0.31090089678764343,0.25283655524253845,0.20103800296783447,0.9078400135040283
460,38232,38230,0.014205879531800747,-0.1169985979795456,0.9995708465576172,2.9489521980285645,0.4582129120826721,-4.264420509338379,2.214451551437378,3.9988558292388916,0.31102806329727173,0.19321614503860474,0.26979780197143555,0.821631908416748
461,38242,38240,0.03146319091320038,-0.1335776150226593,0.9555069208145142,2.460998058319092,0.6598758101463318,-3.7347328662872314,2.2162396907806396,3.999767541885376,0.31009411811828613,0.12801073491573334,0.33250150084495544,0.8692833781242371
462,38252,38250,-0.009979525581002235,-0.13991323113441467,0.9802950024604797,1.5938668251037598,0.43086859583854675,-3.952632427215576,2.2178046703338623,4.000581741333008,0.3101155161857605,0.21350423991680145,0.3760124444961548,0.841831624507904
463,38262,38260,-0.050560902804136276,-0.09660544246435165,1.016103744506836,0.2819001078605652,-0.49589043855667114,-4.4573822021484375,2.218043565750122,4.00045108795166,0.31026312708854675,0.22055241465568542,0.31739920377731323,0.7835988402366638
464,38272,38270,-0.04094292223453522,-0.049077268689870834,0.9789698123931885,-1.668752670288086,0.45639219880104065,-3.7231526374816895,2.218886613845825,4.0011420249938965,0.31119412183761597,0.08206271380186081,0.31439322233200073,0.7360471487045288
465,38282,38280,-0.01296368520706892,-0.0044998060911893845,0.9480152130126953,-3.2225630283355713,-0.7205508947372437,-3.535503387451172,2.220855236053467,4.002112865447998,0.3111709952354431,0.18802015483379364,0.2813202142715454,0.7315965294837952
466,38292,38290,-0.0010418000165373087,0.022184165194630623,0.9719973206520081,-2.516775608062744,-1.3347890377044678,-3.040438413619995,2.2212471961975098,4.002882957458496,0.31137150526046753,0.21354739367961884,0.24718151986598969,0.7765835523605347
467,38302,38300,0.006417764350771904,0.02005027048289776,1.0036503076553345,-1.053842306137085,-0.009991837665438652,-4.269130706787109,2.221971035003662,4.003325462341309,0.31124845147132874,0.17329560220241547,0.2305278331041336,0.7175885438919067
468,38312,38310,-0.029432443901896477,0.045097555965185165,0.9723389744758606,-0.47713977098464966,-1.2426196336746216,-3.1654155254364014,2.223583936691284,4.005073547363281,0.31124359369277954,0.202903151512146,0.23427259922027588,0.7528420686721802
469,38322,38320,0.021508269011974335,0.0032281202729791403,0.9994916319847107,0.6742355227470398,-0.8394312262535095,-4.079448223114014,2.2237396240234375,4.004848003387451,0.31124192476272583,0.16335271298885345,0.2520845830440521,0.6988670229911804
470,38332,38330,0.018884826451539993,-0.028340531513094902,1.011470913887024,2.765042543411255,-0.6404284238815308,-3.6201982498168945,2.225053071975708,4.00481653213501,0.3111515939235687,0.2642689049243927,0.22395409643650055,0.6477320194244385
471,38342,38340,-0.0033092773519456387,-0.07505419105291367,0.9800980091094971,3.104442596435547,-0.43245992064476013,-3.069025754928589,2.2244772911071777,4.0048956871032715,0.3107960820198059,0.27910366654396057,0.287689208984375,0.6567396521568298
472,38352,38350,-0.030707981437444687,-0.09234628826379776,0.9741275310516357,2.335214614868164,-0.018274251371622086,-3.143505811691284,2.2245991230010986,4.004993438720703,0.3107345402240753,0.21091368794441223,0.34775489568710327,0.5955997705459595
473,38362,38360,-0.0012634750455617905,-0.0782686099410057,0.9727990627288818,0.9368414878845215,5.3813676834106445,-2.6928186416625977,2.226116418838501,4.006478309631348,0.3106728792190552,0.2730911374092102,0.36093926429748535,0.679686963558197
474,38372,38370,-0.01589740440249443,0.0028659782838076353,0.9681394100189209,-0.34467703104019165,0.15769712626934052,-3.715790271759033,2.2264621257781982,4.006391525268555,0.313454270362854,0.10830281674861908,0.2341025024652481,0.6648786067962646
475,38382,38380,-0.02692350000143051,-0.024670762941241264,0.9681433439254761,-1.9457544088363647,4.64377498626709,-3.5915212631225586,2.2288427352905273,4.008388042449951,0.3134578466415405,0.08567514270544052,0.2423064410686493,0.6361284852027893
476,38392,38390,0.011472866870462894,-0.09050972014665604,0.9875060319900513,-2.0623905658721924,4.701841831207275,-3.4595766067504883,2.230358123779297,4.009636878967285,0.3135060667991638,0.04791353642940521,0.224202498793602,0.6911829113960266
477,38402,38400,0.028751453384757042,-0.05285791680216789,0.9629909992218018,-0.6544050574302673,2.1905837059020996,-3.4633595943450928,2.2306363582611084,4.010486602783203,0.31301674246788025,0.08572085201740265,0.2921162247657776,0.656364381313324
478,38412,38410,0.026889236643910408,-0.051382679492235184,1.0477145910263062,1.3271534442901611,-0.8001205325126648,-3.029115676879883,2.2312567234039307,4.011415004730225,0.31308653950691223,0.0810849517583847,0.30049559473991394,0.704490065574646
